SensorId, TimeStamp (s), FrameNumber, AccX (g), AccY (g), AccZ (g), GyroX (deg/s), GyroY (deg/s), GyroZ (deg/s), MagX (uT), MagY (uT), MagZ (uT), EulerX (deg), EulerY (deg), EulerZ (deg), QuatW, QuatX, QuatY, QuatZ, LinAccX (g), LinAccY (g), LinAccZ (g), Pressure (kPa), Altitude (m), Temperature (degC), HeaveMotion (m)
1, 0.0000, 0, -0.40636444, -0.90304154, -0.09319606, 0.38896298, 0.60950512, -0.68277496, 0.00000000, 0.00000000, 0.00000000, 84.12703705, -23.95891380, 107.79064941, 1.00000000, 0.00000000, 0.00000000, 0.00000000, 0.00023625, -0.00597788, -0.00031069, 0.00000000, 0.00000000, 0.00000000, 0.00000000
1, 0.0100, 1, -0.40628976, -0.90186548, -0.09414084, 0.33433276, 0.44053203, -0.85908991, 0.00000000, 0.00000000, 0.00000000, 84.12881470, -23.94991875, 107.79448700, 1.00000000, 0.00000000, 0.00000000, 0.00000000, 0.00029548, -0.00721528, 0.00064783, 0.00000000, 0.00000000, 0.00000000, 0.00000000
1, 0.0200, 2, -0.40452328, -0.90312082, -0.09441845, 0.40652883, 0.35564232, -1.01846671, 0.00000000, 0.00000000, 0.00000000, 84.13047791, -23.93939018, 107.79801941, 1.00000000, 0.00000000, 0.00000000, 0.00000000, -0.00131171, -0.00603403, 0.00095485, 0.00000000, 0.00000000, 0.00000000, 0.00000000
1, 0.0300, 3, -0.40632185, -0.90467548, -0.09280428, 0.35090667, 0.18549317, -1.05479038, 0.00000000, 0.00000000, 0.00000000, 84.13365173, -23.92871094, 107.79885101, 1.00000000, 0.00000000, 0.00000000, 0.00000000, 0.00066107, -0.00455928, -0.00063821, 0.00000000, 0.00000000, 0.00000000, 0.00000000
1, 0.0400, 4, -0.40600598, -0.90395141, -0.09188186, 0.15188339, 0.11878789, -1.01814234, 0.00000000, 0.00000000, 0.00000000, 84.13510895, -23.91846848, 107.79900360, 1.00000000, 0.00000000, 0.00000000, 0.00000000, 0.00050856, -0.00535835, -0.00153977, 0.00000000, 0.00000000, 0.00000000, 0.00000000
1, 0.0500, 5, -0.40618300, -0.90593648, -0.09299287, 0.09706859, 0.06773932, -0.98307508, 0.00000000, 0.00000000, 0.00000000, 84.13621521, -23.90861320, 107.79864502, 1.00000000, 0.00000000, 0.00000000, 0.00000000, 0.00084465, -0.00344642, -0.00040739, 0.00000000, 0.00000000, 0.00000000, 0.00000000
1, 0.0600, 6, -0.40442991, -0.90832299, -0.09391832, 0.09316030, -0.19005939, -0.82857400, 0.00000000, 0.00000000, 0.00000000, 84.13836670, -23.90056610, 107.79564667, 1.00000000, 0.00000000, 0.00000000, 0.00000000, -0.00076950, -0.00112437, 0.00054313, 0.00000000, 0.00000000, 0.00000000, 0.00000000
1, 0.0700, 7, -0.40395957, -0.91010749, -0.09456791, -0.03682928, -0.42979243, -0.63731861, 0.00000000, 0.00000000, 0.00000000, 84.13717651, -23.89252090, 107.79206085, 1.00000000, 0.00000000, 0.00000000, 0.00000000, -0.00111982, 0.00060593, 0.00120033, 0.00000000, 0.00000000, 0.00000000, 0.00000000
1, 0.0800, 8, -0.40454888, -0.91066641, -0.09300890, -0.07146993, -0.32654762, -0.67067581, 0.00000000, 0.00000000, 0.00000000, 84.13819885, -23.88617325, 107.78776550, 1.00000000, 0.00000000, 0.00000000, 0.00000000, -0.00041143, 0.00111310, -0.00037093, 0.00000000, 0.00000000, 0.00000000, 0.00000000
1, 0.0900, 9, -0.40572125, -0.91110164, -0.09377852, -0.28477293, -0.08486085, -0.68271476, 0.00000000, 0.00000000, 0.00000000, 84.13603210, -23.87946892, 107.78607941, 1.00000000, 0.00000000, 0.00000000, 0.00000000, 0.00086637, 0.00150381, 0.00037353, 0.00000000, 0.00000000, 0.00000000, 0.00000000
1, 0.1000, 10, -0.40620798, -0.90796208, -0.09655443, -0.22778748, 0.05314963, -0.89177507, 0.00000000, 0.00000000, 0.00000000, 84.13391876, -23.87054634, 107.78567505, 1.00000000, 0.00000000, 0.00000000, 0.00000000, 0.00148283, -0.00168869, 0.00310358, 0.00000000, 0.00000000, 0.00000000, 0.00000000
1, 0.1100, 11, -0.40649873, -0.90653861, -0.09703937, -0.01262358, -0.08506486, -0.98353386, 0.00000000, 0.00000000, 0.00000000, 84.13460541, -23.86083984, 107.78365326, 1.00000000, 0.00000000, 0.00000000, 0.00000000, 0.00191700, -0.00317517, 0.00358096, 0.00000000, 0.00000000, 0.00000000, 0.00000000
1, 0.1200, 12, -0.40610287, -0.90686142, -0.09609035, 0.10991856, -0.56302285, -1.23565686, 0.00000000, 0.00000000, 0.00000000, 84.13661957, -23.85296822, 107.77746582, 1.00000000, 0.00000000, 0.00000000, 0.00000000, 0.00169041, -0.00293040, 0.00265845, 0.00000000, 0.00000000, 0.00000000, 0.00000000
1, 0.1300, 13, -0.40479830, -0.90819281, -0.09728806, 0.10818152, -0.66634822, -1.14935803, 0.00000000, 0.00000000, 0.00000000, 84.14115143, -23.84222031, 107.76892853, 1.00000000, 0.00000000, 0.00000000, 0.00000000, 0.00051490, -0.00166091, 0.00390118, 0.00000000, 0.00000000, 0.00000000, 0.00000000
1, 0.1400, 14, -0.40354806, -0.90899158, -0.09621690, -0.16142476, -0.54498547, -1.02213311, 0.00000000, 0.00000000, 0.00000000, 84.14237976, -23.83260345, 107.76187134, 1.00000000, 0.00000000, 0.00000000, 0.00000000, -0.00056996, -0.00093870, 0.00285988, 0.00000000, 0.00000000, 0.00000000, 0.00000000
1, 0.1500, 15, -0.40355930, -0.90742183, -0.09314737, -0.44760737, -0.37111840, -1.01658046, 0.00000000, 0.00000000, 0.00000000, 84.13999176, -23.82287025, 107.75670624, 1.00000000, 0.00000000, 0.00000000, 0.00000000, -0.00041489, -0.00256975, -0.00023453, 0.00000000, 0.00000000, 0.00000000, 0.00000000
1, 0.1600, 16, -0.40147111, -0.90746510, -0.09210235, -0.26559523, -0.30305690, -1.19299757, 0.00000000, 0.00000000, 0.00000000, 84.13920593, -23.81132126, 107.75207520, 1.00000000, 0.00000000, 0.00000000, 0.00000000, -0.00232164, -0.00260440, -0.00130528, 0.00000000, 0.00000000, 0.00000000, 0.00000000
1, 0.1700, 17, -0.40254056, -0.90693861, -0.09394009, -0.19302584, -0.28623831, -1.24618483, 0.00000000, 0.00000000, 0.00000000, 84.13541412, -23.79776001, 107.74979401, 1.00000000, 0.00000000, 0.00000000, 0.00000000, -0.00105717, -0.00321388, 0.00049872, 0.00000000, 0.00000000, 0.00000000, 0.00000000
1, 0.1800, 18, -0.40236372, -0.90759200, -0.09342164, -0.40992880, -0.42012790, -1.33260429, 0.00000000, 0.00000000, 0.00000000, 84.13375092, -23.78493690, 107.74373627, 1.00000000, 0.00000000, 0.00000000, 0.00000000, -0.00101890, -0.00264886, -0.00008867, 0.00000000, 0.00000000, 0.00000000, 0.00000000
1, 0.1900, 19, -0.40192017, -0.90895134, -0.09670401, -0.50155574, -0.52240509, -1.26269197, 0.00000000, 0.00000000, 0.00000000, 84.13159943, -23.77291107, 107.73664856, 1.00000000, 0.00000000, 0.00000000, 0.00000000, -0.00126547, -0.00137219, 0.00314978, 0.00000000, 0.00000000, 0.00000000, 0.00000000
1, 0.2000, 20, -0.40372705, -0.90839624, -0.10031965, -0.57238847, -0.46965408, -1.34869897, 0.00000000, 0.00000000, 0.00000000, 84.12855530, -23.75997734, 107.73001862, 1.00000000, 0.00000000, 0.00000000, 0.00000000, 0.00074520, -0.00201289, 0.00671976, 0.00000000, 0.00000000, 0.00000000, 0.00000000
1, 0.2100, 21, -0.40271401, -0.90844870, -0.09973604, -0.62521756, -0.34957182, -1.32913744, 0.00000000, 0.00000000, 0.00000000, 84.12443542, -23.74711800, 107.72473907, 1.00000000, 0.00000000, 0.00000000, 0.00000000, -0.00006222, -0.00204393, 0.00606350, 0.00000000, 0.00000000, 0.00000000, 0.00000000
1, 0.2200, 22, -0.40279752, -0.90775251, -0.09844683, -0.68177050, -0.60521293, -1.36645734, 0.00000000, 0.00000000, 0.00000000, 84.11420441, -23.73414993, 107.72061157, 1.00000000, 0.00000000, 0.00000000, 0.00000000, 0.00022320, -0.00281985, 0.00468184, 0.00000000, 0.00000000, 0.00000000, 0.00000000
1, 0.2300, 23, -0.40098315, -0.91013616, -0.09977037, -0.71839654, -0.63934326, -1.33141315, 0.00000000, 0.00000000, 0.00000000, 84.11041260, -23.72157097, 107.71216583, 1.00000000, 0.00000000, 0.00000000, 0.00000000, -0.00138483, -0.00051148, 0.00585056, 0.00000000, 0.00000000, 0.00000000, 0.00000000
1, 0.2400, 24, -0.40288857, -0.91810691, -0.10222557, -0.75570625, -0.82618296, -1.43815434, 0.00000000, 0.00000000, 0.00000000, 84.10712433, -23.70810318, 107.70158386, 1.00000000, 0.00000000, 0.00000000, 0.00000000, 0.00072790, 0.00737464, 0.00823859, 0.00000000, 0.00000000, 0.00000000, 0.00000000
1, 0.2500, 25, -0.40365946, -0.93150133, -0.10528246, -0.82319242, -0.83697432, -2.10242343, 0.00000000, 0.00000000, 0.00000000, 84.10348511, -23.68804932, 107.69013977, 1.00000000, 0.00000000, 0.00000000, 0.00000000, 0.00177956, 0.02065022, 0.01124582, 0.00000000, 0.00000000, 0.00000000, 0.00000000
1, 0.2600, 26, -0.40243900, -0.94273484, -0.10612166, -1.73786199, -0.75615615, -2.47525668, 0.00000000, 0.00000000, 0.00000000, 84.09050751, -23.66419792, 107.67915344, 1.00000000, 0.00000000, 0.00000000, 0.00000000, 0.00091308, 0.03174488, 0.01191902, 0.00000000, 0.00000000, 0.00000000, 0.00000000
1, 0.2700, 27, -0.40255636, -0.94483536, -0.10812139, -2.84696436, -0.46655813, -3.03573942, 0.00000000, 0.00000000, 0.00000000, 84.06128693, -23.63052940, 107.67318726, 1.00000000, 0.00000000, 0.00000000, 0.00000000, 0.00148550, 0.03368245, 0.01355706, 0.00000000, 0.00000000, 0.00000000, 0.00000000
1, 0.2800, 28, -0.40443966, -0.94821280, -0.11190604, -3.81036949, -0.05827203, -3.64910364, 0.00000000, 0.00000000, 0.00000000, 84.02508545, -23.59428787, 107.66841888, 1.00000000, 0.00000000, 0.00000000, 0.00000000, 0.00395780, 0.03686205, 0.01675347, 0.00000000, 0.00000000, 0.00000000, 0.00000000
1, 0.2900, 29, -0.40207276, -0.94283885, -0.10872522, -4.70684958, 0.14073156, -3.86327434, 0.00000000, 0.00000000, 0.00000000, 83.97916412, -23.55571556, 107.66554260, 1.00000000, 0.00000000, 0.00000000, 0.00000000, 0.00219648, 0.03129563, 0.01287248, 0.00000000, 0.00000000, 0.00000000, 0.00000000
1, 0.3000, 30, -0.39809352, -0.93068266, -0.11017066, -5.55260611, 0.28466523, -3.69373322, 0.00000000, 0.00000000, 0.00000000, 83.92411041, -23.51867294, 107.66439056, 1.00000000, 0.00000000, 0.00000000, 0.00000000, -0.00117956, 0.01896533, 0.01346241, 0.00000000, 0.00000000, 0.00000000, 0.00000000
1, 0.3100, 31, -0.39341277, -0.92396820, -0.11926419, -5.73064709, 0.55886537, -3.54832816, 0.00000000, 0.00000000, 0.00000000, 83.86602783, -23.48280334, 107.66632843, 1.00000000, 0.00000000, 0.00000000, 0.00000000, -0.00528271, 0.01209831, 0.02161564, 0.00000000, 0.00000000, 0.00000000, 0.00000000
1, 0.3200, 32, -0.38601324, -0.92399848, -0.12200826, -5.70948219, 0.64682317, -3.86253524, 0.00000000, 0.00000000, 0.00000000, 83.80223083, -23.43755150, 107.67224884, 1.00000000, 0.00000000, 0.00000000, 0.00000000, -0.01204628, 0.01195610, 0.02338190, 0.00000000, 0.00000000, 0.00000000, 0.00000000
1, 0.3300, 33, -0.37846312, -0.92456788, -0.11682030, -5.45539713, 0.66360372, -4.12793446, 0.00000000, 0.00000000, 0.00000000, 83.74675751, -23.39579582, 107.67455292, 1.00000000, 0.00000000, 0.00000000, 0.00000000, -0.01886737, 0.01231699, 0.01718744, 0.00000000, 0.00000000, 0.00000000, 0.00000000
1, 0.3400, 34, -0.36986944, -0.92484832, -0.12112554, -4.64521074, 0.53742284, -4.33182907, 0.00000000, 0.00000000, 0.00000000, 83.70004272, -23.35215187, 107.67520905, 1.00000000, 0.00000000, 0.00000000, 0.00000000, -0.02677435, 0.01239011, 0.02065852, 0.00000000, 0.00000000, 0.00000000, 0.00000000
1, 0.3500, 35, -0.36591333, -0.92774165, -0.12740988, -3.79560661, 0.73560369, -4.51488304, 0.00000000, 0.00000000, 0.00000000, 83.66107941, -23.30645943, 107.67775726, 1.00000000, 0.00000000, 0.00000000, 0.00000000, -0.03000898, 0.01504710, 0.02624602, 0.00000000, 0.00000000, 0.00000000, 0.00000000
1, 0.3600, 36, -0.36693063, -0.93355662, -0.12204351, -2.93538404, 0.30037636, -4.63553810, 0.00000000, 0.00000000, 0.00000000, 83.63265228, -23.26005936, 107.67542267, 1.00000000, 0.00000000, 0.00000000, 0.00000000, -0.02825244, 0.02060378, 0.02032170, 0.00000000, 0.00000000, 0.00000000, 0.00000000
1, 0.3700, 37, -0.36429444, -0.92910105, -0.11004363, -3.05680156, -0.65957987, -4.22538948, 0.00000000, 0.00000000, 0.00000000, 83.60504150, -23.20636177, 107.66464996, 1.00000000, 0.00000000, 0.00000000, 0.00000000, -0.03013936, 0.01587500, 0.00786727, 0.00000000, 0.00000000, 0.00000000, 0.00000000
1, 0.3800, 38, -0.36601645, -0.91615188, -0.10772809, -2.76098895, -1.19798541, -3.60538793, 0.00000000, 0.00000000, 0.00000000, 83.58425903, -23.17186546, 107.64732361, 1.00000000, 0.00000000, 0.00000000, 0.00000000, -0.02768081, 0.00265624, 0.00512192, 0.00000000, 0.00000000, 0.00000000, 0.00000000
1, 0.3900, 39, -0.36554483, -0.91533262, -0.10413995, -1.29941201, -0.87105548, -3.56692505, 0.00000000, 0.00000000, 0.00000000, 83.57668304, -23.13739586, 107.63356781, 1.00000000, 0.00000000, 0.00000000, 0.00000000, -0.02760766, 0.00162847, 0.00130137, 0.00000000, 0.00000000, 0.00000000, 0.00000000
1, 0.4000, 40, -0.36376205, -0.91521323, -0.10352367, -0.28344002, -0.39930531, -3.94128084, 0.00000000, 0.00000000, 0.00000000, 83.57742310, -23.09868813, 107.62445831, 1.00000000, 0.00000000, 0.00000000, 0.00000000, -0.02879179, 0.00125657, 0.00064129, 0.00000000, 0.00000000, 0.00000000, 0.00000000
1, 0.4100, 41, -0.36215672, -0.91949856, -0.11144125, -0.62984776, 0.46436310, -4.53932953, 0.00000000, 0.00000000, 0.00000000, 83.57132721, -23.05305481, 107.62395477, 1.00000000, 0.00000000, 0.00000000, 0.00000000, -0.02971098, 0.00525728, 0.00847248, 0.00000000, 0.00000000, 0.00000000, 0.00000000
1, 0.4200, 42, -0.36859000, -0.92308092, -0.12160635, -1.31806314, 1.09545922, -5.53841639, 0.00000000, 0.00000000, 0.00000000, 83.54863739, -22.98801613, 107.63329315, 1.00000000, 0.00000000, 0.00000000, 0.00000000, -0.02240719, 0.00849669, 0.01837460, 0.00000000, 0.00000000, 0.00000000, 0.00000000
1, 0.4300, 43, -0.37417266, -0.93029797, -0.12602551, -0.96329486, 1.76534045, -6.30482435, 0.00000000, 0.00000000, 0.00000000, 83.53456879, -22.92338371, 107.64464569, 1.00000000, 0.00000000, 0.00000000, 0.00000000, -0.01572414, 0.01528695, 0.02241553, 0.00000000, 0.00000000, 0.00000000, 0.00000000
1, 0.4400, 44, -0.37748465, -0.93246937, -0.12815368, -0.03504072, 2.42636800, -6.71087265, 0.00000000, 0.00000000, 0.00000000, 83.52722168, -22.85396194, 107.66261292, 1.00000000, 0.00000000, 0.00000000, 0.00000000, -0.01131979, 0.01701812, 0.02432732, 0.00000000, 0.00000000, 0.00000000, 0.00000000
1, 0.4500, 45, -0.37610209, -0.93499470, -0.13002993, 0.79369998, 3.95931792, -6.96543169, 0.00000000, 0.00000000, 0.00000000, 83.52191925, -22.78028870, 107.69676971, 1.00000000, 0.00000000, 0.00000000, 0.00000000, -0.01154465, 0.01906924, 0.02605654, 0.00000000, 0.00000000, 0.00000000, 0.00000000
1, 0.4600, 46, -0.36960262, -0.93583870, -0.13299327, 1.93954349, 5.10947895, -6.82590294, 0.00000000, 0.00000000, 0.00000000, 83.52326202, -22.70669556, 107.74346924, 1.00000000, 0.00000000, 0.00000000, 0.00000000, -0.01685264, 0.01941787, 0.02894963, 0.00000000, 0.00000000, 0.00000000, 0.00000000
1, 0.4700, 47, -0.36222896, -0.94293970, -0.14869270, 2.74891639, 6.57348061, -6.99354124, 0.00000000, 0.00000000, 0.00000000, 83.51720428, -22.62247276, 107.81076813, 1.00000000, 0.00000000, 0.00000000, 0.00000000, -0.02299344, 0.02600536, 0.04460154, 0.00000000, 0.00000000, 0.00000000, 0.00000000
1, 0.4800, 48, -0.35107636, -0.96053988, -0.16268136, 2.09341145, 8.55516720, -7.97710752, 0.00000000, 0.00000000, 0.00000000, 83.50654602, -22.53355408, 107.89306641, 1.00000000, 0.00000000, 0.00000000, 0.00000000, -0.03269662, 0.04302672, 0.05833743, 0.00000000, 0.00000000, 0.00000000, 0.00000000
1, 0.4900, 49, -0.34782267, -0.95573914, -0.15245570, 0.55777729, 8.17590046, -7.80528927, 0.00000000, 0.00000000, 0.00000000, 83.48214722, -22.44673347, 107.97142029, 1.00000000, 0.00000000, 0.00000000, 0.00000000, -0.03450850, 0.03766949, 0.04771318, 0.00000000, 0.00000000, 0.00000000, 0.00000000
1, 0.5000, 50, -0.34248197, -0.94544679, -0.15093480, 0.81672484, 6.16383314, -6.79972982, 0.00000000, 0.00000000, 0.00000000, 83.46823883, -22.37216568, 108.02931213, 1.00000000, 0.00000000, 0.00000000, 0.00000000, -0.03858860, 0.02689721, 0.04580672, 0.00000000, 0.00000000, 0.00000000, 0.00000000
1, 0.5100, 51, -0.33130428, -0.92947018, -0.15556878, 2.91038799, 4.77752399, -7.15668392, 0.00000000, 0.00000000, 0.00000000, 83.48118591, -22.29563141, 108.07182312, 1.00000000, 0.00000000, 0.00000000, 0.00000000, -0.04855866, 0.01042154, 0.05043232, 0.00000000, 0.00000000, 0.00000000, 0.00000000
1, 0.5200, 52, -0.32149750, -0.91817814, -0.15026820, 5.75314474, 4.05507469, -8.03995419, 0.00000000, 0.00000000, 0.00000000, 83.51711273, -22.20116425, 108.11032867, 1.00000000, 0.00000000, 0.00000000, 0.00000000, -0.05699748, -0.00148433, 0.04556717, 0.00000000, 0.00000000, 0.00000000, 0.00000000
1, 0.5300, 53, -0.31449807, -0.91040707, -0.15151142, 6.62429762, 3.10495162, -7.95682430, 0.00000000, 0.00000000, 0.00000000, 83.57443237, -22.11861229, 108.13397980, 1.00000000, 0.00000000, 0.00000000, 0.00000000, -0.06251642, -0.00994252, 0.04750872, 0.00000000, 0.00000000, 0.00000000, 0.00000000
1, 0.5400, 54, -0.30609658, -0.90095115, -0.15121379, 7.26279116, 1.02335262, -7.27171516, 0.00000000, 0.00000000, 0.00000000, 83.64621735, -22.04520035, 108.13622284, 1.00000000, 0.00000000, 0.00000000, 0.00000000, -0.06968033, -0.02001359, 0.04818358, 0.00000000, 0.00000000, 0.00000000, 0.00000000
1, 0.5500, 55, -0.29288441, -0.90351754, -0.13628262, 10.20978832, -1.49833512, -7.86248922, 0.00000000, 0.00000000, 0.00000000, 83.75780487, -21.96868515, 108.11086273, 1.00000000, 0.00000000, 0.00000000, 0.00000000, -0.08169889, -0.01809840, 0.03474009, 0.00000000, 0.00000000, 0.00000000, 0.00000000
1, 0.5600, 56, -0.28191936, -0.91182745, -0.12143958, 13.36198997, -2.94555426, -10.36801434, 0.00000000, 0.00000000, 0.00000000, 83.90767670, -21.86877251, 108.06729889, 1.00000000, 0.00000000, 0.00000000, 0.00000000, -0.09120036, -0.01061536, 0.02204017, 0.00000000, 0.00000000, 0.00000000, 0.00000000
1, 0.5700, 57, -0.27261847, -0.90938002, -0.12603901, 13.46173954, -2.71550322, -11.39897346, 0.00000000, 0.00000000, 0.00000000, 84.05316925, -21.74785614, 108.02825165, 1.00000000, 0.00000000, 0.00000000, 0.00000000, -0.09870386, -0.01403807, 0.02899286, 0.00000000, 0.00000000, 0.00000000, 0.00000000
1, 0.5800, 58, -0.27770206, -0.89469212, -0.13278976, 13.91690731, -3.71439338, -11.11883450, 0.00000000, 0.00000000, 0.00000000, 84.21154785, -21.64104843, 107.97624969, 1.00000000, 0.00000000, 0.00000000, 0.00000000, -0.09173591, -0.02972406, 0.03808277, 0.00000000, 0.00000000, 0.00000000, 0.00000000
1, 0.5900, 59, -0.28637427, -0.89265317, -0.14514190, 15.26768208, -5.08209515, -10.76651001, 0.00000000, 0.00000000, 0.00000000, 84.38847351, -21.53896713, 107.91036987, 1.00000000, 0.00000000, 0.00000000, 0.00000000, -0.08138911, -0.03270197, 0.05312521, 0.00000000, 0.00000000, 0.00000000, 0.00000000
1, 0.6000, 60, -0.29904091, -0.88580167, -0.14927225, 16.25906563, -5.73189545, -11.95874786, 0.00000000, 0.00000000, 0.00000000, 84.57804108, -21.42544937, 107.83668518, 1.00000000, 0.00000000, 0.00000000, 0.00000000, -0.06695981, -0.04053728, 0.06017425, 0.00000000, 0.00000000, 0.00000000, 0.00000000
1, 0.6100, 61, -0.30683237, -0.88268143, -0.14103325, 16.64331818, -6.26842213, -13.68469429, 0.00000000, 0.00000000, 0.00000000, 84.77383423, -21.29501343, 107.75603485, 1.00000000, 0.00000000, 0.00000000, 0.00000000, -0.05716055, -0.04473871, 0.05501137, 0.00000000, 0.00000000, 0.00000000, 0.00000000
1, 0.6200, 62, -0.30728430, -0.88164264, -0.14927013, 15.90455627, -6.24027300, -16.12520027, 0.00000000, 0.00000000, 0.00000000, 84.95538330, -21.13715553, 107.67708588, 1.00000000, 0.00000000, 0.00000000, 0.00000000, -0.05433045, -0.04697944, 0.06623740, 0.00000000, 0.00000000, 0.00000000, 0.00000000
1, 0.6300, 63, -0.30738881, -0.87449288, -0.15732883, 15.24333191, -5.71684361, -18.57831573, 0.00000000, 0.00000000, 0.00000000, 85.13590240, -20.95701981, 107.59887695, 1.00000000, 0.00000000, 0.00000000, 0.00000000, -0.05141199, -0.05546527, 0.07708851, 0.00000000, 0.00000000, 0.00000000, 0.00000000
1, 0.6400, 64, -0.30452907, -0.87139916, -0.16089548, 14.92706871, -5.37904119, -21.73781013, 0.00000000, 0.00000000, 0.00000000, 85.31250000, -20.74488640, 107.52215576, 1.00000000, 0.00000000, 0.00000000, 0.00000000, -0.05102557, -0.06004092, 0.08344533, 0.00000000, 0.00000000, 0.00000000, 0.00000000
1, 0.6500, 65, -0.29834586, -0.87287050, -0.16848743, 15.06329441, -4.95848751, -25.11185837, 0.00000000, 0.00000000, 0.00000000, 85.48931122, -20.49854279, 107.44783020, 1.00000000, 0.00000000, 0.00000000, 0.00000000, -0.05338331, -0.06024560, 0.09379634, 0.00000000, 0.00000000, 0.00000000, 0.00000000
1, 0.6600, 66, -0.29642808, -0.87686867, -0.17156333, 14.07553291, -4.83982468, -27.84573746, 0.00000000, 0.00000000, 0.00000000, 85.65596008, -20.22465515, 107.37343597, 1.00000000, 0.00000000, 0.00000000, 0.00000000, -0.05098505, -0.05807097, 0.09952483, 0.00000000, 0.00000000, 0.00000000, 0.00000000
1, 0.6700, 67, -0.29325348, -0.88388878, -0.16934958, 13.05710983, -5.84991503, -30.54004860, 0.00000000, 0.00000000, 0.00000000, 85.80810547, -19.92227173, 107.29040527, 1.00000000, 0.00000000, 0.00000000, 0.00000000, -0.04939101, -0.05299729, 0.09980424, 0.00000000, 0.00000000, 0.00000000, 0.00000000
1, 0.6800, 68, -0.29358822, -0.88863301, -0.17748685, 12.04497051, -7.12724543, -31.97764969, 0.00000000, 0.00000000, 0.00000000, 85.96234894, -19.60843468, 107.19048309, 1.00000000, 0.00000000, 0.00000000, 0.00000000, -0.04395608, -0.05027229, 0.11027202, 0.00000000, 0.00000000, 0.00000000, 0.00000000
1, 0.6900, 69, -0.29545233, -0.89605892, -0.16943271, 11.88896179, -8.97967911, -33.17002869, 0.00000000, 0.00000000, 0.00000000, 86.12092590, -19.28372192, 107.07120514, 1.00000000, 0.00000000, 0.00000000, 0.00000000, -0.03680215, -0.04490061, 0.10463132, 0.00000000, 0.00000000, 0.00000000, 0.00000000
1, 0.7000, 70, -0.29231870, -0.90183514, -0.15247966, 12.36083126, -11.97649956, -33.26362610, 0.00000000, 0.00000000, 0.00000000, 86.29360199, -18.95973396, 106.92142487, 1.00000000, 0.00000000, 0.00000000, 0.00000000, -0.03459680, -0.04116920, 0.09030234, 0.00000000, 0.00000000, 0.00000000, 0.00000000
1, 0.7100, 71, -0.29096621, -0.90685445, -0.15715355, 13.72003937, -13.26669312, -33.99543762, 0.00000000, 0.00000000, 0.00000000, 86.48314667, -18.62881851, 106.75893402, 1.00000000, 0.00000000, 0.00000000, 0.00000000, -0.03052937, -0.03819777, 0.09787847, 0.00000000, 0.00000000, 0.00000000, 0.00000000
1, 0.7200, 72, -0.29332978, -0.91220880, -0.15270670, 14.58907509, -14.86067581, -34.61983490, 0.00000000, 0.00000000, 0.00000000, 86.67974091, -18.29137611, 106.58284760, 1.00000000, 0.00000000, 0.00000000, 0.00000000, -0.02262361, -0.03490187, 0.09657034, 0.00000000, 0.00000000, 0.00000000, 0.00000000
1, 0.7300, 73, -0.28777412, -0.91803485, -0.14426553, 13.73637295, -17.07561493, -34.58301926, 0.00000000, 0.00000000, 0.00000000, 86.87925720, -17.95568275, 106.38302612, 1.00000000, 0.00000000, 0.00000000, 0.00000000, -0.02258764, -0.03110415, 0.09128203, 0.00000000, 0.00000000, 0.00000000, 0.00000000
1, 0.7400, 74, -0.28599614, -0.92078382, -0.14914401, 12.91707611, -19.02395821, -33.75600433, 0.00000000, 0.00000000, 0.00000000, 87.07509613, -17.62862015, 106.16481781, 1.00000000, 0.00000000, 0.00000000, 0.00000000, -0.01888699, -0.03030016, 0.09932262, 0.00000000, 0.00000000, 0.00000000, 0.00000000
1, 0.7500, 75, -0.27630129, -0.94609118, -0.12943925, 13.25900555, -21.00685883, -34.27354050, 0.00000000, 0.00000000, 0.00000000, 87.27898407, -17.29663849, 105.92716980, 1.00000000, 0.00000000, 0.00000000, 0.00000000, -0.02309583, -0.00689873, 0.08287735, 0.00000000, 0.00000000, 0.00000000, 0.00000000
1, 0.7600, 76, -0.27647024, -0.97695136, -0.11709528, 11.28187943, -23.74361420, -33.87912369, 0.00000000, 0.00000000, 0.00000000, 87.46969604, -16.96906662, 105.66274261, 1.00000000, 0.00000000, 0.00000000, 0.00000000, -0.01742236, 0.02209859, 0.07373728, 0.00000000, 0.00000000, 0.00000000, 0.00000000
1, 0.7700, 77, -0.28336057, -1.01282942, -0.10251634, 9.38961411, -25.06501770, -33.10157776, 0.00000000, 0.00000000, 0.00000000, 87.64079285, -16.64814758, 105.38741302, 1.00000000, 0.00000000, 0.00000000, 0.00000000, -0.00513085, 0.05620269, 0.06208364, 0.00000000, 0.00000000, 0.00000000, 0.00000000
1, 0.7800, 78, -0.30373591, -1.04671383, -0.07778304, 6.57548428, -26.55041504, -32.05219650, 0.00000000, 0.00000000, 0.00000000, 87.78887177, -16.33845520, 105.09740448, 1.00000000, 0.00000000, 0.00000000, 0.00000000, 0.02050190, 0.08841367, 0.03988155, 0.00000000, 0.00000000, 0.00000000, 0.00000000
1, 0.7900, 79, -0.32829323, -1.07307470, -0.05477311, 3.69525576, -28.40404320, -29.85140228, 0.00000000, 0.00000000, 0.00000000, 87.91149139, -16.05078697, 104.79017639, 1.00000000, 0.00000000, 0.00000000, 0.00000000, 0.05002809, 0.11323740, 0.01901918, 0.00000000, 0.00000000, 0.00000000, 0.00000000
1, 0.8000, 80, -0.35679150, -1.09688902, -0.05369307, 1.99314499, -27.84182167, -27.56654930, 0.00000000, 0.00000000, 0.00000000, 88.01356506, -15.78518772, 104.49063110, 1.00000000, 0.00000000, 0.00000000, 0.00000000, 0.08311243, 0.13566892, 0.01972696, 0.00000000, 0.00000000, 0.00000000, 0.00000000
1, 0.8100, 81, -0.39368060, -1.12756240, -0.02533068, 0.23330252, -27.65477943, -25.33791351, 0.00000000, 0.00000000, 0.00000000, 88.09580231, -15.54132938, 104.19465637, 1.00000000, 0.00000000, 0.00000000, 0.00000000, 0.12424876, 0.16509189, -0.00715362, 0.00000000, 0.00000000, 0.00000000, 0.00000000
1, 0.8200, 82, -0.41899166, -1.14389241, -0.02773791, -3.34660697, -26.52338982, -21.37844658, 0.00000000, 0.00000000, 0.00000000, 88.13734436, -15.34028912, 103.91184998, 1.00000000, 0.00000000, 0.00000000, 0.00000000, 0.15325758, 0.18036282, -0.00380831, 0.00000000, 0.00000000, 0.00000000, 0.00000000
1, 0.8300, 83, -0.43586758, -1.15685093, -0.07545346, -5.37580395, -21.64842987, -17.04384232, 0.00000000, 0.00000000, 0.00000000, 88.14412689, -15.17696190, 103.68184662, 1.00000000, 0.00000000, 0.00000000, 0.00000000, 0.17307615, 0.19250463, 0.04420747, 0.00000000, 0.00000000, 0.00000000, 0.00000000
1, 0.8400, 84, -0.45484865, -1.17657518, -0.12267900, -6.98892355, -13.01445103, -14.82241058, 0.00000000, 0.00000000, 0.00000000, 88.11067963, -15.03306198, 103.54209900, 1.00000000, 0.00000000, 0.00000000, 0.00000000, 0.19459012, 0.21155198, 0.09113517, 0.00000000, 0.00000000, 0.00000000, 0.00000000
1, 0.8500, 85, -0.43864769, -1.17494154, -0.12763713, -9.76936340, -5.66958904, -12.46189594, 0.00000000, 0.00000000, 0.00000000, 88.02926636, -14.91040897, 103.47911072, 1.00000000, 0.00000000, 0.00000000, 0.00000000, 0.18057269, 0.20936806, 0.09500690, 0.00000000, 0.00000000, 0.00000000, 0.00000000
1, 0.8600, 86, -0.40853521, -1.14013314, -0.09779248, -12.57767868, 0.16163491, -11.06383991, 0.00000000, 0.00000000, 0.00000000, 87.90410614, -14.79976273, 103.47672272, 1.00000000, 0.00000000, 0.00000000, 0.00000000, 0.15237761, 0.17411399, 0.06330007, 0.00000000, 0.00000000, 0.00000000, 0.00000000
1, 0.8700, 87, -0.37128699, -1.10624254, -0.09005588, -15.38498116, 9.21475792, -12.48017216, 0.00000000, 0.00000000, 0.00000000, 87.72464752, -14.67595863, 103.56721497, 1.00000000, 0.00000000, 0.00000000, 0.00000000, 0.11716995, 0.13978544, 0.05285569, 0.00000000, 0.00000000, 0.00000000, 0.00000000
1, 0.8800, 88, -0.32941124, -1.05716884, -0.08632464, -16.74993706, 17.39057541, -12.99704742, 0.00000000, 0.00000000, 0.00000000, 87.51326752, -14.53886890, 103.74120331, 1.00000000, 0.00000000, 0.00000000, 0.00000000, 0.07745405, 0.09028120, 0.04577347, 0.00000000, 0.00000000, 0.00000000, 0.00000000
1, 0.8900, 89, -0.29323250, -1.03806317, -0.09653858, -17.41498756, 27.16942406, -15.83097839, 0.00000000, 0.00000000, 0.00000000, 87.27103424, -14.36832714, 104.01403809, 1.00000000, 0.00000000, 0.00000000, 0.00000000, 0.04396966, 0.07065423, 0.05197796, 0.00000000, 0.00000000, 0.00000000, 0.00000000
1, 0.9000, 90, -0.22758299, -1.04969645, -0.08574809, -12.87367058, 35.18648529, -16.77199936, 0.00000000, 0.00000000, 0.00000000, 87.05500793, -14.18335247, 104.36808014, 1.00000000, 0.00000000, 0.00000000, 0.00000000, -0.01861447, 0.08169167, 0.03725419, 0.00000000, 0.00000000, 0.00000000, 0.00000000
1, 0.9100, 91, -0.24283442, -1.02240336, -0.08189803, -7.23113108, 42.11135101, -17.28439522, 0.00000000, 0.00000000, 0.00000000, 86.87947845, -13.98842621, 104.79218292, 1.00000000, 0.00000000, 0.00000000, 0.00000000, -0.00015227, 0.05375688, 0.03012895, 0.00000000, 0.00000000, 0.00000000, 0.00000000
1, 0.9200, 92, -0.20312890, -0.99734151, -0.12299053, -5.82703066, 52.62758636, -18.78752518, 0.00000000, 0.00000000, 0.00000000, 86.69197845, -13.76802063, 105.32360840, 1.00000000, 0.00000000, 0.00000000, 0.00000000, -0.03636363, 0.02798539, 0.06830932, 0.00000000, 0.00000000, 0.00000000, 0.00000000
1, 0.9300, 93, -0.12080938, -0.95747662, -0.08516121, -14.13295364, 71.92398071, -23.63811874, 0.00000000, 0.00000000, 0.00000000, 86.38011169, -13.48866177, 106.04766846, 1.00000000, 0.00000000, 0.00000000, 0.00000000, -0.11426713, -0.01269473, 0.02598235, 0.00000000, 0.00000000, 0.00000000, 0.00000000
1, 0.9400, 94, -0.06425603, -0.88568127, -0.05438709, -13.86417961, 77.46665192, -30.20824623, 0.00000000, 0.00000000, 0.00000000, 86.06314087, -13.13610172, 106.82147217, 1.00000000, 0.00000000, 0.00000000, 0.00000000, -0.16531722, -0.08543132, -0.01066281, 0.00000000, 0.00000000, 0.00000000, 0.00000000
1, 0.9500, 95, -0.17359346, -0.82421994, -0.02327210, -0.15493843, 74.03990173, -31.69387627, 0.00000000, 0.00000000, 0.00000000, 85.89669800, -12.76787949, 107.55644989, 1.00000000, 0.00000000, 0.00000000, 0.00000000, -0.04989590, -0.14804387, -0.04565872, 0.00000000, 0.00000000, 0.00000000, 0.00000000
1, 0.9600, 96, -0.15606394, -0.81820339, -0.05807743, 10.42019272, 71.71051025, -33.81068420, 0.00000000, 0.00000000, 0.00000000, 85.84676361, -12.37895203, 108.26428986, 1.00000000, 0.00000000, 0.00000000, 0.00000000, -0.06081716, -0.15544376, -0.01242277, 0.00000000, 0.00000000, 0.00000000, 0.00000000
1, 0.9700, 97, -0.12637712, -0.84859991, -0.04430061, 20.23276901, 61.56500626, -36.97274780, 0.00000000, 0.00000000, 0.00000000, 85.92124176, -11.96964836, 108.86504364, 1.00000000, 0.00000000, 0.00000000, 0.00000000, -0.08355871, -0.12660211, -0.02572655, 0.00000000, 0.00000000, 0.00000000, 0.00000000
1, 0.9800, 98, -0.08992946, -0.90560579, -0.01447470, 23.83963203, 60.32125473, -39.81392670, 0.00000000, 0.00000000, 0.00000000, 86.04026794, -11.53012562, 109.45111084, 1.00000000, 0.00000000, 0.00000000, 0.00000000, -0.11278134, -0.07123096, -0.05403235, 0.00000000, 0.00000000, 0.00000000, 0.00000000
1, 0.9900, 99, -0.15662853, -0.93905431, -0.03549473, 29.63356400, 58.95548248, -38.93849182, 0.00000000, 0.00000000, 0.00000000, 86.22406006, -11.10174847, 110.02417755, 1.00000000, 0.00000000, 0.00000000, 0.00000000, -0.03873242, -0.03945890, -0.03038855, 0.00000000, 0.00000000, 0.00000000, 0.00000000
1, 1.0000, 100, -0.10171257, -0.98751873, 0.00600764, 31.84695435, 57.94399261, -35.23268890, 0.00000000, 0.00000000, 0.00000000, 86.43555450, -10.71312046, 110.59007263, 1.00000000, 0.00000000, 0.00000000, 0.00000000, -0.08656680, 0.00738698, -0.06836471, 0.00000000, 0.00000000, 0.00000000, 0.00000000
1, 1.0100, 101, -0.03187940, -1.04591799, 0.01003257, 34.30848312, 46.84304047, -33.92375946, 0.00000000, 0.00000000, 0.00000000, 86.69541168, -10.34630966, 111.04499054, 1.00000000, 0.00000000, 0.00000000, 0.00000000, -0.15007031, 0.06435128, -0.06848177, 0.00000000, 0.00000000, 0.00000000, 0.00000000
1, 1.0200, 102, -0.07875284, -1.10070562, -0.03750465, 32.18682861, 37.50160217, -30.94556808, 0.00000000, 0.00000000, 0.00000000, 86.95424652, -10.01139927, 111.40840912, 1.00000000, 0.00000000, 0.00000000, 0.00000000, -0.09732530, 0.11781381, -0.01649325, 0.00000000, 0.00000000, 0.00000000, 0.00000000
1, 1.0300, 103, -0.03614762, -1.10093236, -0.00428587, 29.52147293, 26.54103088, -29.99221420, 0.00000000, 0.00000000, 0.00000000, 87.20606232, -9.69832325, 111.66194153, 1.00000000, 0.00000000, 0.00000000, 0.00000000, -0.13429075, 0.11681600, -0.04533385, 0.00000000, 0.00000000, 0.00000000, 0.00000000
1, 1.0400, 104, -0.07361243, -1.08986652, -0.01558044, 27.90544701, 19.42888260, -26.31146431, 0.00000000, 0.00000000, 0.00000000, 87.45446014, -9.42640114, 111.84631348, 1.00000000, 0.00000000, 0.00000000, 0.00000000, -0.09191303, 0.10470942, -0.02984583, 0.00000000, 0.00000000, 0.00000000, 0.00000000
1, 1.0500, 105, -0.08541538, -1.05156112, -0.00193906, 26.95643806, 11.04532433, -24.75376511, 0.00000000, 0.00000000, 0.00000000, 87.70764923, -9.17438889, 111.94754791, 1.00000000, 0.00000000, 0.00000000, 0.00000000, -0.07561506, 0.06546979, -0.03917414, 0.00000000, 0.00000000, 0.00000000, 0.00000000
1, 1.0600, 106, -0.09933834, -1.00268519, 0.00944337, 25.97124863, 3.62394857, -21.66185570, 0.00000000, 0.00000000, 0.00000000, 87.96289062, -8.95653629, 111.97591400, 1.00000000, 0.00000000, 0.00000000, 0.00000000, -0.05769764, 0.01577808, -0.04620399, 0.00000000, 0.00000000, 0.00000000, 0.00000000
1, 1.0700, 107, -0.12638533, -0.97461313, -0.01649934, 27.20144272, -0.38289979, -18.50430679, 0.00000000, 0.00000000, 0.00000000, 88.23661804, -8.76899910, 111.96615601, 1.00000000, 0.00000000, 0.00000000, 0.00000000, -0.02729453, -0.01298043, -0.01573236, 0.00000000, 0.00000000, 0.00000000, 0.00000000
1, 1.0800, 108, -0.12106583, -0.98232776, -0.00628943, 28.07037735, -4.65296841, -18.16280174, 0.00000000, 0.00000000, 0.00000000, 88.52519989, -8.58874321, 111.91390991, 1.00000000, 0.00000000, 0.00000000, 0.00000000, -0.02943387, -0.00590329, -0.02103253, 0.00000000, 0.00000000, 0.00000000, 0.00000000
1, 1.0900, 109, -0.11009892, -0.98310494, 0.02469657, 28.52476311, -7.97431898, -16.26511383, 0.00000000, 0.00000000, 0.00000000, 88.82292938, -8.42796135, 111.82948303, 1.00000000, 0.00000000, 0.00000000, 0.00000000, -0.03746918, -0.00569524, -0.04694984, 0.00000000, 0.00000000, 0.00000000, 0.00000000
1, 1.1000, 110, -0.11115672, -1.00002384, 0.02095117, 29.56144142, -12.80083275, -15.03976727, 0.00000000, 0.00000000, 0.00000000, 89.13772583, -8.27984715, 111.69741058, 1.00000000, 0.00000000, 0.00000000, 0.00000000, -0.03381284, 0.01073465, -0.03791439, 0.00000000, 0.00000000, 0.00000000, 0.00000000
1, 1.1100, 111, -0.11387906, -1.01503396, 0.02293881, 30.03480148, -17.57268524, -15.55679607, 0.00000000, 0.00000000, 0.00000000, 89.46368408, -8.12640953, 111.51796722, 1.00000000, 0.00000000, 0.00000000, 0.00000000, -0.02847055, 0.02528420, -0.03429992, 0.00000000, 0.00000000, 0.00000000, 0.00000000
1, 1.1200, 112, -0.10752601, -1.00694871, 0.00916687, 28.58373260, -21.81671715, -15.51907349, 0.00000000, 0.00000000, 0.00000000, 89.78192139, -7.96928453, 111.29679108, 1.00000000, 0.00000000, 0.00000000, 0.00000000, -0.03214272, 0.01676911, -0.01499677, 0.00000000, 0.00000000, 0.00000000, 0.00000000
1, 1.1300, 113, -0.11207572, -0.97078633, 0.02262865, 28.07376862, -23.61232567, -14.92152977, 0.00000000, 0.00000000, 0.00000000, 90.09542847, -7.82030535, 111.05824280, 1.00000000, 0.00000000, 0.00000000, 0.00000000, -0.02497598, -0.01977609, -0.02302880, 0.00000000, 0.00000000, 0.00000000, 0.00000000
1, 1.1400, 114, -0.08797982, -0.96327507, 0.00713954, 30.79189491, -26.67027664, -14.51837349, 0.00000000, 0.00000000, 0.00000000, 90.43955231, -7.67387056, 110.78974915, 1.00000000, 0.00000000, 0.00000000, 0.00000000, -0.04649556, -0.02762596, -0.00182654, 0.00000000, 0.00000000, 0.00000000, 0.00000000
1, 1.1500, 115, -0.05908056, -0.97713012, 0.02863928, 33.93195724, -31.82051849, -15.94746113, 0.00000000, 0.00000000, 0.00000000, 90.82103729, -7.51089287, 110.47052002, 1.00000000, 0.00000000, 0.00000000, 0.00000000, -0.07271381, -0.01407593, -0.01694730, 0.00000000, 0.00000000, 0.00000000, 0.00000000
1, 1.1600, 116, -0.01938915, -0.98671633, 0.03580825, 34.39026642, -41.51866913, -14.31748962, 0.00000000, 0.00000000, 0.00000000, 91.21871185, -7.36028862, 110.05442810, 1.00000000, 0.00000000, 0.00000000, 0.00000000, -0.10961454, -0.00475308, -0.01730907, 0.00000000, 0.00000000, 0.00000000, 0.00000000
1, 1.1700, 117, 0.02301249, -0.98464388, 0.03132680, 33.79299545, -50.96210480, -13.23156929, 0.00000000, 0.00000000, 0.00000000, 91.62146759, -7.20829964, 109.54487610, 1.00000000, 0.00000000, 0.00000000, 0.00000000, -0.14949204, -0.00699605, -0.00585354, 0.00000000, 0.00000000, 0.00000000, 0.00000000
1, 1.1800, 118, 0.03892440, -0.99238533, 0.03631702, 31.98645401, -59.11442566, -9.68324184, 0.00000000, 0.00000000, 0.00000000, 92.01503754, -7.09269285, 108.95248413, 1.00000000, 0.00000000, 0.00000000, 0.00000000, -0.16311100, 0.00065520, -0.00398901, 0.00000000, 0.00000000, 0.00000000, 0.00000000
1, 1.1900, 119, 0.05128116, -1.01328683, 0.05705496, 31.05734444, -68.92293549, -5.48271513, 0.00000000, 0.00000000, 0.00000000, 92.41050720, -7.01125288, 108.26064301, 1.00000000, 0.00000000, 0.00000000, 0.00000000, -0.17383003, 0.02160001, -0.01787217, 0.00000000, 0.00000000, 0.00000000, 0.00000000
1, 1.2000, 120, 0.03385644, -1.01861584, 0.10341181, 28.91759109, -80.09638977, -0.21601337, 0.00000000, 0.00000000, 0.00000000, 92.79774475, -6.97262239, 107.45460510, 1.00000000, 0.00000000, 0.00000000, 0.00000000, -0.15544423, 0.02710100, -0.05746025, 0.00000000, 0.00000000, 0.00000000, 0.00000000
1, 1.2100, 121, 0.00235080, -1.01561677, 0.09950863, 23.10268593, -86.20490265, 3.05548573, 0.00000000, 0.00000000, 0.00000000, 93.13411713, -6.95844078, 106.58571625, 1.00000000, 0.00000000, 0.00000000, 0.00000000, -0.12358034, 0.02436593, -0.04733000, 0.00000000, 0.00000000, 0.00000000, 0.00000000
1, 1.2200, 122, -0.02519513, -0.98872608, 0.08869296, 18.07848549, -86.07191467, 3.45103216, 0.00000000, 0.00000000, 0.00000000, 93.42111206, -6.94151783, 105.71812439, 1.00000000, 0.00000000, 0.00000000, 0.00000000, -0.09575917, -0.00226906, -0.03127475, 0.00000000, 0.00000000, 0.00000000, 0.00000000
1, 1.2300, 123, -0.06905318, -0.94654483, 0.08152437, 15.35553932, -86.03319550, 4.14978361, 0.00000000, 0.00000000, 0.00000000, 93.67945862, -6.92964840, 104.85052490, 1.00000000, 0.00000000, 0.00000000, 0.00000000, -0.05170604, -0.04419464, -0.01946596, 0.00000000, 0.00000000, 0.00000000, 0.00000000
1, 1.2400, 124, -0.08571784, -0.92201388, 0.08722952, 14.91695118, -84.98553467, 4.15000391, 0.00000000, 0.00000000, 0.00000000, 93.93194580, -6.91466475, 103.99355316, 1.00000000, 0.00000000, 0.00000000, 0.00000000, -0.03481200, -0.06846981, -0.02079809, 0.00000000, 0.00000000, 0.00000000, 0.00000000
1, 1.2500, 125, -0.09127212, -0.94036335, 0.09272161, 16.06235313, -84.32534790, 3.58379507, 0.00000000, 0.00000000, 0.00000000, 94.19469452, -6.89066887, 103.14371490, 1.00000000, 0.00000000, 0.00000000, 0.00000000, -0.02883920, -0.04986206, -0.02183243, 0.00000000, 0.00000000, 0.00000000, 0.00000000
1, 1.2600, 126, -0.07972694, -0.95680434, 0.10486811, 16.97403908, -85.11857605, 3.26579905, 0.00000000, 0.00000000, 0.00000000, 94.46705627, -6.85895491, 102.28630829, 1.00000000, 0.00000000, 0.00000000, 0.00000000, -0.03988966, -0.03313658, -0.02932343, 0.00000000, 0.00000000, 0.00000000, 0.00000000
1, 1.2700, 127, -0.10240249, -0.92853814, 0.09967231, 18.17658997, -87.45648193, 5.27091932, 0.00000000, 0.00000000, 0.00000000, 94.75431824, -6.84061098, 101.40406799, 1.00000000, 0.00000000, 0.00000000, 0.00000000, -0.01680977, -0.06106821, -0.01926319, 0.00000000, 0.00000000, 0.00000000, 0.00000000
1, 1.2800, 128, -0.11149871, -0.92130822, 0.10470899, 18.46282005, -92.47589111, 7.95560694, 0.00000000, 0.00000000, 0.00000000, 95.05027008, -6.84082603, 100.46923065, 1.00000000, 0.00000000, 0.00000000, 0.00000000, -0.00757067, -0.06789075, -0.01923509, 0.00000000, 0.00000000, 0.00000000, 0.00000000
1, 1.2900, 129, -0.11967199, -0.89551955, 0.11263967, 18.42741585, -95.22295380, 11.28349209, 0.00000000, 0.00000000, 0.00000000, 95.34976196, -6.86688566, 99.50378418, 1.00000000, 0.00000000, 0.00000000, 0.00000000, 0.00028004, -0.09318089, -0.02200367, 0.00000000, 0.00000000, 0.00000000, 0.00000000
1, 1.3000, 130, -0.13565736, -0.90955168, 0.09546235, 20.41584206, -91.15634918, 11.35959625, 0.00000000, 0.00000000, 0.00000000, 95.66470337, -6.89253092, 98.57886505, 1.00000000, 0.00000000, 0.00000000, 0.00000000, 0.01583257, -0.07859793, 0.00045464, 0.00000000, 0.00000000, 0.00000000, 0.00000000
1, 1.3100, 131, -0.13866986, -0.89303911, 0.14548522, 19.93710709, -87.34065247, 13.72032738, 0.00000000, 0.00000000, 0.00000000, 95.97116089, -6.94048023, 97.68958282, 1.00000000, 0.00000000, 0.00000000, 0.00000000, 0.01814216, -0.09448446, -0.04415406, 0.00000000, 0.00000000, 0.00000000, 0.00000000
1, 1.3200, 132, -0.10318290, -0.87047732, 0.14799652, 18.70042419, -81.33306122, 14.62874985, 0.00000000, 0.00000000, 0.00000000, 96.26062012, -6.99839878, 96.85897827, 1.00000000, 0.00000000, 0.00000000, 0.00000000, -0.01828119, -0.11640166, -0.04162741, 0.00000000, 0.00000000, 0.00000000, 0.00000000
1, 1.3300, 133, -0.09511478, -0.89472067, 0.13939792, 19.48351097, -76.75926208, 12.80067730, 0.00000000, 0.00000000, 0.00000000, 96.55118561, -7.03999329, 96.07605743, 1.00000000, 0.00000000, 0.00000000, 0.00000000, -0.02725155, -0.09149760, -0.02805157, 0.00000000, 0.00000000, 0.00000000, 0.00000000
1, 1.3400, 134, -0.10241500, -0.94477373, 0.15480784, 18.79419327, -75.52945709, 7.74885845, 0.00000000, 0.00000000, 0.00000000, 96.83282471, -7.02891541, 95.31111908, 1.00000000, 0.00000000, 0.00000000, 0.00000000, -0.02006054, -0.04085979, -0.03851346, 0.00000000, 0.00000000, 0.00000000, 0.00000000
1, 1.3500, 135, -0.07981589, -0.93970841, 0.15330555, 14.74908352, -73.58743286, 7.41878414, 0.00000000, 0.00000000, 0.00000000, 97.07136536, -7.01343250, 94.56610107, 1.00000000, 0.00000000, 0.00000000, 0.00000000, -0.04236998, -0.04542843, -0.03257945, 0.00000000, 0.00000000, 0.00000000, 0.00000000
1, 1.3600, 136, -0.07856290, -0.93156624, 0.13238740, 12.84147644, -73.01055145, 8.21889687, 0.00000000, 0.00000000, 0.00000000, 97.29009247, -7.00369740, 93.82592773, 1.00000000, 0.00000000, 0.00000000, 0.00000000, -0.04344315, -0.05311638, -0.00783379, 0.00000000, 0.00000000, 0.00000000, 0.00000000
1, 1.3700, 137, -0.06772640, -0.92581278, 0.18487291, 12.10238743, -75.91656494, 8.94614792, 0.00000000, 0.00000000, 0.00000000, 97.50777435, -6.99157619, 93.05567932, 1.00000000, 0.00000000, 0.00000000, 0.00000000, -0.05412884, -0.05841015, -0.05659423, 0.00000000, 0.00000000, 0.00000000, 0.00000000
1, 1.3800, 138, -0.04376336, -0.93351716, 0.20154856, 11.69327068, -76.71668243, 6.98181677, 0.00000000, 0.00000000, 0.00000000, 97.71887970, -6.95912313, 92.28029633, 1.00000000, 0.00000000, 0.00000000, 0.00000000, -0.07762738, -0.05027673, -0.06959087, 0.00000000, 0.00000000, 0.00000000, 0.00000000
1, 1.3900, 139, -0.04188486, -0.94068539, 0.19242525, 11.41535091, -79.49590302, 6.32248211, 0.00000000, 0.00000000, 0.00000000, 97.92990875, -6.91352463, 91.47825623, 1.00000000, 0.00000000, 0.00000000, 0.00000000, -0.07878025, -0.04270333, -0.05683205, 0.00000000, 0.00000000, 0.00000000, 0.00000000
1, 1.4000, 140, -0.06308826, -0.94700998, 0.18822727, 11.44329071, -84.10583496, 5.39283419, 0.00000000, 0.00000000, 0.00000000, 98.14576721, -6.84928656, 90.63184357, 1.00000000, 0.00000000, 0.00000000, 0.00000000, -0.05660128, -0.03597933, -0.04892496, 0.00000000, 0.00000000, 0.00000000, 0.00000000
1, 1.4100, 141, -0.07763531, -0.96733910, 0.18741590, 9.05680561, -87.30544281, 4.38687086, 0.00000000, 0.00000000, 0.00000000, 98.34026337, -6.76750326, 89.75534821, 1.00000000, 0.00000000, 0.00000000, 0.00000000, -0.04075778, -0.01530567, -0.04461767, 0.00000000, 0.00000000, 0.00000000, 0.00000000
1, 1.4200, 142, -0.10262642, -0.98878658, 0.21176191, 7.50235891, -90.12052917, 3.42775393, 0.00000000, 0.00000000, 0.00000000, 98.52368164, -6.66904688, 88.85224915, 1.00000000, 0.00000000, 0.00000000, 0.00000000, -0.01417435, 0.00642633, -0.06573096, 0.00000000, 0.00000000, 0.00000000, 0.00000000
1, 1.4300, 143, -0.14213270, -0.98737419, 0.21350540, 6.32511759, -91.82646942, 4.33200788, 0.00000000, 0.00000000, 0.00000000, 98.69309235, -6.57441044, 87.93170166, 1.00000000, 0.00000000, 0.00000000, 0.00000000, 0.02702645, 0.00526913, -0.06444386, 0.00000000, 0.00000000, 0.00000000, 0.00000000
1, 1.4400, 144, -0.17615849, -0.99269497, 0.21575241, 6.53749228, -91.98487854, 4.60752726, 0.00000000, 0.00000000, 0.00000000, 98.86328125, -6.47958851, 87.00961304, 1.00000000, 0.00000000, 0.00000000, 0.00000000, 0.06270342, 0.01084438, -0.06377681, 0.00000000, 0.00000000, 0.00000000, 0.00000000
1, 1.4500, 145, -0.20702900, -0.98734266, 0.19611447, 8.40986347, -90.43390656, 7.03527784, 0.00000000, 0.00000000, 0.00000000, 99.04949951, -6.40830708, 86.09960175, 1.00000000, 0.00000000, 0.00000000, 0.00000000, 0.09495787, 0.00581990, -0.04102647, 0.00000000, 0.00000000, 0.00000000, 0.00000000
1, 1.4600, 146, -0.24266797, -0.97956163, 0.16186595, 11.45481777, -87.97574615, 7.97194290, 0.00000000, 0.00000000, 0.00000000, 99.26253510, -6.34707451, 85.21289825, 1.00000000, 0.00000000, 0.00000000, 0.00000000, 0.13173556, -0.00153737, -0.00331773, 0.00000000, 0.00000000, 0.00000000, 0.00000000
1, 1.4700, 147, -0.27490294, -0.98464036, 0.18090388, 15.20213795, -86.69352722, 9.60361385, 0.00000000, 0.00000000, 0.00000000, 99.51202393, -6.30730963, 84.33570099, 1.00000000, 0.00000000, 0.00000000, 0.00000000, 0.16484162, 0.00410758, -0.01829880, 0.00000000, 0.00000000, 0.00000000, 0.00000000
1, 1.4800, 148, -0.27570167, -0.99586469, 0.19862469, 14.41831303, -85.54029846, 7.64939833, 0.00000000, 0.00000000, 0.00000000, 99.75033569, -6.23957014, 83.47440338, 1.00000000, 0.00000000, 0.00000000, 0.00000000, 0.16656440, 0.01594280, -0.03176930, 0.00000000, 0.00000000, 0.00000000, 0.00000000
1, 1.4900, 149, -0.27489850, -0.98218346, 0.19733292, 11.78599930, -85.50173950, 8.25954342, 0.00000000, 0.00000000, 0.00000000, 99.96133423, -6.17457390, 82.61281586, 1.00000000, 0.00000000, 0.00000000, 0.00000000, 0.16693145, 0.00278656, -0.02667624, 0.00000000, 0.00000000, 0.00000000, 0.00000000
1, 1.5000, 150, -0.26836354, -0.94562167, 0.19549935, 10.43741798, -84.37236786, 9.79429245, 0.00000000, 0.00000000, 0.00000000, 100.15704346, -6.12364244, 81.76004791, 1.00000000, 0.00000000, 0.00000000, 0.00000000, 0.16136615, -0.03327759, -0.02141067, 0.00000000, 0.00000000, 0.00000000, 0.00000000
1, 1.5100, 151, -0.25273493, -0.93261939, 0.19548689, 7.73686981, -82.77123260, 9.74122620, 0.00000000, 0.00000000, 0.00000000, 100.32328796, -6.07230473, 80.92347717, 1.00000000, 0.00000000, 0.00000000, 0.00000000, 0.14661165, -0.04581955, -0.01830222, 0.00000000, 0.00000000, 0.00000000, 0.00000000
1, 1.5200, 152, -0.24237406, -0.91332388, 0.20207638, 3.02472115, -81.14431763, 9.04811954, 0.00000000, 0.00000000, 0.00000000, 100.44180298, -6.02249813, 80.10341644, 1.00000000, 0.00000000, 0.00000000, 0.00000000, 0.13716683, -0.06478378, -0.02253113, 0.00000000, 0.00000000, 0.00000000, 0.00000000
1, 1.5300, 153, -0.24603137, -0.88969713, 0.20023449, 0.22991836, -79.45826721, 7.15979719, 0.00000000, 0.00000000, 0.00000000, 100.52741241, -5.94829321, 79.30472565, 1.00000000, 0.00000000, 0.00000000, 0.00000000, 0.14187881, -0.08822185, -0.01905369, 0.00000000, 0.00000000, 0.00000000, 0.00000000
1, 1.5400, 154, -0.24185082, -0.88710499, 0.21161698, 0.15003957, -77.64702606, 3.40231180, 0.00000000, 0.00000000, 0.00000000, 100.60839081, -5.83933115, 78.53110504, 1.00000000, 0.00000000, 0.00000000, 0.00000000, 0.13935634, -0.09072463, -0.02901469, 0.00000000, 0.00000000, 0.00000000, 0.00000000
1, 1.5500, 155, -0.23192745, -0.88749820, 0.23307586, 1.70575583, -75.26461029, 0.92647743, 0.00000000, 0.00000000, 0.00000000, 100.70043182, -5.70930767, 77.78594208, 1.00000000, 0.00000000, 0.00000000, 0.00000000, 0.13158257, -0.09027031, -0.04895914, 0.00000000, 0.00000000, 0.00000000, 0.00000000
1, 1.5600, 156, -0.20697029, -0.87624186, 0.26520672, 5.16560364, -71.61888123, -1.54026985, 0.00000000, 0.00000000, 0.00000000, 100.82126617, -5.56049442, 77.08181000, 1.00000000, 0.00000000, 0.00000000, 0.00000000, 0.10907218, -0.10141276, -0.07917838, 0.00000000, 0.00000000, 0.00000000, 0.00000000
1, 1.5700, 157, -0.16593976, -0.88753706, 0.29139420, 10.46453571, -69.17430878, -3.71120358, 0.00000000, 0.00000000, 0.00000000, 100.99709320, -5.39689779, 76.40497589, 1.00000000, 0.00000000, 0.00000000, 0.00000000, 0.07082291, -0.08988783, -0.10273571, 0.00000000, 0.00000000, 0.00000000, 0.00000000
1, 1.5800, 158, -0.13981071, -0.91518945, 0.31353849, 14.10568714, -69.10400391, -4.24491739, 0.00000000, 0.00000000, 0.00000000, 101.20041656, -5.22221565, 75.73213196, 1.00000000, 0.00000000, 0.00000000, 0.00000000, 0.04765755, -0.06184760, -0.12143254, 0.00000000, 0.00000000, 0.00000000, 0.00000000
1, 1.5900, 159, -0.11460891, -0.92689586, 0.31898871, 15.84445190, -69.34979248, -3.55163193, 0.00000000, 0.00000000, 0.00000000, 101.41935730, -5.05140066, 75.05634308, 1.00000000, 0.00000000, 0.00000000, 0.00000000, 0.02544870, -0.04969196, -0.12322111, 0.00000000, 0.00000000, 0.00000000, 0.00000000
1, 1.6000, 160, -0.10495713, -0.94748801, 0.32468238, 17.19721985, -70.07378387, -2.47427797, 0.00000000, 0.00000000, 0.00000000, 101.65058136, -4.88703251, 74.37213135, 1.00000000, 0.00000000, 0.00000000, 0.00000000, 0.01870565, -0.02856211, -0.12497049, 0.00000000, 0.00000000, 0.00000000, 0.00000000
1, 1.6100, 161, -0.08576908, -0.96141326, 0.33106276, 17.02069283, -71.89991760, -0.69123340, 0.00000000, 0.00000000, 0.00000000, 101.87985992, -4.73365593, 73.66715240, 1.00000000, 0.00000000, 0.00000000, 0.00000000, 0.00228305, -0.01406097, -0.12740068, 0.00000000, 0.00000000, 0.00000000, 0.00000000
1, 1.6200, 162, -0.06533924, -0.93692809, 0.33113524, 20.29695702, -77.62713623, 3.24345040, 0.00000000, 0.00000000, 0.00000000, 102.15111542, -4.60271263, 72.89761353, 1.00000000, 0.00000000, 0.00000000, 0.00000000, -0.01575083, -0.03783843, -0.12316287, 0.00000000, 0.00000000, 0.00000000, 0.00000000
1, 1.6300, 163, -0.05337801, -0.93556589, 0.32950756, 23.44847870, -84.48236847, 5.22395658, 0.00000000, 0.00000000, 0.00000000, 102.45198822, -4.47377396, 72.05842590, 1.00000000, 0.00000000, 0.00000000, 0.00000000, -0.02547494, -0.03830388, -0.11653553, 0.00000000, 0.00000000, 0.00000000, 0.00000000
1, 1.6400, 164, -0.05416399, -0.93561220, 0.36151734, 22.73085213, -91.97689056, 8.55671978, 0.00000000, 0.00000000, 0.00000000, 102.75002289, -4.35658884, 71.13941193, 1.00000000, 0.00000000, 0.00000000, 0.00000000, -0.02254179, -0.03728020, -0.14335643, 0.00000000, 0.00000000, 0.00000000, 0.00000000
1, 1.6500, 165, -0.09333523, -0.87654972, 0.37213024, 22.03605270, -95.74351501, 11.89815521, 0.00000000, 0.00000000, 0.00000000, 103.04282379, -4.25882959, 70.17688751, 1.00000000, 0.00000000, 0.00000000, 0.00000000, 0.01829236, -0.09531960, -0.14888956, 0.00000000, 0.00000000, 0.00000000, 0.00000000
1, 1.6600, 166, -0.09524225, -0.88715440, 0.36537591, 21.61253929, -97.91091156, 9.84788513, 0.00000000, 0.00000000, 0.00000000, 103.33052063, -4.13134336, 69.19850159, 1.00000000, 0.00000000, 0.00000000, 0.00000000, 0.02236727, -0.08374366, -0.13724452, 0.00000000, 0.00000000, 0.00000000, 0.00000000
1, 1.6700, 167, -0.08241733, -0.92290276, 0.37530321, 20.39869118, -96.76780701, 7.58382797, 0.00000000, 0.00000000, 0.00000000, 103.60839081, -3.97960973, 68.23636627, 1.00000000, 0.00000000, 0.00000000, 0.00000000, 0.01201415, -0.04704195, -0.14239047, 0.00000000, 0.00000000, 0.00000000, 0.00000000
1, 1.6800, 168, -0.09853973, -0.90741235, 0.38670155, 17.81377220, -95.98572540, 5.15730619, 0.00000000, 0.00000000, 0.00000000, 103.85090637, -3.80180788, 67.28955841, 1.00000000, 0.00000000, 0.00000000, 0.00000000, 0.03094999, -0.06164217, -0.14929318, 0.00000000, 0.00000000, 0.00000000, 0.00000000
1, 1.6900, 169, -0.09614972, -0.95743698, 0.36674768, 13.41974926, -93.02644348, 2.25362015, 0.00000000, 0.00000000, 0.00000000, 104.04386902, -3.59941268, 66.37940979, 1.00000000, 0.00000000, 0.00000000, 0.00000000, 0.03203786, -0.01096393, -0.12573382, 0.00000000, 0.00000000, 0.00000000, 0.00000000
1, 1.7000, 170, -0.11098417, -0.95286947, 0.38331220, 10.63855553, -88.74198151, 2.49566460, 0.00000000, 0.00000000, 0.00000000, 104.20330048, -3.40705872, 65.51110077, 1.00000000, 0.00000000, 0.00000000, 0.00000000, 0.05032285, -0.01502743, -0.13939737, 0.00000000, 0.00000000, 0.00000000, 0.00000000
1, 1.7100, 171, -0.11812808, -0.95509166, 0.39940366, 8.83283710, -83.93544769, 0.50953180, 0.00000000, 0.00000000, 0.00000000, 104.33869934, -3.20507002, 64.69503784, 1.00000000, 0.00000000, 0.00000000, 0.00000000, 0.06090529, -0.01237780, -0.15297519, 0.00000000, 0.00000000, 0.00000000, 0.00000000
1, 1.7200, 172, -0.11053900, -0.98873347, 0.38736638, 7.00817204, -73.95133972, -0.94285166, 0.00000000, 0.00000000, 0.00000000, 104.45395660, -3.01493955, 63.97900391, 1.00000000, 0.00000000, 0.00000000, 0.00000000, 0.05672133, 0.02160317, -0.13884777, 0.00000000, 0.00000000, 0.00000000, 0.00000000
1, 1.7300, 173, -0.10026744, -1.03217113, 0.37927699, 2.87031913, -64.23693085, -4.13751650, 0.00000000, 0.00000000, 0.00000000, 104.51382446, -2.81417418, 63.36662292, 1.00000000, 0.00000000, 0.00000000, 0.00000000, 0.04984015, 0.06523557, -0.12929398, 0.00000000, 0.00000000, 0.00000000, 0.00000000
1, 1.7400, 174, -0.09412327, -1.03677773, 0.36520889, -0.22398995, -54.33115768, -6.94021749, 0.00000000, 0.00000000, 0.00000000, 104.53569031, -2.61071610, 62.85750961, 1.00000000, 0.00000000, 0.00000000, 0.00000000, 0.04724278, 0.06982054, -0.11461958, 0.00000000, 0.00000000, 0.00000000, 0.00000000
1, 1.7500, 175, -0.07451845, -1.01492429, 0.37507194, -1.92885077, -45.70590210, -9.63502884, 0.00000000, 0.00000000, 0.00000000, 104.53472900, -2.40271187, 62.43886566, 1.00000000, 0.00000000, 0.00000000, 0.00000000, 0.03123536, 0.04784806, -0.12429521, 0.00000000, 0.00000000, 0.00000000, 0.00000000
1, 1.7600, 176, -0.02823145, -0.97855926, 0.33703822, -3.51594996, -36.00688171, -12.03863430, 0.00000000, 0.00000000, 0.00000000, 104.51239014, -2.19587207, 62.12023163, 1.00000000, 0.00000000, 0.00000000, 0.00000000, -0.01144565, 0.01127042, -0.08648472, 0.00000000, 0.00000000, 0.00000000, 0.00000000
1, 1.7700, 177, 0.00625979, -0.96097046, 0.29841858, -6.10994673, -29.14101791, -13.92084503, 0.00000000, 0.00000000, 0.00000000, 104.46434021, -1.98384595, 61.87227249, 1.00000000, 0.00000000, 0.00000000, 0.00000000, -0.04229284, -0.00661573, -0.04846361, 0.00000000, 0.00000000, 0.00000000, 0.00000000
1, 1.7800, 178, 0.02635278, -0.95203257, 0.29156661, -8.57063675, -25.82602119, -14.69160557, 0.00000000, 0.00000000, 0.00000000, 104.38565063, -1.77722239, 61.65863800, 1.00000000, 0.00000000, 0.00000000, 0.00000000, -0.05872759, -0.01597326, -0.04273847, 0.00000000, 0.00000000, 0.00000000, 0.00000000
1, 1.7900, 179, 0.02014574, -0.95145756, 0.34167334, -8.09918594, -31.75246811, -14.17227173, 0.00000000, 0.00000000, 0.00000000, 104.31258392, -1.56125569, 61.38601685, 1.00000000, 0.00000000, 0.00000000, 0.00000000, -0.04884046, -0.01699601, -0.09413937, 0.00000000, 0.00000000, 0.00000000, 0.00000000
1, 1.8000, 180, -0.02295440, -0.96939945, 0.28969505, -6.91093111, -43.00821304, -11.23966312, 0.00000000, 0.00000000, 0.00000000, 104.25327301, -1.34625387, 60.99682617, 1.00000000, 0.00000000, 0.00000000, 0.00000000, -0.00192101, 0.00056988, -0.04322159, 0.00000000, 0.00000000, 0.00000000, 0.00000000
1, 1.8100, 181, -0.03760540, -0.96641517, 0.34953785, -9.69104671, -52.97991943, -7.77086782, 0.00000000, 0.00000000, 0.00000000, 104.16712189, -1.14082313, 60.50221252, 1.00000000, 0.00000000, 0.00000000, 0.00000000, 0.01632713, -0.00278771, -0.10419767, 0.00000000, 0.00000000, 0.00000000, 0.00000000
1, 1.8200, 182, -0.04460477, -0.99806422, 0.35282996, -14.24694920, -54.57287979, -10.11376858, 0.00000000, 0.00000000, 0.00000000, 104.03988647, -0.91168630, 59.99679947, 1.00000000, 0.00000000, 0.00000000, 0.00000000, 0.02717473, 0.02828830, -0.10945960, 0.00000000, 0.00000000, 0.00000000, 0.00000000
1, 1.8300, 183, -0.06428830, -1.01396227, 0.35698977, -18.93223381, -53.15505219, -12.40209293, 0.00000000, 0.00000000, 0.00000000, 103.85724640, -0.66314435, 59.51078796, 1.00000000, 0.00000000, 0.00000000, 0.00000000, 0.05106834, 0.04345654, -0.11627892, 0.00000000, 0.00000000, 0.00000000, 0.00000000
1, 1.8400, 184, -0.08458116, -0.99919182, 0.32827950, -20.89256668, -50.08580017, -13.02438259, 0.00000000, 0.00000000, 0.00000000, 103.65261841, -0.41753331, 59.05524445, 1.00000000, 0.00000000, 0.00000000, 0.00000000, 0.07571498, 0.02780174, -0.09096047, 0.00000000, 0.00000000, 0.00000000, 0.00000000
1, 1.8500, 185, -0.10926393, -0.96356493, 0.31220427, -24.23119164, -45.55402756, -15.06498718, 0.00000000, 0.00000000, 0.00000000, 103.41236877, -0.16442001, 58.64760208, 1.00000000, 0.00000000, 0.00000000, 0.00000000, 0.10472818, -0.00877026, -0.07866471, 0.00000000, 0.00000000, 0.00000000, 0.00000000
1, 1.8600, 186, -0.10644603, -0.94807619, 0.30498049, -27.87380028, -39.95346451, -15.72434044, 0.00000000, 0.00000000, 0.00000000, 103.13389587, 0.08037259, 58.29484558, 1.00000000, 0.00000000, 0.00000000, 0.00000000, 0.10625476, -0.02534546, -0.07596705, 0.00000000, 0.00000000, 0.00000000, 0.00000000
1, 1.8700, 187, -0.08615667, -0.95258111, 0.33406875, -28.14131355, -34.73550797, -15.62455177, 0.00000000, 0.00000000, 0.00000000, 102.85942841, 0.30623478, 57.99082565, 1.00000000, 0.00000000, 0.00000000, 0.00000000, 0.09009062, -0.02192993, -0.10977019, 0.00000000, 0.00000000, 0.00000000, 0.00000000
1, 1.8800, 188, -0.02721798, -0.94732410, 0.35171542, -29.94668579, -28.98806572, -13.60978794, 0.00000000, 0.00000000, 0.00000000, 102.55818176, 0.50281101, 57.73798752, 1.00000000, 0.00000000, 0.00000000, 0.00000000, 0.03474806, -0.02828912, -0.13235472, 0.00000000, 0.00000000, 0.00000000, 0.00000000
1, 1.8900, 189, 0.03902132, -0.94619060, 0.31553650, -28.65675163, -21.07426643, -10.59241962, 0.00000000, 0.00000000, 0.00000000, 102.26975250, 0.65158701, 57.55494308, 1.00000000, 0.00000000, 0.00000000, 0.00000000, -0.02854506, -0.03051797, -0.10122788, 0.00000000, 0.00000000, 0.00000000, 0.00000000
1, 1.9000, 190, 0.08573704, -0.96129191, 0.30894163, -25.94034004, -18.25154495, -5.86761808, 0.00000000, 0.00000000, 0.00000000, 102.00828552, 0.74732608, 57.38883972, 1.00000000, 0.00000000, 0.00000000, 0.00000000, -0.07325817, -0.01640072, -0.09927633, 0.00000000, 0.00000000, 0.00000000, 0.00000000
1, 1.9100, 191, 0.11647259, -0.96944338, 0.30311224, -21.84652901, -20.32319832, -2.40731955, 0.00000000, 0.00000000, 0.00000000, 101.78716278, 0.81276017, 57.19493484, 1.00000000, 0.00000000, 0.00000000, 0.00000000, -0.10267194, -0.00909074, -0.09749298, 0.00000000, 0.00000000, 0.00000000, 0.00000000
1, 1.9200, 192, 0.11844549, -0.97710925, 0.31380659, -19.25456619, -24.45265198, 1.48458040, 0.00000000, 0.00000000, 0.00000000, 101.60201263, 0.85789049, 56.95126343, 1.00000000, 0.00000000, 0.00000000, 0.00000000, -0.10375323, -0.00211844, -0.11157808, 0.00000000, 0.00000000, 0.00000000, 0.00000000
1, 1.9300, 193, 0.07367071, -0.95309550, 0.30785039, -25.86551094, -34.86338806, 8.86240196, 0.00000000, 0.00000000, 0.00000000, 101.33801270, 0.84033656, 56.59194183, 1.00000000, 0.00000000, 0.00000000, 0.00000000, -0.05883079, -0.02693450, -0.10955920, 0.00000000, 0.00000000, 0.00000000, 0.00000000
1, 1.9400, 194, 0.03849290, -0.90892166, 0.29323059, -27.51979446, -41.44998550, 11.11488628, 0.00000000, 0.00000000, 0.00000000, 101.05664062, 0.81180727, 56.16371918, 1.00000000, 0.00000000, 0.00000000, 0.00000000, -0.02412201, -0.07205017, -0.09961820, 0.00000000, 0.00000000, 0.00000000, 0.00000000
1, 1.9500, 195, 0.01172636, -0.89663714, 0.27488354, -32.10043716, -43.83177567, 11.07287407, 0.00000000, 0.00000000, 0.00000000, 100.72935486, 0.78593028, 55.71232605, 1.00000000, 0.00000000, 0.00000000, 0.00000000, 0.00214566, -0.08537136, -0.08656433, 0.00000000, 0.00000000, 0.00000000, 0.00000000
1, 1.9600, 196, 0.00395519, -0.91454041, 0.25335532, -37.77754974, -42.52416611, 8.84788990, 0.00000000, 0.00000000, 0.00000000, 100.34567261, 0.77675998, 55.27802277, 1.00000000, 0.00000000, 0.00000000, 0.00000000, 0.00964029, -0.06864093, -0.07123962, 0.00000000, 0.00000000, 0.00000000, 0.00000000
1, 1.9700, 197, -0.03781315, -0.95226723, 0.26538426, -44.22879028, -39.70204926, 6.42274284, 0.00000000, 0.00000000, 0.00000000, 99.90390015, 0.77917111, 54.87559509, 1.00000000, 0.00000000, 0.00000000, 0.00000000, 0.05142483, -0.03222759, -0.09051335, 0.00000000, 0.00000000, 0.00000000, 0.00000000
1, 1.9800, 198, -0.11506864, -0.97293800, 0.27625489, -48.06188583, -38.98678589, 7.31805086, 0.00000000, 0.00000000, 0.00000000, 99.41788483, 0.77247542, 54.47896194, 1.00000000, 0.00000000, 0.00000000, 0.00000000, 0.12863176, -0.01296064, -0.10947856, 0.00000000, 0.00000000, 0.00000000, 0.00000000
1, 1.9900, 199, -0.16305065, -0.98775578, 0.28860950, -48.62378693, -32.94181061, 7.04621124, 0.00000000, 0.00000000, 0.00000000, 98.92716217, 0.75550926, 54.14247894, 1.00000000, 0.00000000, 0.00000000, 0.00000000, 0.17633925, 0.00046545, -0.13025703, 0.00000000, 0.00000000, 0.00000000, 0.00000000
1, 2.0000, 200, -0.17502964, -0.98515892, 0.28455526, -48.28252792, -24.44571686, 5.04229975, 0.00000000, 0.00000000, 0.00000000, 98.44108582, 0.74258900, 53.89318085, 1.00000000, 0.00000000, 0.00000000, 0.00000000, 0.18807615, -0.00345552, -0.13466915, 0.00000000, 0.00000000, 0.00000000, 0.00000000
1, 2.0100, 201, -0.14250749, -0.97387856, 0.26597148, -44.68839645, -19.18808365, 3.92284799, 0.00000000, 0.00000000, 0.00000000, 97.99169159, 0.73120880, 53.69764709, 1.00000000, 0.00000000, 0.00000000, 0.00000000, 0.15534212, -0.01592109, -0.12410092, 0.00000000, 0.00000000, 0.00000000, 0.00000000
1, 2.0200, 202, -0.06599562, -0.94316578, 0.25434321, -39.28603745, -12.82512093, 3.40676570, 0.00000000, 0.00000000, 0.00000000, 97.60958862, 0.70893723, 53.56529999, 1.00000000, 0.00000000, 0.00000000, 0.00000000, 0.07856929, -0.04763322, -0.11959867, 0.00000000, 0.00000000, 0.00000000, 0.00000000
1, 2.0300, 203, -0.03816890, -0.92738241, 0.19046319, -28.97679901, -6.77385902, 3.54441547, 0.00000000, 0.00000000, 0.00000000, 97.31895447, 0.68258113, 53.49353027, 1.00000000, 0.00000000, 0.00000000, 0.00000000, 0.05027177, -0.06417376, -0.06135881, 0.00000000, 0.00000000, 0.00000000, 0.00000000
1, 2.0400, 204, -0.08098605, -0.94738436, 0.13801765, -18.13902283, -4.71259260, 1.65115213, 0.00000000, 0.00000000, 0.00000000, 97.13699341, 0.67213356, 53.44468689, 1.00000000, 0.00000000, 0.00000000, 0.00000000, 0.09271855, -0.04466446, -0.01271472, 0.00000000, 0.00000000, 0.00000000, 0.00000000
1, 2.0500, 205, -0.08980394, -0.96564579, 0.12034592, -11.48286819, 2.03230309, -5.07047415, 0.00000000, 0.00000000, 0.00000000, 97.02249908, 0.71995527, 53.47109985, 1.00000000, 0.00000000, 0.00000000, 0.00000000, 0.10196798, -0.02669621, 0.00257318, 0.00000000, 0.00000000, 0.00000000, 0.00000000
1, 2.0600, 206, -0.00771036, -0.99377716, 0.10879869, -5.74902916, 9.22490788, -13.07047176, 0.00000000, 0.00000000, 0.00000000, 96.96647644, 0.83846998, 53.57857132, 1.00000000, 0.00000000, 0.00000000, 0.00000000, 0.02146620, 0.00128837, 0.01275925, 0.00000000, 0.00000000, 0.00000000, 0.00000000
1, 2.0700, 207, 0.11671162, -1.07133007, 0.09887451, 0.63355196, 13.90459728, -19.95308876, 0.00000000, 0.00000000, 0.00000000, 96.97147369, 1.03328967, 53.74005508, 1.00000000, 0.00000000, 0.00000000, 0.00000000, -0.10010676, 0.07884832, 0.02238268, 0.00000000, 0.00000000, 0.00000000, 0.00000000
1, 2.0800, 208, 0.22822583, -1.18077207, 0.06922583, 6.98725128, 16.80699730, -22.91899872, 0.00000000, 0.00000000, 0.00000000, 97.04520416, 1.24027860, 53.93485260, 1.00000000, 0.00000000, 0.00000000, 0.00000000, -0.20794716, 0.18845765, 0.05283767, 0.00000000, 0.00000000, 0.00000000, 0.00000000
1, 2.0900, 209, 0.27559143, -1.27844822, 0.01555642, 11.71952534, 14.31701279, -21.30885315, 0.00000000, 0.00000000, 0.00000000, 97.16631317, 1.43403900, 54.10332489, 1.00000000, 0.00000000, 0.00000000, 0.00000000, -0.25179726, 0.28643927, 0.10834260, 0.00000000, 0.00000000, 0.00000000, 0.00000000
1, 2.1000, 210, 0.22408462, -1.39342546, -0.04141929, 13.52645302, 7.83172798, -16.98014450, 0.00000000, 0.00000000, 0.00000000, 97.30419159, 1.59263504, 54.20243073, 1.00000000, 0.00000000, 0.00000000, 0.00000000, -0.19728473, 0.40178192, 0.16760892, 0.00000000, 0.00000000, 0.00000000, 0.00000000
1, 2.1100, 211, 0.12202977, -1.50513983, -0.04002337, 12.71464252, 3.29603672, -13.55884743, 0.00000000, 0.00000000, 0.00000000, 97.43278503, 1.72288001, 54.25252914, 1.00000000, 0.00000000, 0.00000000, 0.00000000, -0.09275635, 0.51386458, 0.16853756, 0.00000000, 0.00000000, 0.00000000, 0.00000000
1, 2.1200, 212, 0.04710056, -1.54022670, -0.01401235, 8.36153030, 5.58859301, -10.48618317, 0.00000000, 0.00000000, 0.00000000, 97.51501465, 1.81964004, 54.32170486, 1.00000000, 0.00000000, 0.00000000, 0.00000000, -0.01592368, 0.54924047, 0.14429554, 0.00000000, 0.00000000, 0.00000000, 0.00000000
1, 2.1300, 213, 0.11661875, -1.52057672, 0.00809093, -0.15154263, 12.86342716, -7.14637375, 0.00000000, 0.00000000, 0.00000000, 97.51792908, 1.87362981, 54.45866394, 1.00000000, 0.00000000, 0.00000000, 0.00000000, -0.08423769, 0.52972162, 0.12289540, 0.00000000, 0.00000000, 0.00000000, 0.00000000
1, 2.1400, 214, 0.18504938, -1.46771443, -0.04304072, -10.58876133, 21.65755272, 0.83717734, 0.00000000, 0.00000000, 0.00000000, 97.41901398, 1.83717000, 54.67245102, 1.00000000, 0.00000000, 0.00000000, 0.00000000, -0.15252185, 0.47670150, 0.17279044, 0.00000000, 0.00000000, 0.00000000, 0.00000000
1, 2.1500, 215, 0.23290987, -1.24230778, 0.05318164, -5.72577953, 24.23980141, 7.16029215, 0.00000000, 0.00000000, 0.00000000, 97.36898804, 1.73495078, 54.90373611, 1.00000000, 0.00000000, 0.00000000, 0.00000000, -0.20190749, 0.25109076, 0.07537764, 0.00000000, 0.00000000, 0.00000000, 0.00000000
1, 2.1600, 216, 0.34720230, -1.14827454, -0.01041748, 0.83746791, 23.31163597, 11.98628139, 0.00000000, 0.00000000, 0.00000000, 97.38359070, 1.58620894, 55.11966705, 1.00000000, 0.00000000, 0.00000000, 0.00000000, -0.31862614, 0.15692438, 0.13850969, 0.00000000, 0.00000000, 0.00000000, 0.00000000
1, 2.1700, 217, 0.26742986, -1.00500727, -0.06999514, -5.68774319, 11.10761929, 6.86501265, 0.00000000, 0.00000000, 0.00000000, 97.28066254, 1.55020714, 55.21937561, 1.00000000, 0.00000000, 0.00000000, 0.00000000, -0.24051379, 0.01357840, 0.19783777, 0.00000000, 0.00000000, 0.00000000, 0.00000000
1, 2.1800, 218, 0.16597368, -0.94274420, -0.01356035, -7.12269068, -6.72874498, 6.44480801, 0.00000000, 0.00000000, 0.00000000, 97.20746613, 1.49472964, 55.14448166, 1.00000000, 0.00000000, 0.00000000, 0.00000000, -0.13952975, -0.04897258, 0.13925147, 0.00000000, 0.00000000, 0.00000000, 0.00000000
1, 2.1900, 219, 0.03469444, -0.86935514, 0.09319624, -12.80688190, -28.26717758, 8.01037121, 0.00000000, 0.00000000, 0.00000000, 97.07192993, 1.45037353, 54.85394669, 1.00000000, 0.00000000, 0.00000000, 0.00000000, -0.00909749, -0.12259494, 0.03081674, 0.00000000, 0.00000000, 0.00000000, 0.00000000
1, 2.2000, 220, -0.02346626, -0.96553582, 0.20442772, -14.28734303, -39.63173294, 8.80446529, 0.00000000, 0.00000000, 0.00000000, 96.91900635, 1.41123295, 54.44971466, 1.00000000, 0.00000000, 0.00000000, 0.00000000, 0.04828486, -0.02675633, -0.08301920, 0.00000000, 0.00000000, 0.00000000, 0.00000000
1, 2.2100, 221, -0.01996567, -1.08794427, 0.29985628, -14.37320995, -40.08160782, 7.50527525, 0.00000000, 0.00000000, 0.00000000, 96.76531219, 1.38443673, 54.04269791, 1.00000000, 0.00000000, 0.00000000, 0.00000000, 0.04438776, 0.09530981, -0.18119863, 0.00000000, 0.00000000, 0.00000000, 0.00000000
1, 2.2200, 222, -0.06769450, -1.27685475, 0.31629449, -12.45208549, -38.08929062, 6.22781181, 0.00000000, 0.00000000, 0.00000000, 96.63543701, 1.36280096, 53.65698242, 1.00000000, 0.00000000, 0.00000000, 0.00000000, 0.09160784, 0.28393751, -0.19991979, 0.00000000, 0.00000000, 0.00000000, 0.00000000
1, 2.2300, 223, -0.19724841, -1.50176239, 0.34316647, -16.01065254, -34.08320236, 3.92121243, 0.00000000, 0.00000000, 0.00000000, 96.46718597, 1.36276519, 53.31379318, 1.00000000, 0.00000000, 0.00000000, 0.00000000, 0.22093669, 0.50854379, -0.22934598, 0.00000000, 0.00000000, 0.00000000, 0.00000000
1, 2.2400, 224, -0.30153996, -1.59368443, 0.47185579, -18.02429199, -35.00207138, 9.81474209, 0.00000000, 0.00000000, 0.00000000, 96.27854156, 1.30410194, 52.95496368, 1.00000000, 0.00000000, 0.00000000, 0.00000000, 0.32477432, 0.60008681, -0.36129862, 0.00000000, 0.00000000, 0.00000000, 0.00000000
1, 2.2500, 225, -0.36678421, -1.61581993, 0.45823541, -18.09898758, -21.43612671, 13.45792198, 0.00000000, 0.00000000, 0.00000000, 96.09252930, 1.19346225, 52.72731400, 1.00000000, 0.00000000, 0.00000000, 0.00000000, 0.38844109, 0.62183237, -0.35091135, 0.00000000, 0.00000000, 0.00000000, 0.00000000
1, 2.2600, 226, -0.39474186, -1.52145588, 0.37839705, -18.34528732, 6.03067255, 19.68196678, 0.00000000, 0.00000000, 0.00000000, 95.90975952, 0.99148077, 52.76673508, 1.00000000, 0.00000000, 0.00000000, 0.00000000, 0.41345727, 0.52706838, -0.27427506, 0.00000000, 0.00000000, 0.00000000, 0.00000000
1, 2.2700, 227, -0.36761773, -1.36249661, 0.23875074, -15.03226662, 37.19190598, 19.58880997, 0.00000000, 0.00000000, 0.00000000, 95.76522064, 0.74950004, 53.11662674, 1.00000000, 0.00000000, 0.00000000, 0.00000000, 0.38234195, 0.36774942, -0.13746276, 0.00000000, 0.00000000, 0.00000000, 0.00000000
1, 2.2800, 228, -0.32319635, -1.28224921, 0.09958618, -8.07295609, 67.52746582, 11.67166328, 0.00000000, 0.00000000, 0.00000000, 95.69194794, 0.56606990, 53.77693558, 1.00000000, 0.00000000, 0.00000000, 0.00000000, 0.33422101, 0.28727764, -0.00004157, 0.00000000, 0.00000000, 0.00000000, 0.00000000
1, 2.2900, 229, -0.21539864, -1.29549003, 0.04075461, -1.01096332, 87.04756165, 0.42340720, 0.00000000, 0.00000000, 0.00000000, 95.68959808, 0.47557968, 54.64273834, 1.00000000, 0.00000000, 0.00000000, 0.00000000, 0.22416745, 0.30045152, 0.05834771, 0.00000000, 0.00000000, 0.00000000, 0.00000000
1, 2.3000, 230, -0.09676722, -1.30971992, -0.00660517, 2.43448257, 80.56479645, -5.57490778, 0.00000000, 0.00000000, 0.00000000, 95.72042847, 0.45102093, 55.44996262, 1.00000000, 0.00000000, 0.00000000, 0.00000000, 0.10474259, 0.31470522, 0.10601309, 0.00000000, 0.00000000, 0.00000000, 0.00000000
1, 2.3100, 231, 0.06668738, -1.33669257, -0.02416188, 13.17451096, 63.62530518, -5.27609825, 0.00000000, 0.00000000, 0.00000000, 95.85713959, 0.43949646, 56.08831024, 1.00000000, 0.00000000, 0.00000000, 0.00000000, -0.05893975, 0.34183359, 0.12513176, 0.00000000, 0.00000000, 0.00000000, 0.00000000
1, 2.3200, 232, 0.23675869, -1.40125883, -0.06657787, 23.19591141, 44.95932388, -0.17658004, 0.00000000, 0.00000000, 0.00000000, 96.08710480, 0.40016538, 56.53562546, 1.00000000, 0.00000000, 0.00000000, 0.00000000, -0.22944438, 0.40676379, 0.17110108, 0.00000000, 0.00000000, 0.00000000, 0.00000000
1, 2.3300, 233, 0.34450194, -1.45516193, -0.15583727, 27.53542328, 27.92354393, 9.03650856, 0.00000000, 0.00000000, 0.00000000, 96.36411285, 0.28013456, 56.80340576, 1.00000000, 0.00000000, 0.00000000, 0.00000000, -0.33873051, 0.46114057, 0.26486021, 0.00000000, 0.00000000, 0.00000000, 0.00000000
1, 2.3400, 234, 0.35790801, -1.43082952, -0.20546424, 21.01027298, 11.17142487, 19.94334030, 0.00000000, 0.00000000, 0.00000000, 96.57454681, 0.06943405, 56.89188385, 1.00000000, 0.00000000, 0.00000000, 0.00000000, -0.35520685, 0.43726742, 0.31871146, 0.00000000, 0.00000000, 0.00000000, 0.00000000
1, 2.3500, 235, 0.28977668, -1.31019223, -0.14227408, 16.79486084, -8.40371132, 28.23375130, 0.00000000, 0.00000000, 0.00000000, 96.74270630, -0.20120075, 56.77566528, 1.00000000, 0.00000000, 0.00000000, 0.00000000, -0.29146847, 0.31698200, 0.25858414, 0.00000000, 0.00000000, 0.00000000, 0.00000000
1, 2.3600, 236, 0.22754955, -1.19679177, -0.00377622, 19.00272942, -21.84712601, 33.82295990, 0.00000000, 0.00000000, 0.00000000, 96.93434143, -0.51100916, 56.51846695, 1.00000000, 0.00000000, 0.00000000, 0.00000000, -0.23438391, 0.20397799, 0.12323663, 0.00000000, 0.00000000, 0.00000000, 0.00000000
1, 2.3700, 237, 0.17477243, -1.17494321, 0.00825697, 20.36925697, -28.35019302, 36.73941803, 0.00000000, 0.00000000, 0.00000000, 97.13499451, -0.83273554, 56.19223404, 1.00000000, 0.00000000, 0.00000000, 0.00000000, -0.18719806, 0.18260795, 0.11467766, 0.00000000, 0.00000000, 0.00000000, 0.00000000
1, 2.3800, 238, 0.11882616, -1.17452919, 0.01321464, 21.12357903, -25.99237251, 38.12292480, 0.00000000, 0.00000000, 0.00000000, 97.35157013, -1.17816126, 55.88625336, 1.00000000, 0.00000000, 0.00000000, 0.00000000, -0.13708131, 0.18273892, 0.11333512, 0.00000000, 0.00000000, 0.00000000, 0.00000000
1, 2.3900, 239, 0.00561955, -1.13485837, 0.06289118, 20.35645676, -22.33833694, 37.70291138, 0.00000000, 0.00000000, 0.00000000, 97.56154633, -1.52301669, 55.61577988, 1.00000000, 0.00000000, 0.00000000, 0.00000000, -0.03004965, 0.14367247, 0.06730014, 0.00000000, 0.00000000, 0.00000000, 0.00000000
1, 2.4000, 240, 0.02186403, -1.21470356, 0.07439438, 19.75671768, -20.91672325, 38.16448593, 0.00000000, 0.00000000, 0.00000000, 97.76673889, -1.87335801, 55.35742569, 1.00000000, 0.00000000, 0.00000000, 0.00000000, -0.05214074, 0.22416027, 0.05940734, 0.00000000, 0.00000000, 0.00000000, 0.00000000
1, 2.4100, 241, -0.02505298, -1.18219149, 0.07070456, 15.85062027, -19.89811325, 39.67673874, 0.00000000, 0.00000000, 0.00000000, 97.93426514, -2.23923492, 55.10596085, 1.00000000, 0.00000000, 0.00000000, 0.00000000, -0.01163534, 0.19228305, 0.06615822, 0.00000000, 0.00000000, 0.00000000, 0.00000000
1, 2.4200, 242, -0.03031628, -1.18312812, 0.06808776, 14.77037239, -17.12704277, 38.88267136, 0.00000000, 0.00000000, 0.00000000, 98.08576965, -2.59899664, 54.88221741, 1.00000000, 0.00000000, 0.00000000, 0.00000000, -0.01267677, 0.19386064, 0.07154754, 0.00000000, 0.00000000, 0.00000000, 0.00000000
1, 2.4300, 243, -0.02120884, -1.17551589, 0.04448562, 10.37377357, -14.12484169, 38.98937607, 0.00000000, 0.00000000, 0.00000000, 98.19897461, -2.96494675, 54.68692398, 1.00000000, 0.00000000, 0.00000000, 0.00000000, -0.02811585, 0.18684660, 0.09727720, 0.00000000, 0.00000000, 0.00000000, 0.00000000
1, 2.4400, 244, -0.03152720, -1.14600241, 0.03291428, 6.69561815, -12.65545559, 39.50669479, 0.00000000, 0.00000000, 0.00000000, 98.27595520, -3.33780241, 54.50477982, 1.00000000, 0.00000000, 0.00000000, 0.00000000, -0.02425921, 0.15789209, 0.11034235, 0.00000000, 0.00000000, 0.00000000, 0.00000000
1, 2.4500, 245, -0.05466281, -1.10238981, 0.04416757, 4.24042702, -14.34831810, 40.39175034, 0.00000000, 0.00000000, 0.00000000, 98.33073425, -3.71675491, 54.30406570, 1.00000000, 0.00000000, 0.00000000, 0.00000000, -0.00769051, 0.11482227, 0.10012048, 0.00000000, 0.00000000, 0.00000000, 0.00000000
1, 2.4600, 246, -0.04083246, -1.08024991, 0.04326947, 2.73949480, -16.99574089, 39.76643753, 0.00000000, 0.00000000, 0.00000000, 98.37355804, -4.08551264, 54.07761002, 1.00000000, 0.00000000, 0.00000000, 0.00000000, -0.02802835, 0.09322262, 0.10175583, 0.00000000, 0.00000000, 0.00000000, 0.00000000
1, 2.4700, 247, -0.03845353, -1.07403839, 0.05212073, -0.36393732, -19.93122482, 38.71986389, 0.00000000, 0.00000000, 0.00000000, 98.38114166, -4.43595219, 53.82394409, 1.00000000, 0.00000000, 0.00000000, 0.00000000, -0.03664711, 0.08752060, 0.09327380, 0.00000000, 0.00000000, 0.00000000, 0.00000000
1, 2.4800, 248, -0.04343638, -1.06508625, 0.07928846, -6.04151917, -22.87440109, 37.61721420, 0.00000000, 0.00000000, 0.00000000, 98.34340668, -4.77484751, 53.54198456, 1.00000000, 0.00000000, 0.00000000, 0.00000000, -0.03761534, 0.07897423, 0.06566241, 0.00000000, 0.00000000, 0.00000000, 0.00000000
1, 2.4900, 249, -0.06914178, -1.03641343, 0.08811881, -11.57712364, -25.77080727, 36.88085938, 0.00000000, 0.00000000, 0.00000000, 98.25428009, -5.10257673, 53.23257828, 1.00000000, 0.00000000, 0.00000000, 0.00000000, -0.01768046, 0.05060443, 0.05554646, 0.00000000, 0.00000000, 0.00000000, 0.00000000
1, 2.5000, 250, -0.11432377, -1.01562166, 0.07896319, -15.92263889, -25.61270332, 35.51847839, 0.00000000, 0.00000000, 0.00000000, 98.12304688, -5.41765642, 52.92718124, 1.00000000, 0.00000000, 0.00000000, 0.00000000, 0.02196615, 0.03001300, 0.06260979, 0.00000000, 0.00000000, 0.00000000, 0.00000000
1, 2.5100, 251, -0.15102550, -0.97652417, 0.08662117, -19.26167870, -26.09114838, 33.40130615, 0.00000000, 0.00000000, 0.00000000, 97.96017456, -5.71188831, 52.62066269, 1.00000000, 0.00000000, 0.00000000, 0.00000000, 0.05339998, -0.00895873, 0.05226696, 0.00000000, 0.00000000, 0.00000000, 0.00000000
1, 2.5200, 252, -0.16571285, -0.95157593, 0.10976157, -21.08798409, -26.17907715, 31.83020210, 0.00000000, 0.00000000, 0.00000000, 97.77833557, -5.99673891, 52.31612015, 1.00000000, 0.00000000, 0.00000000, 0.00000000, 0.06310634, -0.03382264, 0.02610210, 0.00000000, 0.00000000, 0.00000000, 0.00000000
1, 2.5300, 253, -0.18244541, -0.94629437, 0.04481156, -25.20149040, -21.11261368, 28.16046143, 0.00000000, 0.00000000, 0.00000000, 97.55278778, -6.24763203, 52.06787872, 1.00000000, 0.00000000, 0.00000000, 0.00000000, 0.07519914, -0.03910947, 0.08738147, 0.00000000, 0.00000000, 0.00000000, 0.00000000
1, 2.5400, 254, -0.21197563, -0.93270552, 0.06524604, -36.48905563, -13.57911205, 24.46762085, 0.00000000, 0.00000000, 0.00000000, 97.20640564, -6.47281218, 51.90072250, 1.00000000, 0.00000000, 0.00000000, 0.00000000, 0.10069858, -0.05292863, 0.06179209, 0.00000000, 0.00000000, 0.00000000, 0.00000000
1, 2.5500, 255, -0.24983796, -0.93750560, 0.05799218, -49.37402725, -14.13612270, 22.83385086, 0.00000000, 0.00000000, 0.00000000, 96.73205566, -6.68228483, 51.73152924, 1.00000000, 0.00000000, 0.00000000, 0.00000000, 0.13479689, -0.04861322, 0.06170912, 0.00000000, 0.00000000, 0.00000000, 0.00000000
1, 2.5600, 256, -0.29733127, -0.94061691, 0.03155195, -66.05982971, -15.40038300, 20.39830017, 0.00000000, 0.00000000, 0.00000000, 96.09237671, -6.86774874, 51.55438614, 1.00000000, 0.00000000, 0.00000000, 0.00000000, 0.17892003, -0.04625431, 0.07823364, 0.00000000, 0.00000000, 0.00000000, 0.00000000
1, 2.5700, 257, -0.28814104, -0.97081649, 0.00727813, -74.24604034, -14.41321659, 18.62022781, 0.00000000, 0.00000000, 0.00000000, 95.36864471, -7.04956722, 51.39075089, 1.00000000, 0.00000000, 0.00000000, 0.00000000, 0.16668941, -0.01697966, 0.09016693, 0.00000000, 0.00000000, 0.00000000, 0.00000000
1, 2.5800, 258, -0.31282157, -0.90071702, 0.14548521, -77.53374481, -18.99835968, 20.74130630, 0.00000000, 0.00000000, 0.00000000, 94.61930084, -7.23969221, 51.18180466, 1.00000000, 0.00000000, 0.00000000, 0.00000000, 0.18807390, -0.08782731, -0.06061095, 0.00000000, 0.00000000, 0.00000000, 0.00000000
1, 2.5900, 259, -0.33753955, -0.82869482, 0.13669281, -76.07466888, -12.98493290, 19.76189423, 0.00000000, 0.00000000, 0.00000000, 93.87706757, -7.42699575, 51.03648758, 1.00000000, 0.00000000, 0.00000000, 0.00000000, 0.20945975, -0.16046572, -0.06497420, 0.00000000, 0.00000000, 0.00000000, 0.00000000
1, 2.6000, 260, -0.33890840, -0.74167788, 0.17695269, -65.39270020, -1.31715751, 16.60135841, 0.00000000, 0.00000000, 0.00000000, 93.22620392, -7.59181166, 51.01286697, 1.00000000, 0.00000000, 0.00000000, 0.00000000, 0.20783052, -0.24787900, -0.11707473, 0.00000000, 0.00000000, 0.00000000, 0.00000000
1, 2.6100, 261, -0.32751057, -0.65380293, 0.09602422, -51.09978867, 3.28256583, 13.75077915, 0.00000000, 0.00000000, 0.00000000, 92.71174622, -7.73081112, 51.03875351, 1.00000000, 0.00000000, 0.00000000, 0.00000000, 0.19382742, -0.33595529, -0.04601202, 0.00000000, 0.00000000, 0.00000000, 0.00000000
1, 2.6200, 262, -0.32064635, -0.61699831, -0.00937749, -37.56916428, 4.49012852, 6.45974922, 0.00000000, 0.00000000, 0.00000000, 92.32725525, -7.81753349, 51.08032227, 1.00000000, 0.00000000, 0.00000000, 0.00000000, 0.18523690, -0.37287289, 0.05199091, 0.00000000, 0.00000000, 0.00000000, 0.00000000
1, 2.6300, 263, -0.29404122, -0.56335789, -0.00439892, -30.38429832, 3.24352479, 1.70233703, 0.00000000, 0.00000000, 0.00000000, 92.01904297, -7.83578014, 51.11236572, 1.00000000, 0.00000000, 0.00000000, 0.00000000, 0.15775512, -0.42662537, 0.04123966, 0.00000000, 0.00000000, 0.00000000, 0.00000000
1, 2.6400, 264, -0.25412831, -0.54478073, -0.02995547, -28.93748665, 1.68882656, -4.24841452, 0.00000000, 0.00000000, 0.00000000, 91.72715759, -7.79385805, 51.13078308, 1.00000000, 0.00000000, 0.00000000, 0.00000000, 0.11820820, -0.44543165, 0.06162899, 0.00000000, 0.00000000, 0.00000000, 0.00000000
1, 2.6500, 265, -0.20767882, -0.54269350, -0.04922540, -24.23240471, 1.51895881, -7.98282862, 0.00000000, 0.00000000, 0.00000000, 91.48246002, -7.71448469, 51.14834595, 1.00000000, 0.00000000, 0.00000000, 0.00000000, 0.07287571, -0.44780624, 0.07637128, 0.00000000, 0.00000000, 0.00000000, 0.00000000
1, 2.6600, 266, -0.17044532, -0.55441147, -0.05946875, -20.24320793, 0.12459440, -11.67041779, 0.00000000, 0.00000000, 0.00000000, 91.27947235, -7.59784603, 51.15242004, 1.00000000, 0.00000000, 0.00000000, 0.00000000, 0.03741789, -0.43642381, 0.08287591, 0.00000000, 0.00000000, 0.00000000, 0.00000000
1, 2.6700, 267, -0.13880937, -0.57825339, -0.04633623, -17.86103630, -1.68133819, -15.32569027, 0.00000000, 0.00000000, 0.00000000, 91.09817505, -7.44890022, 51.13918304, 1.00000000, 0.00000000, 0.00000000, 0.00000000, 0.00818474, -0.41297254, 0.06651045, 0.00000000, 0.00000000, 0.00000000, 0.00000000
1, 2.6800, 268, -0.10912222, -0.61654919, -0.03280541, -17.28761673, -4.15905285, -16.25437737, 0.00000000, 0.00000000, 0.00000000, 90.93029785, -7.28564596, 51.10014725, 1.00000000, 0.00000000, 0.00000000, 0.00000000, -0.01877265, -0.37508872, 0.05000498, 0.00000000, 0.00000000, 0.00000000, 0.00000000
1, 2.6900, 269, -0.08479971, -0.65108246, -0.02766239, -18.41826630, -4.56545734, -17.40027428, 0.00000000, 0.00000000, 0.00000000, 90.75154114, -7.11097860, 51.05670547, 1.00000000, 0.00000000, 0.00000000, 0.00000000, -0.04013551, -0.34098011, 0.04186085, 0.00000000, 0.00000000, 0.00000000, 0.00000000
1, 2.7000, 270, -0.07299381, -0.67643416, -0.02621127, -19.53933144, -4.34067869, -16.35145187, 0.00000000, 0.00000000, 0.00000000, 90.56124115, -6.94696331, 51.01486969, 1.00000000, 0.00000000, 0.00000000, 0.00000000, -0.04898538, -0.31603730, 0.03716625, 0.00000000, 0.00000000, 0.00000000, 0.00000000
1, 2.7100, 271, -0.07273911, -0.68343604, -0.03071120, -18.05381966, -4.70817566, -13.10162544, 0.00000000, 0.00000000, 0.00000000, 90.38625336, -6.81555796, 50.96854019, 1.00000000, 0.00000000, 0.00000000, 0.00000000, -0.04675336, -0.30936784, 0.03851664, 0.00000000, 0.00000000, 0.00000000, 0.00000000
1, 2.7200, 272, -0.08786857, -0.67654830, -0.05068291, -16.20379639, -3.80352521, -11.06620312, 0.00000000, 0.00000000, 0.00000000, 90.22237396, -6.70633602, 50.93175125, 1.00000000, 0.00000000, 0.00000000, 0.00000000, -0.02959188, -0.31651658, 0.05561427, 0.00000000, 0.00000000, 0.00000000, 0.00000000
1, 2.7300, 273, -0.10284891, -0.65441960, -0.06351728, -14.23162079, -2.37686133, -10.23356247, 0.00000000, 0.00000000, 0.00000000, 90.08279419, -6.60393095, 50.90809631, 1.00000000, 0.00000000, 0.00000000, 0.00000000, -0.01282456, -0.33886462, 0.06583713, 0.00000000, 0.00000000, 0.00000000, 0.00000000
1, 2.7400, 274, -0.10813076, -0.62996912, -0.08134910, -11.95739365, 0.80656952, -11.22132015, 0.00000000, 0.00000000, 0.00000000, 89.96229553, -6.49171686, 50.91625214, 1.00000000, 0.00000000, 0.00000000, 0.00000000, -0.00568333, -0.36353269, 0.08145403, 0.00000000, 0.00000000, 0.00000000, 0.00000000
1, 2.7500, 275, -0.09126359, -0.61218542, -0.11739516, -10.62646389, 4.23182678, -13.38462353, 0.00000000, 0.00000000, 0.00000000, 89.85129547, -6.35779715, 50.95860672, 1.00000000, 0.00000000, 0.00000000, 0.00000000, -0.02038537, -0.38156027, 0.11553333, 0.00000000, 0.00000000, 0.00000000, 0.00000000
1, 2.7600, 276, -0.08498742, -0.60789186, -0.13645123, -10.75866890, 6.77134609, -16.24042511, 0.00000000, 0.00000000, 0.00000000, 89.73630524, -6.19514275, 51.02614975, 1.00000000, 0.00000000, 0.00000000, 0.00000000, -0.02401020, -0.38614237, 0.13264069, 0.00000000, 0.00000000, 0.00000000, 0.00000000
1, 2.7700, 277, -0.06664827, -0.59252286, -0.10863483, -11.66614628, 4.81385040, -18.26480103, 0.00000000, 0.00000000, 0.00000000, 89.60578918, -6.01233864, 51.07478333, 1.00000000, 0.00000000, 0.00000000, 0.00000000, -0.03932122, -0.40182817, 0.10269140, 0.00000000, 0.00000000, 0.00000000, 0.00000000
1, 2.7800, 278, -0.05691598, -0.59184724, -0.13453043, -11.67621422, 2.77659822, -20.02111053, 0.00000000, 0.00000000, 0.00000000, 89.48629761, -5.81192160, 51.10110474, 1.00000000, 0.00000000, 0.00000000, 0.00000000, -0.04566159, -0.40284377, 0.12638097, 0.00000000, 0.00000000, 0.00000000, 0.00000000
1, 2.7900, 279, -0.06399155, -0.59205538, -0.15895808, -11.66367149, -1.69504511, -21.10643005, 0.00000000, 0.00000000, 0.00000000, 89.37153625, -5.60103989, 51.08197021, 1.00000000, 0.00000000, 0.00000000, 0.00000000, -0.03497772, -0.40298277, 0.14880922, 0.00000000, 0.00000000, 0.00000000, 0.00000000
1, 2.8000, 280, -0.06240980, -0.57315606, -0.13158591, -11.66288757, -9.12663937, -20.00411415, 0.00000000, 0.00000000, 0.00000000, 89.26390839, -5.40211201, 50.98789597, 1.00000000, 0.00000000, 0.00000000, 0.00000000, -0.03300602, -0.42220688, 0.11944996, 0.00000000, 0.00000000, 0.00000000, 0.00000000
1, 2.8100, 281, -0.05143069, -0.57963771, -0.13441072, -7.66631985, -12.56840801, -20.23360062, 0.00000000, 0.00000000, 0.00000000, 89.19915009, -5.20148849, 50.85894012, 1.00000000, 0.00000000, 0.00000000, 0.00000000, -0.04055346, -0.41603008, 0.12086332, 0.00000000, 0.00000000, 0.00000000, 0.00000000
1, 2.8200, 282, -0.06035621, -0.60642666, -0.17334530, -5.44757032, -16.22333527, -21.44128990, 0.00000000, 0.00000000, 0.00000000, 89.14903259, -4.99068356, 50.69421768, 1.00000000, 0.00000000, 0.00000000, 0.00000000, -0.02800771, -0.38955691, 0.15894212, 0.00000000, 0.00000000, 0.00000000, 0.00000000
1, 2.8300, 283, -0.05968130, -0.62375891, -0.13334557, -11.17062187, -24.05207253, -21.13105392, 0.00000000, 0.00000000, 0.00000000, 89.05817413, -4.78313255, 50.44956207, 1.00000000, 0.00000000, 0.00000000, 0.00000000, -0.02506678, -0.37251917, 0.11764801, 0.00000000, 0.00000000, 0.00000000, 0.00000000
1, 2.8400, 284, -0.06497677, -0.65305173, -0.16079643, -12.18010235, -25.81570244, -23.71186638, 0.00000000, 0.00000000, 0.00000000, 88.95778656, -4.55052423, 50.18646622, 1.00000000, 0.00000000, 0.00000000, 0.00000000, -0.01592700, -0.34351593, 0.14330725, 0.00000000, 0.00000000, 0.00000000, 0.00000000
1, 2.8500, 285, -0.07607693, -0.68845826, -0.16610375, -12.63038731, -28.02241707, -27.14470482, 0.00000000, 0.00000000, 0.00000000, 88.85353851, -4.28446770, 49.90025330, 1.00000000, 0.00000000, 0.00000000, 0.00000000, -0.00041209, -0.30842525, 0.14684805, 0.00000000, 0.00000000, 0.00000000, 0.00000000
1, 2.8600, 286, -0.07720197, -0.70594871, -0.16782978, -14.35962868, -27.37250328, -31.14068413, 0.00000000, 0.00000000, 0.00000000, 88.73018646, -3.97890329, 49.61929321, 1.00000000, 0.00000000, 0.00000000, 0.00000000, 0.00575725, -0.29126707, 0.14653242, 0.00000000, 0.00000000, 0.00000000, 0.00000000
1, 2.8700, 287, -0.07971615, -0.73761964, -0.16005747, -14.05205917, -29.55097580, -34.77495575, 0.00000000, 0.00000000, 0.00000000, 88.59891510, -3.64053941, 49.31607437, 1.00000000, 0.00000000, 0.00000000, 0.00000000, 0.01397954, -0.25993928, 0.13657302, 0.00000000, 0.00000000, 0.00000000, 0.00000000
1, 2.8800, 288, -0.08592790, -0.77540678, -0.15923913, -14.09535789, -30.63478470, -38.00704575, 0.00000000, 0.00000000, 0.00000000, 88.47703552, -3.26840019, 48.99955750, 1.00000000, 0.00000000, 0.00000000, 0.00000000, 0.02644208, -0.22248930, 0.13352713, 0.00000000, 0.00000000, 0.00000000, 0.00000000
1, 2.8900, 289, -0.04797481, -0.78323418, -0.17243703, -15.67763138, -33.67608643, -40.49091721, 0.00000000, 0.00000000, 0.00000000, 88.33884430, -2.87304115, 48.65117645, 1.00000000, 0.00000000, 0.00000000, 0.00000000, -0.00476311, -0.21497725, 0.14435600, 0.00000000, 0.00000000, 0.00000000, 0.00000000
1, 2.9000, 290, -0.04380471, -0.79999411, -0.16287795, -16.69794655, -38.75299835, -41.57073593, 0.00000000, 0.00000000, 0.00000000, 88.19051361, -2.46925521, 48.25080109, 1.00000000, 0.00000000, 0.00000000, 0.00000000, -0.00190449, -0.19849077, 0.13231386, 0.00000000, 0.00000000, 0.00000000, 0.00000000
1, 2.9100, 291, -0.03079521, -0.82258123, -0.15026331, -18.31700325, -43.67757797, -41.74896622, 0.00000000, 0.00000000, 0.00000000, 88.02510834, -2.06640840, 47.80014038, 1.00000000, 0.00000000, 0.00000000, 0.00000000, -0.00788169, -0.17611302, 0.11695586, 0.00000000, 0.00000000, 0.00000000, 0.00000000
1, 2.9200, 292, -0.04485438, -0.82472569, -0.15014344, -19.96177483, -52.20312119, -38.74949265, 0.00000000, 0.00000000, 0.00000000, 87.83636475, -1.69890571, 47.26465607, 1.00000000, 0.00000000, 0.00000000, 0.00000000, 0.01285953, -0.17409462, 0.11366989, 0.00000000, 0.00000000, 0.00000000, 0.00000000
1, 2.9300, 293, -0.02088816, -0.81901908, -0.13087168, -18.17348862, -60.34299850, -36.92494202, 0.00000000, 0.00000000, 0.00000000, 87.67102051, -1.35362065, 46.64698792, 1.00000000, 0.00000000, 0.00000000, 0.00000000, -0.00495797, -0.17986171, 0.09130011, 0.00000000, 0.00000000, 0.00000000, 0.00000000
1, 2.9400, 294, -0.09449488, -0.83702725, -0.13450396, -15.60896015, -69.21849060, -33.98111725, 0.00000000, 0.00000000, 0.00000000, 87.52961731, -1.04317307, 45.94100571, 1.00000000, 0.00000000, 0.00000000, 0.00000000, 0.07428848, -0.16187455, 0.09226459, 0.00000000, 0.00000000, 0.00000000, 0.00000000
1, 2.9500, 295, -0.11685159, -0.82824260, -0.08325942, -7.22678375, -80.52108765, -30.06966209, 0.00000000, 0.00000000, 0.00000000, 87.47025299, -0.77802020, 45.12330627, 1.00000000, 0.00000000, 0.00000000, 0.00000000, 0.10161114, -0.17067672, 0.03937029, 0.00000000, 0.00000000, 0.00000000, 0.00000000
1, 2.9600, 296, -0.15936448, -0.84272093, -0.07374268, 4.56278610, -83.76122284, -27.06731606, 0.00000000, 0.00000000, 0.00000000, 87.52565002, -0.54434884, 44.27456665, 1.00000000, 0.00000000, 0.00000000, 0.00000000, 0.14836654, -0.15626042, 0.02999519, 0.00000000, 0.00000000, 0.00000000, 0.00000000
1, 2.9700, 297, -0.17702532, -0.87060714, -0.11520889, 12.62954712, -83.82794189, -24.78695297, 0.00000000, 0.00000000, 0.00000000, 87.65285492, -0.34165162, 43.42597961, 1.00000000, 0.00000000, 0.00000000, 0.00000000, 0.16983700, -0.12849317, 0.07343063, 0.00000000, 0.00000000, 0.00000000, 0.00000000
1, 2.9800, 298, -0.16420735, -0.92269397, -0.18468601, 11.69635201, -85.15769196, -22.14883423, 0.00000000, 0.00000000, 0.00000000, 87.77346039, -0.15424977, 42.56623840, 1.00000000, 0.00000000, 0.00000000, 0.00000000, 0.16034172, -0.07651442, 0.14510499, 0.00000000, 0.00000000, 0.00000000, 0.00000000
1, 2.9900, 299, -0.21032210, -0.98143876, -0.29258445, 9.24664593, -90.65546417, -20.29375648, 0.00000000, 0.00000000, 0.00000000, 87.86705780, 0.01404117, 41.65261841, 1.00000000, 0.00000000, 0.00000000, 0.00000000, 0.20942602, -0.01784344, 0.25472239, 0.00000000, 0.00000000, 0.00000000, 0.00000000
1, 3.0000, 300, -0.17724964, -1.02896869, -0.29976174, 15.71595001, -89.77975464, -22.37501907, 0.00000000, 0.00000000, 0.00000000, 88.02252197, 0.20533988, 40.74736023, 1.00000000, 0.00000000, 0.00000000, 0.00000000, 0.17954579, 0.02960724, 0.26412517, 0.00000000, 0.00000000, 0.00000000, 0.00000000
1, 3.0100, 301, -0.15065506, -1.06724644, -0.03749743, 14.31503773, -92.75843048, -22.37548637, 0.00000000, 0.00000000, 0.00000000, 88.16071320, 0.39824089, 39.81285095, 1.00000000, 0.00000000, 0.00000000, 0.00000000, 0.15637444, 0.06780267, 0.00466375, 0.00000000, 0.00000000, 0.00000000, 0.00000000
1, 3.0200, 302, -0.14116620, -1.12329388, -0.02447128, 9.30018902, -94.60298920, -18.69603157, 0.00000000, 0.00000000, 0.00000000, 88.24620056, 0.54905671, 38.86074066, 1.00000000, 0.00000000, 0.00000000, 0.00000000, 0.14986084, 0.12381932, -0.00674408, 0.00000000, 0.00000000, 0.00000000, 0.00000000
1, 3.0300, 303, -0.16754456, -1.21259868, -0.03954763, 13.49554157, -92.83824158, -16.01420403, 0.00000000, 0.00000000, 0.00000000, 88.37111664, 0.68168116, 37.92797852, 1.00000000, 0.00000000, 0.00000000, 0.00000000, 0.17859274, 0.21308920, 0.01025586, 0.00000000, 0.00000000, 0.00000000, 0.00000000
1, 3.0400, 304, -0.26623335, -1.31865275, -0.15391538, 18.92800522, -93.17253876, -13.31977081, 0.00000000, 0.00000000, 0.00000000, 88.54828644, 0.78975397, 36.99291611, 1.00000000, 0.00000000, 0.00000000, 0.00000000, 0.27940050, 0.31909218, 0.12737808, 0.00000000, 0.00000000, 0.00000000, 0.00000000
1, 3.0500, 305, -0.29203701, -1.34556818, -0.08349019, 11.46473312, -97.30661011, -2.93516207, 0.00000000, 0.00000000, 0.00000000, 88.64926147, 0.79558736, 36.01929855, 1.00000000, 0.00000000, 0.00000000, 0.00000000, 0.30609366, 0.34595394, 0.05954149, 0.00000000, 0.00000000, 0.00000000, 0.00000000
1, 3.0600, 306, -0.27628848, -1.31915236, -0.17179403, -1.09489417, -90.10626221, 9.99033928, 0.00000000, 0.00000000, 0.00000000, 88.62663269, 0.67440319, 35.12077713, 1.00000000, 0.00000000, 0.00000000, 0.00000000, 0.28897882, 0.31951410, 0.14809218, 0.00000000, 0.00000000, 0.00000000, 0.00000000
1, 3.0700, 307, -0.22231653, -1.24533474, -0.05202790, -21.79282570, -74.62904358, 20.57564926, 0.00000000, 0.00000000, 0.00000000, 88.40303040, 0.44231737, 34.37919235, 1.00000000, 0.00000000, 0.00000000, 0.00000000, 0.23178637, 0.24572031, 0.02598134, 0.00000000, 0.00000000, 0.00000000, 0.00000000
1, 3.0800, 308, -0.17486745, -1.12262869, 0.00083612, -36.48994446, -63.45043182, 28.74444580, 0.00000000, 0.00000000, 0.00000000, 88.03489685, 0.13537452, 33.75392914, 1.00000000, 0.00000000, 0.00000000, 0.00000000, 0.17925411, 0.12314944, -0.03271842, 0.00000000, 0.00000000, 0.00000000, 0.00000000
1, 3.0900, 309, -0.08912139, -1.09967828, 0.03664338, -42.30988312, -52.62683487, 25.82843590, 0.00000000, 0.00000000, 0.00000000, 87.61183929, -0.14258893, 33.23777771, 1.00000000, 0.00000000, 0.00000000, 0.00000000, 0.08837750, 0.10043380, -0.07541797, 0.00000000, 0.00000000, 0.00000000, 0.00000000
1, 3.1000, 310, -0.00547734, -1.09584188, 0.05558376, -41.53300476, -43.24391174, 19.55985260, 0.00000000, 0.00000000, 0.00000000, 87.19839478, -0.35758328, 32.81461716, 1.00000000, 0.00000000, 0.00000000, 0.00000000, 0.00053763, 0.09692752, -0.10184903, 0.00000000, 0.00000000, 0.00000000, 0.00000000
1, 3.1100, 311, 0.04206032, -1.16740215, 0.13266817, -42.46635056, -37.52779388, 10.10162735, 0.00000000, 0.00000000, 0.00000000, 86.77647400, -0.47811207, 32.44506454, 1.00000000, 0.00000000, 0.00000000, 0.00000000, -0.04977161, 0.16885996, -0.18604594, 0.00000000, 0.00000000, 0.00000000, 0.00000000
1, 3.1200, 312, 0.12830171, -1.25441504, 0.22118497, -49.36706161, -35.05782318, -0.68676478, 0.00000000, 0.00000000, 0.00000000, 86.29658508, -0.48701897, 32.09362030, 1.00000000, 0.00000000, 0.00000000, 0.00000000, -0.13690493, 0.25634342, -0.28261197, 0.00000000, 0.00000000, 0.00000000, 0.00000000
1, 3.1300, 313, 0.19954491, -1.37899494, 0.29564857, -59.14894485, -38.68060303, -5.49201202, 0.00000000, 0.00000000, 0.00000000, 85.70830536, -0.45921230, 31.70391464, 1.00000000, 0.00000000, 0.00000000, 0.00000000, -0.20774047, 0.38154304, -0.36645553, 0.00000000, 0.00000000, 0.00000000, 0.00000000
1, 3.1400, 314, 0.25358754, -1.40431190, 0.32284448, -62.25384521, -48.24488068, -1.27947354, 0.00000000, 0.00000000, 0.00000000, 85.08967590, -0.48523280, 31.22204208, 1.00000000, 0.00000000, 0.00000000, 0.00000000, -0.26178586, 0.40768629, -0.40446013, 0.00000000, 0.00000000, 0.00000000, 0.00000000
1, 3.1500, 315, 0.21688576, -1.16751635, 0.27505043, -55.43354034, -51.23333740, 2.17164373, 0.00000000, 0.00000000, 0.00000000, 84.53994751, -0.55320626, 30.71375275, 1.00000000, 0.00000000, 0.00000000, 0.00000000, -0.22610363, 0.17177689, -0.36676198, 0.00000000, 0.00000000, 0.00000000, 0.00000000
1, 3.1600, 316, 0.21924204, -0.83551830, 0.14095315, -40.22403717, -45.69486237, -1.55404592, 0.00000000, 0.00000000, 0.00000000, 84.14225769, -0.58288574, 30.25744438, 1.00000000, 0.00000000, 0.00000000, 0.00000000, -0.22931576, -0.15944596, -0.24065876, 0.00000000, 0.00000000, 0.00000000, 0.00000000
1, 3.1700, 317, 0.25354716, -0.66543031, -0.02675704, -22.28354454, -43.00878143, -8.96911430, 0.00000000, 0.00000000, 0.00000000, 83.92364502, -0.51817358, 29.82103348, 1.00000000, 0.00000000, 0.00000000, 0.00000000, -0.26323777, -0.32902944, -0.07790870, 0.00000000, 0.00000000, 0.00000000, 0.00000000
1, 3.1800, 318, 0.28120595, -0.62917131, -0.10642339, -7.18429899, -46.33435059, -15.98280144, 0.00000000, 0.00000000, 0.00000000, 83.85569000, -0.40865552, 29.34326363, 1.00000000, 0.00000000, 0.00000000, 0.00000000, -0.28913623, -0.36508286, -0.00032555, 0.00000000, 0.00000000, 0.00000000, 0.00000000
1, 3.1900, 319, 0.37145349, -0.67191142, -0.11498199, 0.57304746, -52.79859924, -23.25861549, 0.00000000, 0.00000000, 0.00000000, 83.86454010, -0.23391080, 28.79341316, 1.00000000, 0.00000000, 0.00000000, 0.00000000, -0.37676561, -0.32233378, 0.00798944, 0.00000000, 0.00000000, 0.00000000, 0.00000000
1, 3.2000, 320, 0.39515403, -0.86879319, -0.10099254, 3.01967597, -62.39651489, -27.75900459, 0.00000000, 0.00000000, 0.00000000, 83.89617920, -0.02445550, 28.14340210, 1.00000000, 0.00000000, 0.00000000, 0.00000000, -0.39698619, -0.12550642, -0.00560907, 0.00000000, 0.00000000, 0.00000000, 0.00000000
1, 3.2100, 321, 0.47247565, -1.03770483, -0.04994569, 6.64149618, -74.22512817, -28.74774933, 0.00000000, 0.00000000, 0.00000000, 83.96147156, 0.18289489, 27.37490082, 1.00000000, 0.00000000, 0.00000000, 0.00000000, -0.47059348, 0.04330397, -0.05570566, 0.00000000, 0.00000000, 0.00000000, 0.00000000
1, 3.2200, 322, 0.44029424, -1.14455354, -0.01455812, 8.76950550, -86.55390167, -25.43680954, 0.00000000, 0.00000000, 0.00000000, 84.04975891, 0.35934043, 26.48757935, 1.00000000, 0.00000000, 0.00000000, 0.00000000, -0.43518093, 0.15002139, -0.08974303, 0.00000000, 0.00000000, 0.00000000, 0.00000000
1, 3.2300, 323, 0.37291014, -1.18237233, 0.06616555, 11.14192486, -94.88495636, -19.91184044, 0.00000000, 0.00000000, 0.00000000, 84.15419769, 0.45988432, 25.52325821, 1.00000000, 0.00000000, 0.00000000, 0.00000000, -0.36545214, 0.18767333, -0.16872106, 0.00000000, 0.00000000, 0.00000000, 0.00000000
1, 3.2400, 324, 0.29259548, -1.15530562, 0.10258555, 13.92076778, -98.11821747, -13.01930618, 0.00000000, 0.00000000, 0.00000000, 84.28511810, 0.49054345, 24.53390121, 1.00000000, 0.00000000, 0.00000000, 0.00000000, -0.28413206, 0.16040231, -0.20306201, 0.00000000, 0.00000000, 0.00000000, 0.00000000
1, 3.2500, 325, 0.18071301, -1.10624540, 0.11970856, 17.68025208, -97.37559509, -6.24939489, 0.00000000, 0.00000000, 0.00000000, 84.45378113, 0.45714188, 23.55867004, 1.00000000, 0.00000000, 0.00000000, 0.00000000, -0.17245007, 0.11107340, -0.21750347, 0.00000000, 0.00000000, 0.00000000, 0.00000000
1, 3.2600, 326, 0.06712653, -1.07971442, 0.13894412, 20.78594208, -92.27709961, -2.13249731, 0.00000000, 0.00000000, 0.00000000, 84.65481567, 0.39074630, 22.63801765, 1.00000000, 0.00000000, 0.00000000, 0.00000000, -0.05985245, 0.08421628, -0.23343953, 0.00000000, 0.00000000, 0.00000000, 0.00000000
1, 3.2700, 327, -0.01205300, -1.06245112, 0.15042242, 21.79991913, -84.12668610, -0.47389567, 0.00000000, 0.00000000, 0.00000000, 84.88233185, 0.31648874, 21.79863548, 1.00000000, 0.00000000, 0.00000000, 0.00000000, 0.01807481, 0.06659934, -0.24120486, 0.00000000, 0.00000000, 0.00000000, 0.00000000
1, 3.2800, 328, -0.06356409, -1.01234782, 0.12807812, 22.01572800, -72.65354156, -0.46376991, 0.00000000, 0.00000000, 0.00000000, 85.09887695, 0.25762200, 21.07447433, 1.00000000, 0.00000000, 0.00000000, 0.00000000, 0.06840736, 0.01614003, -0.21494165, 0.00000000, 0.00000000, 0.00000000, 0.00000000
1, 3.2900, 329, -0.07956414, -0.94266272, 0.10149402, 23.41894150, -59.46239090, -2.79281044, 0.00000000, 0.00000000, 0.00000000, 85.33055878, 0.23579171, 20.47960281, 1.00000000, 0.00000000, 0.00000000, 0.00000000, 0.08374783, -0.05388263, -0.18443149, 0.00000000, 0.00000000, 0.00000000, 0.00000000
1, 3.3000, 330, -0.08170514, -0.92504835, 0.07307207, 25.06194496, -45.14818954, -6.75646544, 0.00000000, 0.00000000, 0.00000000, 85.57921600, 0.26728514, 20.02420616, 1.00000000, 0.00000000, 0.00000000, 0.00000000, 0.08606966, -0.07183689, -0.15180741, 0.00000000, 0.00000000, 0.00000000, 0.00000000
1, 3.3100, 331, -0.07338399, -0.96249896, 0.08203503, 26.44992065, -31.71264839, -11.67231274, 0.00000000, 0.00000000, 0.00000000, 85.84197998, 0.35992357, 19.69924355, 1.00000000, 0.00000000, 0.00000000, 0.00000000, 0.07900366, -0.03472507, -0.15626916, 0.00000000, 0.00000000, 0.00000000, 0.00000000
1, 3.3200, 332, -0.03549125, -1.01098502, 0.09939932, 27.50035477, -20.76329613, -13.41099358, 0.00000000, 0.00000000, 0.00000000, 86.13396454, 0.47613728, 19.48134422, 1.00000000, 0.00000000, 0.00000000, 0.00000000, 0.04304770, 0.01343055, -0.16886544, 0.00000000, 0.00000000, 0.00000000, 0.00000000
1, 3.3300, 333, 0.00426843, -1.03467035, 0.07278529, 27.36047173, -11.31598663, -12.05546379, 0.00000000, 0.00000000, 0.00000000, 86.40644836, 0.58904946, 19.36057091, 1.00000000, 0.00000000, 0.00000000, 0.00000000, 0.00530609, 0.03679572, -0.13722539, 0.00000000, 0.00000000, 0.00000000, 0.00000000
1, 3.3400, 334, 0.03965302, -1.01974940, 0.04163098, 25.78034210, -5.14249659, -8.11352825, 0.00000000, 0.00000000, 0.00000000, 86.66363525, 0.66691488, 19.30432129, 1.00000000, 0.00000000, 0.00000000, 0.00000000, -0.02846447, 0.02160525, -0.10147560, 0.00000000, 0.00000000, 0.00000000, 0.00000000
1, 3.3500, 335, 0.08023998, -0.98518991, 0.00903265, 23.19784546, -1.34109414, -3.57481885, 0.00000000, 0.00000000, 0.00000000, 86.89544678, 0.70184177, 19.28890419, 1.00000000, 0.00000000, 0.00000000, 0.00000000, -0.06816562, -0.01318751, -0.06466947, 0.00000000, 0.00000000, 0.00000000, 0.00000000
1, 3.3600, 336, 0.11494731, -0.95450872, -0.02294822, 19.97135162, -0.81189704, 0.39072165, 0.00000000, 0.00000000, 0.00000000, 87.09505463, 0.69751626, 19.28098679, 1.00000000, 0.00000000, 0.00000000, 0.00000000, -0.10269886, -0.04406673, -0.02897487, 0.00000000, 0.00000000, 0.00000000, 0.00000000
1, 3.3700, 337, 0.14029694, -0.94441926, -0.04975898, 15.17525196, -1.62122071, 2.73227191, 0.00000000, 0.00000000, 0.00000000, 87.24630737, 0.71818250, 19.26586914, 1.00000000, 0.00000000, 0.00000000, 0.00000000, -0.12819475, -0.05430821, 0.00080799, 0.00000000, 0.00000000, 0.00000000, 0.00000000
1, 3.3800, 338, 0.15112817, -0.95854688, -0.04688625, 9.05364227, -4.28733301, 3.77321815, 0.00000000, 0.00000000, 0.00000000, 87.33634186, 0.67847669, 19.22481728, 1.00000000, 0.00000000, 0.00000000, 0.00000000, -0.13901335, -0.04027684, -0.00006262, 0.00000000, 0.00000000, 0.00000000, 0.00000000
1, 3.3900, 339, 0.13923068, -0.97601575, -0.03285522, 1.38187563, -8.86892128, 4.65306377, 0.00000000, 0.00000000, 0.00000000, 87.34917450, 0.62789583, 19.13836479, 1.00000000, 0.00000000, 0.00000000, 0.00000000, -0.12791863, -0.02285103, -0.01337376, 0.00000000, 0.00000000, 0.00000000, 0.00000000
1, 3.4000, 340, 0.11640536, -0.97472650, -0.01380595, -3.37052202, -13.05430126, 5.74683619, 0.00000000, 0.00000000, 0.00000000, 87.31413269, 0.56441855, 19.01063156, 1.00000000, 0.00000000, 0.00000000, 0.00000000, -0.10612115, -0.02413501, -0.03277504, 0.00000000, 0.00000000, 0.00000000, 0.00000000
1, 3.4100, 341, 0.09222730, -0.96039379, 0.00673281, -6.76881218, -15.58991814, 6.30100965, 0.00000000, 0.00000000, 0.00000000, 87.24503326, 0.49408597, 18.85788536, 1.00000000, 0.00000000, 0.00000000, 0.00000000, -0.08314051, -0.03843288, -0.05429656, 0.00000000, 0.00000000, 0.00000000, 0.00000000
1, 3.4200, 342, 0.07363617, -0.94837528, 0.01232332, -9.69760895, -16.53739166, 6.57067585, 0.00000000, 0.00000000, 0.00000000, 87.15955353, 0.43339163, 18.69566345, 1.00000000, 0.00000000, 0.00000000, 0.00000000, -0.06575781, -0.05039026, -0.06136490, 0.00000000, 0.00000000, 0.00000000, 0.00000000
1, 3.4300, 343, 0.05801933, -0.93989033, 0.03208795, -11.72125149, -15.55922413, 6.57197762, 0.00000000, 0.00000000, 0.00000000, 87.04129028, 0.35989109, 18.54358673, 1.00000000, 0.00000000, 0.00000000, 0.00000000, -0.05125331, -0.05879423, -0.08291070, 0.00000000, 0.00000000, 0.00000000, 0.00000000
1, 3.4400, 344, 0.04962019, -0.94703239, 0.04711601, -13.25552368, -14.02505684, 6.97632551, 0.00000000, 0.00000000, 0.00000000, 86.90795135, 0.28282997, 18.40720940, 1.00000000, 0.00000000, 0.00000000, 0.00000000, -0.04417481, -0.05154419, -0.10016780, 0.00000000, 0.00000000, 0.00000000, 0.00000000
1, 3.4500, 345, 0.03999883, -0.95904243, 0.06524702, -14.85603046, -13.66940403, 7.28009558, 0.00000000, 0.00000000, 0.00000000, 86.75881958, 0.20259498, 18.27473831, 1.00000000, 0.00000000, 0.00000000, 0.00000000, -0.03593295, -0.03940523, -0.12078947, 0.00000000, 0.00000000, 0.00000000, 0.00000000
1, 3.4600, 346, 0.03813366, -0.97155190, 0.06473427, -16.58144188, -13.20989609, 7.58661699, 0.00000000, 0.00000000, 0.00000000, 86.59263611, 0.11920312, 18.14725685, 1.00000000, 0.00000000, 0.00000000, 0.00000000, -0.03551100, -0.02674153, -0.12306485, 0.00000000, 0.00000000, 0.00000000, 0.00000000
1, 3.4700, 347, 0.02363069, -0.97757357, 0.06594065, -19.57282448, -11.65981102, 7.85149431, 0.00000000, 0.00000000, 0.00000000, 86.41955566, 0.03614623, 18.03532600, 1.00000000, 0.00000000, 0.00000000, 0.00000000, -0.02245918, -0.02053836, -0.12734379, 0.00000000, 0.00000000, 0.00000000, 0.00000000
1, 3.4800, 348, -0.00924882, -0.96757406, 0.03302307, -21.39245987, -10.90060043, 9.23015213, 0.00000000, 0.00000000, 0.00000000, 86.20564270, -0.06297353, 17.93248749, 1.00000000, 0.00000000, 0.00000000, 0.00000000, 0.00882263, -0.03032444, -0.09780727, 0.00000000, 0.00000000, 0.00000000, 0.00000000
1, 3.4900, 349, -0.06834966, -0.92211092, -0.01885256, -17.03408432, -13.02744102, 10.81415367, 0.00000000, 0.00000000, 0.00000000, 86.03556824, -0.17970093, 17.80984116, 1.00000000, 0.00000000, 0.00000000, 0.00000000, 0.06599613, -0.07556221, -0.04927886, 0.00000000, 0.00000000, 0.00000000, 0.00000000
1, 3.5000, 350, -0.11418726, -0.87524259, -0.04352790, -9.18436909, -16.76027679, 10.06159687, 0.00000000, 0.00000000, 0.00000000, 85.94439697, -0.29181010, 17.64969254, 1.00000000, 0.00000000, 0.00000000, 0.00000000, 0.10979195, -0.12227871, -0.02669684, 0.00000000, 0.00000000, 0.00000000, 0.00000000
1, 3.5100, 351, -0.12353707, -0.87845355, -0.06199816, -3.18810797, -19.04655075, 6.30392742, 0.00000000, 0.00000000, 0.00000000, 85.91359711, -0.36822665, 17.46418762, 1.00000000, 0.00000000, 0.00000000, 0.00000000, 0.11755356, -0.11899598, -0.00912645, 0.00000000, 0.00000000, 0.00000000, 0.00000000
1, 3.5200, 352, -0.09830697, -0.91114664, -0.06756768, 1.06833553, -20.93638039, 2.23974323, 0.00000000, 0.00000000, 0.00000000, 85.92225647, -0.42490920, 17.25760460, 1.00000000, 0.00000000, 0.00000000, 0.00000000, 0.09134924, -0.08629057, -0.00363896, 0.00000000, 0.00000000, 0.00000000, 0.00000000
1, 3.5300, 353, -0.02652118, -0.93821311, -0.08329487, 6.53595638, -24.52943230, -0.05693275, 0.00000000, 0.00000000, 0.00000000, 85.98947144, -0.44165224, 17.01287270, 1.00000000, 0.00000000, 0.00000000, 0.00000000, 0.01891065, -0.05927309, 0.01284610, 0.00000000, 0.00000000, 0.00000000, 0.00000000
1, 3.5400, 354, 0.08940176, -0.94893020, -0.09465176, 12.09287167, -30.42889214, -0.71947300, 0.00000000, 0.00000000, 0.00000000, 86.11278534, -0.45544624, 16.70880127, 1.00000000, 0.00000000, 0.00000000, 0.00000000, -0.09725993, -0.04867770, 0.02597614, 0.00000000, 0.00000000, 0.00000000, 0.00000000
1, 3.5500, 355, 0.22613803, -0.97784805, -0.13444142, 17.27280235, -36.83427048, 0.24405777, 0.00000000, 0.00000000, 0.00000000, 86.28851318, -0.48229486, 16.34141159, 1.00000000, 0.00000000, 0.00000000, 0.00000000, -0.23433259, -0.01994058, 0.06848715, 0.00000000, 0.00000000, 0.00000000, 0.00000000
1, 3.5600, 356, 0.26491514, -1.02492940, -0.17245419, 23.35623169, -52.12110138, 4.81914282, 0.00000000, 0.00000000, 0.00000000, 86.52676392, -0.56304222, 15.82421017, 1.00000000, 0.00000000, 0.00000000, 0.00000000, -0.27412111, 0.02690995, 0.11023933, 0.00000000, 0.00000000, 0.00000000, 0.00000000
1, 3.5700, 357, 0.24736884, -1.06990802, -0.12389724, 25.18789291, -64.05178833, 9.94081402, 0.00000000, 0.00000000, 0.00000000, 86.78276825, -0.68579441, 15.19002819, 1.00000000, 0.00000000, 0.00000000, 0.00000000, -0.25856104, 0.07164158, 0.06613095, 0.00000000, 0.00000000, 0.00000000, 0.00000000
1, 3.5800, 358, 0.17700602, -1.14117014, -0.14556493, 21.38745308, -71.58815765, 13.81829166, 0.00000000, 0.00000000, 0.00000000, 87.00617981, -0.86247611, 14.48259258, 1.00000000, 0.00000000, 0.00000000, 0.00000000, -0.19085044, 0.14270471, 0.09196382, 0.00000000, 0.00000000, 0.00000000, 0.00000000
1, 3.5900, 359, 0.07926759, -1.16182923, -0.13393383, 14.77846050, -80.19823456, 18.59244537, 0.00000000, 0.00000000, 0.00000000, 87.16742706, -1.08884752, 13.69095612, 1.00000000, 0.00000000, 0.00000000, 0.00000000, -0.09673320, 0.16325341, 0.08354017, 0.00000000, 0.00000000, 0.00000000, 0.00000000
1, 3.6000, 360, -0.01418113, -1.14640081, -0.11899580, 8.84626865, -82.85968018, 20.87356567, 0.00000000, 0.00000000, 0.00000000, 87.27318573, -1.33746314, 12.87325573, 1.00000000, 0.00000000, 0.00000000, 0.00000000, -0.00751613, 0.14779863, 0.07081568, 0.00000000, 0.00000000, 0.00000000, 0.00000000
1, 3.6100, 361, -0.10758077, -1.08586252, -0.06279879, 2.24334311, -80.23551178, 21.80778313, 0.00000000, 0.00000000, 0.00000000, 87.31582642, -1.59309208, 12.08180428, 1.00000000, 0.00000000, 0.00000000, 0.00000000, 0.08145107, 0.08730999, 0.01580526, 0.00000000, 0.00000000, 0.00000000, 0.00000000
1, 3.6200, 362, -0.16871086, -0.99414492, -0.00611412, -2.31182933, -72.40351868, 21.27340317, 0.00000000, 0.00000000, 0.00000000, 87.31797028, -1.85178339, 11.36832237, 1.00000000, 0.00000000, 0.00000000, 0.00000000, 0.13814135, -0.00429094, -0.04068034, 0.00000000, 0.00000000, 0.00000000, 0.00000000
1, 3.6300, 363, -0.20518132, -0.93303531, 0.01746941, -2.34406543, -59.20917892, 18.26200485, 0.00000000, 0.00000000, 0.00000000, 87.31445312, -2.06192207, 10.78509140, 1.00000000, 0.00000000, 0.00000000, 0.00000000, 0.17049836, -0.06526640, -0.06426426, 0.00000000, 0.00000000, 0.00000000, 0.00000000
1, 3.6400, 364, -0.19558653, -0.88734007, 0.02967694, -3.84877324, -41.66097641, 13.81502914, 0.00000000, 0.00000000, 0.00000000, 87.29124451, -2.21949458, 10.37514687, 1.00000000, 0.00000000, 0.00000000, 0.00000000, 0.15780430, -0.11083850, -0.07670347, 0.00000000, 0.00000000, 0.00000000, 0.00000000
1, 3.6500, 365, -0.14857776, -0.87422472, 0.01369913, -4.93265247, -23.41692734, 9.49360180, 0.00000000, 0.00000000, 0.00000000, 87.25101471, -2.32545805, 10.14557743, 1.00000000, 0.00000000, 0.00000000, 0.00000000, 0.10862507, -0.12384035, -0.06133986, 0.00000000, 0.00000000, 0.00000000, 0.00000000
1, 3.6600, 366, -0.10318398, -0.89075464, -0.03116422, -6.06599617, -7.96105385, 5.29740000, 0.00000000, 0.00000000, 0.00000000, 87.19351196, -2.38221502, 10.06855679, 1.00000000, 0.00000000, 0.00000000, 0.00000000, 0.06192137, -0.10721500, -0.01735216, 0.00000000, 0.00000000, 0.00000000, 0.00000000
1, 3.6700, 367, -0.06778314, -0.91590995, -0.08661731, -7.76244068, 3.85647583, 1.25768805, 0.00000000, 0.00000000, 0.00000000, 87.08983612, -2.40172243, 10.10942936, 1.00000000, 0.00000000, 0.00000000, 0.00000000, 0.02600546, -0.08197181, 0.03675328, 0.00000000, 0.00000000, 0.00000000, 0.00000000
1, 3.6800, 368, -0.05437382, -0.93611729, -0.14055766, -8.26105976, 11.91276169, -2.33355188, 0.00000000, 0.00000000, 0.00000000, 87.00230408, -2.37226892, 10.22729492, 1.00000000, 0.00000000, 0.00000000, 0.00000000, 0.01274575, -0.06167869, 0.08888406, 0.00000000, 0.00000000, 0.00000000, 0.00000000
1, 3.6900, 369, -0.04234039, -0.94625229, -0.16508327, -8.41605663, 17.51093483, -4.85553026, 0.00000000, 0.00000000, 0.00000000, 86.91107941, -2.31448030, 10.39971924, 1.00000000, 0.00000000, 0.00000000, 0.00000000, 0.00154558, -0.05149572, 0.11184377, 0.00000000, 0.00000000, 0.00000000, 0.00000000
1, 3.7000, 370, -0.01798207, -0.94817108, -0.17224683, -6.74338102, 21.01679039, -6.84707546, 0.00000000, 0.00000000, 0.00000000, 86.83544159, -2.23463631, 10.60599613, 1.00000000, 0.00000000, 0.00000000, 0.00000000, -0.02155918, -0.04954813, 0.11754228, 0.00000000, 0.00000000, 0.00000000, 0.00000000
1, 3.7100, 371, 0.02468261, -0.95994908, -0.19173197, -4.27075577, 23.92863274, -8.31293869, 0.00000000, 0.00000000, 0.00000000, 86.78380585, -2.13831091, 10.84045219, 1.00000000, 0.00000000, 0.00000000, 0.00000000, -0.06263752, -0.03777368, 0.13597871, 0.00000000, 0.00000000, 0.00000000, 0.00000000
1, 3.7200, 372, 0.07869771, -0.96320528, -0.18233761, -1.02763939, 22.76384354, -7.92888689, 0.00000000, 0.00000000, 0.00000000, 86.73439789, -2.01299500, 11.06468296, 1.00000000, 0.00000000, 0.00000000, 0.00000000, -0.11483635, -0.03454497, 0.12587559, 0.00000000, 0.00000000, 0.00000000, 0.00000000
1, 3.7300, 373, 0.12347536, -0.96880585, -0.16635214, 3.79547381, 17.51358795, -5.61743450, 0.00000000, 0.00000000, 0.00000000, 86.76641083, -1.94696748, 11.23644924, 1.00000000, 0.00000000, 0.00000000, 0.00000000, -0.15783446, -0.02899633, 0.10969388, 0.00000000, 0.00000000, 0.00000000, 0.00000000
1, 3.7400, 374, 0.14879110, -0.97876674, -0.15712693, 8.89596367, 11.70771027, -2.65096021, 0.00000000, 0.00000000, 0.00000000, 86.85147095, -1.91396761, 11.35192776, 1.00000000, 0.00000000, 0.00000000, 0.00000000, -0.18236320, -0.01912634, 0.10161090, 0.00000000, 0.00000000, 0.00000000, 0.00000000
1, 3.7500, 375, 0.16142289, -0.99669129, -0.14921178, 12.41462040, 5.59987879, -0.50864410, 0.00000000, 0.00000000, 0.00000000, 86.97377014, -1.90586245, 11.40759850, 1.00000000, 0.00000000, 0.00000000, 0.00000000, -0.19471079, -0.00131682, 0.09562638, 0.00000000, 0.00000000, 0.00000000, 0.00000000
1, 3.7600, 376, 0.14749619, -1.01484156, -0.12155542, 12.66222382, -0.67122173, 0.58683628, 0.00000000, 0.00000000, 0.00000000, 87.10059357, -1.91205621, 11.40119171, 1.00000000, 0.00000000, 0.00000000, 0.00000000, -0.18079984, 0.01671839, 0.07016920, 0.00000000, 0.00000000, 0.00000000, 0.00000000
1, 3.7700, 377, 0.11541229, -1.02819777, -0.09881309, 11.32297707, -7.06457424, 1.85779023, 0.00000000, 0.00000000, 0.00000000, 87.20470428, -1.89436066, 11.33244419, 1.00000000, 0.00000000, 0.00000000, 0.00000000, -0.14882272, 0.02997361, 0.04949735, 0.00000000, 0.00000000, 0.00000000, 0.00000000
1, 3.7800, 378, 0.08854093, -1.03146660, -0.08187217, 7.87491608, -12.10181236, 3.03055000, 0.00000000, 0.00000000, 0.00000000, 87.28744507, -1.93043458, 11.21295071, 1.00000000, 0.00000000, 0.00000000, 0.00000000, -0.12198359, 0.03316914, 0.03408457, 0.00000000, 0.00000000, 0.00000000, 0.00000000
1, 3.7900, 379, 0.05244719, -1.02676165, -0.08936065, 3.18544459, -14.80415726, 2.60111046, 0.00000000, 0.00000000, 0.00000000, 87.32428741, -1.96336305, 11.06620789, 1.00000000, 0.00000000, 0.00000000, 0.00000000, -0.08651522, 0.02843927, 0.04254381, 0.00000000, 0.00000000, 0.00000000, 0.00000000
1, 3.8000, 380, 0.01076154, -0.99995410, -0.05483426, -2.97895145, -17.37203407, 2.19130826, 0.00000000, 0.00000000, 0.00000000, 87.30045319, -1.99338543, 10.89360142, 1.00000000, 0.00000000, 0.00000000, 0.00000000, -0.04533529, 0.00164995, 0.00800163, 0.00000000, 0.00000000, 0.00000000, 0.00000000
1, 3.8100, 381, -0.01046268, -0.95389313, -0.01976608, -5.98069048, -20.34985161, 1.98295248, 0.00000000, 0.00000000, 0.00000000, 87.24774170, -2.02286720, 10.69114685, 1.00000000, 0.00000000, 0.00000000, 0.00000000, -0.02466278, -0.04435426, -0.02786049, 0.00000000, 0.00000000, 0.00000000, 0.00000000
1, 3.8200, 382, -0.01828261, -0.93183017, -0.01831321, -4.70879793, -17.55448914, -0.44954091, 0.00000000, 0.00000000, 0.00000000, 87.21401215, -2.02352548, 10.51564121, 1.00000000, 0.00000000, 0.00000000, 0.00000000, -0.01709335, -0.06637004, -0.03011109, 0.00000000, 0.00000000, 0.00000000, 0.00000000
1, 3.8300, 383, -0.02463508, -0.91768688, -0.03355367, -4.11251736, -12.50971127, -3.14473176, 0.00000000, 0.00000000, 0.00000000, 87.17733765, -1.99823380, 10.38907528, 1.00000000, 0.00000000, 0.00000000, 0.00000000, -0.01043757, -0.08049701, -0.01542458, 0.00000000, 0.00000000, 0.00000000, 0.00000000
1, 3.8400, 384, -0.02995691, -0.91450852, -0.07107559, -3.97792816, -5.59149265, -6.38965702, 0.00000000, 0.00000000, 0.00000000, 87.13959503, -1.93718362, 10.33002663, 1.00000000, 0.00000000, 0.00000000, 0.00000000, -0.00429893, -0.08367181, 0.02145306, 0.00000000, 0.00000000, 0.00000000, 0.00000000
1, 3.8500, 385, -0.02761776, -0.91098583, -0.08331054, -4.24889088, 0.72871870, -9.21668816, 0.00000000, 0.00000000, 0.00000000, 87.09701538, -1.84476340, 10.33267117, 1.00000000, 0.00000000, 0.00000000, 0.00000000, -0.00521124, -0.08720654, 0.03297129, 0.00000000, 0.00000000, 0.00000000, 0.00000000
1, 3.8600, 386, -0.01754614, -0.91876173, -0.09076768, -5.31972265, 5.15273142, -11.33882046, 0.00000000, 0.00000000, 0.00000000, 87.04241180, -1.72888839, 10.37835789, 1.00000000, 0.00000000, 0.00000000, 0.00000000, -0.01341736, -0.07944687, 0.03957627, 0.00000000, 0.00000000, 0.00000000, 0.00000000
1, 3.8700, 387, -0.00579137, -0.92130935, -0.11088298, -6.97327948, 9.25396729, -13.02014542, 0.00000000, 0.00000000, 0.00000000, 86.95428467, -1.58813059, 10.46379280, 1.00000000, 0.00000000, 0.00000000, 0.00000000, -0.02289971, -0.07690223, 0.05844668, 0.00000000, 0.00000000, 0.00000000, 0.00000000
1, 3.8800, 388, 0.01051777, -0.92609817, -0.11960379, -4.45221901, 10.48312759, -13.75397587, 0.00000000, 0.00000000, 0.00000000, 86.90719604, -1.44517350, 10.56113720, 1.00000000, 0.00000000, 0.00000000, 0.00000000, -0.03667389, -0.07211770, 0.06593373, 0.00000000, 0.00000000, 0.00000000, 0.00000000
1, 3.8900, 389, 0.03229319, -0.94187492, -0.11684094, -1.96198606, 8.02551746, -13.28845501, 0.00000000, 0.00000000, 0.00000000, 86.88581085, -1.30813551, 10.63409424, 1.00000000, 0.00000000, 0.00000000, 0.00000000, -0.05600482, -0.05637251, 0.06262494, 0.00000000, 0.00000000, 0.00000000, 0.00000000
1, 3.9000, 390, 0.05701542, -0.95549524, -0.10331215, -0.90120637, 2.81321526, -10.96550465, 0.00000000, 0.00000000, 0.00000000, 86.87629700, -1.19711220, 10.65622616, 1.00000000, 0.00000000, 0.00000000, 0.00000000, -0.07858866, -0.04279074, 0.04891216, 0.00000000, 0.00000000, 0.00000000, 0.00000000
1, 3.9100, 391, 0.08938824, -0.95303887, -0.08612163, -2.68845081, -3.61158013, -7.46704531, 0.00000000, 0.00000000, 0.00000000, 86.85021973, -1.12453091, 10.61607265, 1.00000000, 0.00000000, 0.00000000, 0.00000000, -0.10945234, -0.04525973, 0.03137366, 0.00000000, 0.00000000, 0.00000000, 0.00000000
1, 3.9200, 392, 0.12309843, -0.96192247, -0.08138037, -2.33138800, -8.58247662, -4.53766394, 0.00000000, 0.00000000, 0.00000000, 86.81356049, -1.01143992, 10.52980232, 1.00000000, 0.00000000, 0.00000000, 0.00000000, -0.14193340, -0.03637187, 0.02612450, 0.00000000, 0.00000000, 0.00000000, 0.00000000
1, 3.9300, 393, 0.13997148, -0.98406684, -0.09589788, -0.67597711, -11.00597668, -3.06407046, 0.00000000, 0.00000000, 0.00000000, 86.80873871, -0.98696959, 10.41819000, 1.00000000, 0.00000000, 0.00000000, 0.00000000, -0.15733919, -0.01423316, 0.04026123, 0.00000000, 0.00000000, 0.00000000, 0.00000000
1, 3.9400, 394, 0.14584085, -1.00637877, -0.12930526, -2.10773277, -14.42162704, -1.91437173, 0.00000000, 0.00000000, 0.00000000, 86.79013062, -0.97590512, 10.27310848, 1.00000000, 0.00000000, 0.00000000, 0.00000000, -0.16292909, 0.00808558, 0.07345887, 0.00000000, 0.00000000, 0.00000000, 0.00000000
