SensorId, TimeStamp (s), FrameNumber, AccX (g), AccY (g), AccZ (g), GyroX (deg/s), GyroY (deg/s), GyroZ (deg/s), MagX (uT), MagY (uT), MagZ (uT), EulerX (deg), EulerY (deg), EulerZ (deg), QuatW, QuatX, QuatY, QuatZ, LinAccX (g), LinAccY (g), LinAccZ (g), Pressure (kPa), Altitude (m), Temperature (degC), HeaveMotion (m)
1, 0.0000, 0, 0.17676675, -1.41740918, 0.28026116, -5.58795929, -31.62371445, -74.98881531, 0.00000000, 0.00000000, 0.00000000, 106.10587311, 9.41159916, 58.36333847, 1.00000000, 0.00000000, 0.00000000, 0.00000000, -0.01838288, 0.46894181, -0.00583660, 0.00000000, 0.00000000, 0.00000000, 0.00000000
1, 0.0100, 1, -0.03650156, -1.25480103, 0.19528450, -15.13673210, -29.67273903, -65.76689911, 0.00000000, 0.00000000, 0.00000000, 105.93663025, 10.12562180, 58.25819397, 1.00000000, 0.00000000, 0.00000000, 0.00000000, 0.20791398, 0.30778694, 0.07632157, 0.00000000, 0.00000000, 0.00000000, 0.00000000
1, 0.0200, 2, -0.10869290, -1.06939387, 0.13074221, -13.12806320, -21.17878723, -51.34202957, 0.00000000, 0.00000000, 0.00000000, 105.79379272, 10.67739105, 58.19377899, 1.00000000, 0.00000000, 0.00000000, 0.00000000, 0.29056802, 0.12343481, 0.13772684, 0.00000000, 0.00000000, 0.00000000, 0.00000000
1, 0.0300, 3, 0.17390676, -0.96065533, 0.22041711, -16.66952324, -4.63507843, -51.87360001, 0.00000000, 0.00000000, 0.00000000, 105.65500641, 11.25885868, 58.28026962, 1.00000000, 0.00000000, 0.00000000, 0.00000000, 0.01712493, 0.01572405, 0.04529484, 0.00000000, 0.00000000, 0.00000000, 0.00000000
1, 0.0400, 4, 0.39307842, -0.94406646, 0.34260386, -15.92837334, -3.39285278, -58.08023453, 0.00000000, 0.00000000, 0.00000000, 105.52094269, 11.82741737, 58.40620422, 1.00000000, 0.00000000, 0.00000000, 0.00000000, -0.19183603, 0.00047675, -0.07967496, 0.00000000, 0.00000000, 0.00000000, 0.00000000
1, 0.0500, 5, 0.19617084, -0.95964193, 0.34152141, -19.63185120, -6.49822330, -58.54399109, 0.00000000, 0.00000000, 0.00000000, 105.34452820, 12.40900993, 58.50150681, 1.00000000, 0.00000000, 0.00000000, 0.00000000, 0.01504615, 0.01737021, -0.08170860, 0.00000000, 0.00000000, 0.00000000, 0.00000000
1, 0.0600, 6, 0.33591777, -0.96897334, 0.27390873, -19.83817482, -21.00911522, -49.22798920, 0.00000000, 0.00000000, 0.00000000, 105.12953186, 12.93915081, 58.42635345, 1.00000000, 0.00000000, 0.00000000, 0.00000000, -0.11531429, 0.02778968, -0.01797900, 0.00000000, 0.00000000, 0.00000000, 0.00000000
1, 0.0700, 7, 0.37036240, -1.01983631, 0.26252383, -19.44487953, -31.28139877, -44.34915543, 0.00000000, 0.00000000, 0.00000000, 104.89113617, 13.44850731, 58.23399353, 1.00000000, 0.00000000, 0.00000000, 0.00000000, -0.14105071, 0.07957919, -0.01087847, 0.00000000, 0.00000000, 0.00000000, 0.00000000
1, 0.0800, 8, 0.14170434, -1.03697884, 0.31449664, -21.52377510, -35.03920364, -46.45041656, 0.00000000, 0.00000000, 0.00000000, 104.65036774, 13.90826225, 57.99684143, 1.00000000, 0.00000000, 0.00000000, 0.00000000, 0.09621933, 0.09761770, -0.06754146, 0.00000000, 0.00000000, 0.00000000, 0.00000000
1, 0.0900, 9, 0.10073196, -1.02126384, 0.30514437, -20.81050301, -32.41230774, -46.49817276, 0.00000000, 0.00000000, 0.00000000, 104.39244080, 14.43966007, 57.79347610, 1.00000000, 0.00000000, 0.00000000, 0.00000000, 0.14530024, 0.08283232, -0.06264392, 0.00000000, 0.00000000, 0.00000000, 0.00000000
1, 0.1000, 10, 0.14915897, -0.99937248, 0.27891144, -20.00073051, -30.93560600, -44.12828827, 0.00000000, 0.00000000, 0.00000000, 104.14237213, 14.94359303, 57.59597778, 1.00000000, 0.00000000, 0.00000000, 0.00000000, 0.10556661, 0.06205991, -0.04110307, 0.00000000, 0.00000000, 0.00000000, 0.00000000
1, 0.1100, 11, 0.28674057, -0.95381945, 0.19190925, -23.87932205, -30.55190849, -42.39636993, 0.00000000, 0.00000000, 0.00000000, 103.85095215, 15.42887974, 57.39506912, 1.00000000, 0.00000000, 0.00000000, 0.00000000, -0.02377888, 0.01752257, 0.04088194, 0.00000000, 0.00000000, 0.00000000, 0.00000000
1, 0.1200, 12, 0.24138227, -0.89639646, 0.21393077, -22.55157280, -28.70004463, -46.57308578, 0.00000000, 0.00000000, 0.00000000, 103.57812500, 15.94936466, 57.22009659, 1.00000000, 0.00000000, 0.00000000, 0.00000000, 0.03006745, -0.03875999, 0.01364168, 0.00000000, 0.00000000, 0.00000000, 0.00000000
1, 0.1300, 13, 0.17112033, -0.90407377, 0.21111146, -20.80388832, -29.54284477, -48.09183884, 0.00000000, 0.00000000, 0.00000000, 103.30968475, 16.44762611, 57.04611588, 1.00000000, 0.00000000, 0.00000000, 0.00000000, 0.10913651, -0.02965340, 0.01160412, 0.00000000, 0.00000000, 0.00000000, 0.00000000
1, 0.1400, 14, 0.27208638, -0.94236141, 0.15290299, -21.42340660, -32.66030502, -46.77357483, 0.00000000, 0.00000000, 0.00000000, 103.03193665, 16.97744942, 56.82535553, 1.00000000, 0.00000000, 0.00000000, 0.00000000, 0.01658366, 0.00999328, 0.06469963, 0.00000000, 0.00000000, 0.00000000, 0.00000000
1, 0.1500, 15, 0.23087385, -0.94910902, 0.19434170, -22.69361877, -31.62073898, -48.86317062, 0.00000000, 0.00000000, 0.00000000, 102.74314880, 17.52430725, 56.61672974, 1.00000000, 0.00000000, 0.00000000, 0.00000000, 0.06680074, 0.01837134, 0.01804499, 0.00000000, 0.00000000, 0.00000000, 0.00000000
1, 0.1600, 16, 0.22736646, -0.91933799, 0.23473671, -25.06868935, -31.88232994, -49.46714783, 0.00000000, 0.00000000, 0.00000000, 102.42718506, 18.07656288, 56.40313721, 1.00000000, 0.00000000, 0.00000000, 0.00000000, 0.07948434, -0.00968982, -0.02799904, 0.00000000, 0.00000000, 0.00000000, 0.00000000
1, 0.1700, 17, 0.22323242, -0.92138326, 0.24657619, -23.23408890, -32.69595718, -50.49665070, 0.00000000, 0.00000000, 0.00000000, 102.12445831, 18.63949203, 56.17961502, 1.00000000, 0.00000000, 0.00000000, 0.00000000, 0.09285925, -0.00579049, -0.04551591, 0.00000000, 0.00000000, 0.00000000, 0.00000000
1, 0.1800, 18, 0.17538622, -0.92679036, 0.24873725, -25.77756500, -32.77783966, -49.90651321, 0.00000000, 0.00000000, 0.00000000, 101.82181549, 19.16097450, 55.93973160, 1.00000000, 0.00000000, 0.00000000, 0.00000000, 0.14983767, 0.00158046, -0.05326962, 0.00000000, 0.00000000, 0.00000000, 0.00000000
1, 0.1900, 19, 0.32151735, -0.91745251, 0.24400780, -26.68577576, -31.60919952, -49.49664307, 0.00000000, 0.00000000, 0.00000000, 101.48102570, 19.70957375, 55.71743774, 1.00000000, 0.00000000, 0.00000000, 0.00000000, 0.01233627, -0.00589171, -0.05435682, 0.00000000, 0.00000000, 0.00000000, 0.00000000
1, 0.2000, 20, 0.32470185, -0.92595559, 0.23727082, -26.74283981, -30.96627998, -50.62580490, 0.00000000, 0.00000000, 0.00000000, 101.13925934, 20.26675224, 55.50002670, 1.00000000, 0.00000000, 0.00000000, 0.00000000, 0.01827222, 0.00473206, -0.05367890, 0.00000000, 0.00000000, 0.00000000, 0.00000000
1, 0.2100, 21, 0.34836519, -0.92389214, 0.21989058, -27.07967186, -31.78831673, -50.08889771, 0.00000000, 0.00000000, 0.00000000, 100.78719330, 20.81894493, 55.26845169, 1.00000000, 0.00000000, 0.00000000, 0.00000000, 0.00368297, 0.00485472, -0.04262619, 0.00000000, 0.00000000, 0.00000000, 0.00000000
1, 0.2200, 22, 0.33354574, -0.93023843, 0.20727970, -29.40540695, -35.63111877, -47.91834641, 0.00000000, 0.00000000, 0.00000000, 100.39200592, 21.35542870, 54.98748016, 1.00000000, 0.00000000, 0.00000000, 0.00000000, 0.02735188, 0.01338799, -0.03661007, 0.00000000, 0.00000000, 0.00000000, 0.00000000
1, 0.2300, 23, 0.39165950, -0.94481194, 0.19721483, -32.76753235, -41.47199249, -44.84870529, 0.00000000, 0.00000000, 0.00000000, 99.94107819, 21.88309288, 54.62883759, 1.00000000, 0.00000000, 0.00000000, 0.00000000, -0.02221464, 0.03000163, -0.03405317, 0.00000000, 0.00000000, 0.00000000, 0.00000000
1, 0.2400, 24, 0.30473384, -0.97221231, 0.18191172, -38.32529068, -44.18748474, -44.70770264, 0.00000000, 0.00000000, 0.00000000, 99.41114807, 22.39806557, 54.23971939, 1.00000000, 0.00000000, 0.00000000, 0.00000000, 0.07316168, 0.05937666, -0.02727072, 0.00000000, 0.00000000, 0.00000000, 0.00000000
1, 0.2500, 25, 0.21743900, -0.97629780, 0.17910746, -45.61830902, -48.21508026, -43.05599594, 0.00000000, 0.00000000, 0.00000000, 98.78472137, 22.89948273, 53.79774475, 1.00000000, 0.00000000, 0.00000000, 0.00000000, 0.16871171, 0.06530555, -0.03430956, 0.00000000, 0.00000000, 0.00000000, 0.00000000
1, 0.2600, 26, 0.26786700, -0.98305279, 0.15187527, -47.58504868, -50.70789719, -41.18889999, 0.00000000, 0.00000000, 0.00000000, 98.12037659, 23.38141251, 53.31809998, 1.00000000, 0.00000000, 0.00000000, 0.00000000, 0.12605818, 0.07370740, -0.01808635, 0.00000000, 0.00000000, 0.00000000, 0.00000000
1, 0.2700, 27, 0.24088791, -1.00554729, 0.15066579, -48.64468002, -53.60186005, -43.51993942, 0.00000000, 0.00000000, 0.00000000, 97.42726898, 23.88512039, 52.80264282, 1.00000000, 0.00000000, 0.00000000, 0.00000000, 0.16097714, 0.09809446, -0.02811822, 0.00000000, 0.00000000, 0.00000000, 0.00000000
1, 0.2800, 28, 0.14664979, -1.05656767, 0.19682752, -49.81231308, -53.03773117, -48.15377045, 0.00000000, 0.00000000, 0.00000000, 96.74691010, 24.33953285, 52.29631805, 1.00000000, 0.00000000, 0.00000000, 0.00000000, 0.26326102, 0.15123852, -0.08574884, 0.00000000, 0.00000000, 0.00000000, 0.00000000
1, 0.2900, 29, 0.16444775, -1.12624037, 0.26430970, -51.23480988, -51.52930069, -50.90094376, 0.00000000, 0.00000000, 0.00000000, 96.02584076, 24.90270996, 51.79525375, 1.00000000, 0.00000000, 0.00000000, 0.00000000, 0.25327554, 0.22315021, -0.16472164, 0.00000000, 0.00000000, 0.00000000, 0.00000000
1, 0.3000, 30, 0.27695128, -1.25321496, 0.29840097, -53.18095779, -49.10145569, -54.55831909, 0.00000000, 0.00000000, 0.00000000, 95.28942108, 25.49406815, 51.31472778, 1.00000000, 0.00000000, 0.00000000, 0.00000000, 0.14992434, 0.35319126, -0.21056488, 0.00000000, 0.00000000, 0.00000000, 0.00000000
1, 0.3100, 31, 0.21017414, -1.30490208, 0.30405039, -58.57263947, -52.77114105, -59.06787491, 0.00000000, 0.00000000, 0.00000000, 94.47364044, 26.12742233, 50.78639603, 1.00000000, 0.00000000, 0.00000000, 0.00000000, 0.22637507, 0.40836507, -0.22906096, 0.00000000, 0.00000000, 0.00000000, 0.00000000
1, 0.3200, 32, 0.19235346, -1.32270086, 0.33681700, -56.66093445, -56.96427155, -60.97811890, 0.00000000, 0.00000000, 0.00000000, 93.64580536, 26.77601814, 50.19997025, 1.00000000, 0.00000000, 0.00000000, 0.00000000, 0.25436693, 0.43017364, -0.27506715, 0.00000000, 0.00000000, 0.00000000, 0.00000000
1, 0.3300, 33, 0.15671109, -1.36429596, 0.34446076, -56.59009171, -59.20646286, -66.90262604, 0.00000000, 0.00000000, 0.00000000, 92.83453369, 27.41855049, 49.57973862, 1.00000000, 0.00000000, 0.00000000, 0.00000000, 0.30027843, 0.47616217, -0.29591483, 0.00000000, 0.00000000, 0.00000000, 0.00000000
1, 0.3400, 34, 0.08160419, -1.38796043, 0.36261386, -59.83264923, -60.28107834, -73.45529175, 0.00000000, 0.00000000, 0.00000000, 91.93484497, 28.17756844, 48.93338394, 1.00000000, 0.00000000, 0.00000000, 0.00000000, 0.38614982, 0.50481367, -0.32755554, 0.00000000, 0.00000000, 0.00000000, 0.00000000
1, 0.3500, 35, 0.01627311, -1.45180178, 0.34426236, -62.29999542, -59.22627258, -81.96974945, 0.00000000, 0.00000000, 0.00000000, 91.00056458, 29.01219177, 48.28298569, 1.00000000, 0.00000000, 0.00000000, 0.00000000, 0.46384394, 0.57486290, -0.32346469, 0.00000000, 0.00000000, 0.00000000, 0.00000000
1, 0.3600, 36, -0.05321391, -1.43756473, 0.33767223, -67.58029938, -59.07700729, -91.26540375, 0.00000000, 0.00000000, 0.00000000, 89.99549103, 29.93000793, 47.61352539, 1.00000000, 0.00000000, 0.00000000, 0.00000000, 0.54683888, 0.56793100, -0.33195269, 0.00000000, 0.00000000, 0.00000000, 0.00000000
1, 0.3700, 37, -0.10782854, -1.42001128, 0.25815403, -73.29159546, -56.31366348, -101.76741791, 0.00000000, 0.00000000, 0.00000000, 88.92618561, 30.94242668, 46.94930267, 1.00000000, 0.00000000, 0.00000000, 0.00000000, 0.61617589, 0.55894363, -0.26814696, 0.00000000, 0.00000000, 0.00000000, 0.00000000
1, 0.3800, 38, -0.32838470, -1.39938462, 0.27573812, -78.82727814, -52.38352966, -114.95268250, 0.00000000, 0.00000000, 0.00000000, 87.82714844, 31.99548531, 46.31335831, 1.00000000, 0.00000000, 0.00000000, 0.00000000, 0.85271227, 0.54830009, -0.30197978, 0.00000000, 0.00000000, 0.00000000, 0.00000000
1, 0.3900, 39, -0.37151474, -1.44628072, 0.29725486, -86.65412140, -41.91971207, -127.50791168, 0.00000000, 0.00000000, 0.00000000, 86.65361023, 33.24913788, 45.74335098, 1.00000000, 0.00000000, 0.00000000, 0.00000000, 0.91276437, 0.60653424, -0.33983555, 0.00000000, 0.00000000, 0.00000000, 0.00000000
1, 0.4000, 40, -0.37727287, -1.49985695, 0.35397717, -93.87245178, -30.19113731, -142.71553040, 0.00000000, 0.00000000, 0.00000000, 85.44589233, 34.65214157, 45.26160812, 1.00000000, 0.00000000, 0.00000000, 0.00000000, 0.93810797, 0.67408687, -0.41309890, 0.00000000, 0.00000000, 0.00000000, 0.00000000
1, 0.4100, 41, -0.43778905, -1.57043767, 0.51229757, -95.14096069, -23.40769768, -156.63684082, 0.00000000, 0.00000000, 0.00000000, 84.22826385, 36.19104767, 44.80234528, 1.00000000, 0.00000000, 0.00000000, 0.00000000, 1.01998258, 0.76092839, -0.58755934, 0.00000000, 0.00000000, 0.00000000, 0.00000000
1, 0.4200, 42, -0.90519369, -1.68349111, 0.63622028, -83.56236267, -31.53710938, -169.75378418, 0.00000000, 0.00000000, 0.00000000, 83.01296234, 37.84254074, 44.17300797, 1.00000000, 0.00000000, 0.00000000, 0.00000000, 1.51007295, 0.89238346, -0.72667408, 0.00000000, 0.00000000, 0.00000000, 0.00000000
1, 0.4300, 43, -0.26114753, -1.89316440, 0.66145045, -94.35399628, -23.79599380, -164.22819519, 0.00000000, 0.00000000, 0.00000000, 81.74141693, 39.41689682, 43.59984970, 1.00000000, 0.00000000, 0.00000000, 0.00000000, 0.88818568, 1.12141919, -0.76704842, 0.00000000, 0.00000000, 0.00000000, 0.00000000
1, 0.4400, 44, -1.04886305, -2.22294641, 0.83439624, -68.10852814, -27.92798996, -188.27453613, 0.00000000, 0.00000000, 0.00000000, 80.57772064, 41.23338318, 42.85626221, 1.00000000, 0.00000000, 0.00000000, 0.00000000, 1.69891167, 1.47245538, -0.95314586, 0.00000000, 0.00000000, 0.00000000, 0.00000000
1, 0.4500, 45, -1.21028388, -2.20450711, 0.88586366, -71.69052124, -44.34180450, -170.34754944, 0.00000000, 0.00000000, 0.00000000, 79.19818878, 42.83290100, 41.86761475, 1.00000000, 0.00000000, 0.00000000, 0.00000000, 1.88270330, 1.47616363, -1.01732540, 0.00000000, 0.00000000, 0.00000000, 0.00000000
1, 0.4600, 46, -0.57503647, -1.91099560, 0.55382657, -88.51953125, -75.55192566, -150.36798096, 0.00000000, 0.00000000, 0.00000000, 77.32041931, 44.15119553, 40.42646408, 1.00000000, 0.00000000, 0.00000000, 0.00000000, 1.26561713, 1.20350194, -0.70371622, 0.00000000, 0.00000000, 0.00000000, 0.00000000
1, 0.4700, 47, -0.04825966, -1.90517962, -0.10897656, -107.13318634, -96.92375946, -142.93746948, 0.00000000, 0.00000000, 0.00000000, 74.97827148, 45.30778122, 38.62167358, 1.00000000, 0.00000000, 0.00000000, 0.00000000, 0.75389898, 1.21792376, -0.06321401, 0.00000000, 0.00000000, 0.00000000, 0.00000000
1, 0.4800, 48, 0.79491562, -1.67692828, 0.49820298, -168.35853577, -83.97617340, -166.90176392, 0.00000000, 0.00000000, 0.00000000, 72.01837158, 46.66170502, 36.79144287, 1.00000000, 0.00000000, 0.00000000, 0.00000000, -0.07413641, 1.01370120, -0.69934559, 0.00000000, 0.00000000, 0.00000000, 0.00000000
1, 0.4900, 49, 0.33729410, -1.66965687, 0.70395392, -118.40662384, -91.68644714, -198.59506226, 0.00000000, 0.00000000, 0.00000000, 69.17140198, 48.22876740, 34.53525543, 1.00000000, 0.00000000, 0.00000000, 0.00000000, 0.40180850, 1.03592086, -0.93190944, 0.00000000, 0.00000000, 0.00000000, 0.00000000
1, 0.5000, 50, 0.26423660, -1.87551558, 1.07041347, -82.75299835, -53.45964050, -191.16114807, 0.00000000, 0.00000000, 0.00000000, 66.95124054, 49.80242157, 32.68869400, 1.00000000, 0.00000000, 0.00000000, 0.00000000, 0.49269137, 1.27085662, -1.31808341, 0.00000000, 0.00000000, 0.00000000, 0.00000000
1, 0.5100, 51, 0.28665179, -1.73929775, 0.95048749, -64.07004547, -18.85041809, -182.58218384, 0.00000000, 0.00000000, 0.00000000, 65.20002747, 51.39531708, 31.25062943, 1.00000000, 0.00000000, 0.00000000, 0.00000000, 0.48822814, 1.16265559, -1.20924783, 0.00000000, 0.00000000, 0.00000000, 0.00000000
1, 0.5200, 52, 0.27095824, -1.50839818, 1.00241685, -59.39272690, 11.72916698, -170.15202332, 0.00000000, 0.00000000, 0.00000000, 63.79863358, 52.98171616, 30.22795105, 1.00000000, 0.00000000, 0.00000000, 0.00000000, 0.52122176, 0.95857316, -1.26711965, 0.00000000, 0.00000000, 0.00000000, 0.00000000
1, 0.5300, 53, 0.18035543, -1.21872365, 0.94184273, -20.86631203, 20.89215088, -153.13888550, 0.00000000, 0.00000000, 0.00000000, 63.14996338, 54.40830994, 29.49757195, 1.00000000, 0.00000000, 0.00000000, 0.00000000, 0.62761992, 0.69251466, -1.20685267, 0.00000000, 0.00000000, 0.00000000, 0.00000000
1, 0.5400, 54, 0.20122565, -1.13068783, 0.66344154, -0.94807208, 15.51009178, -129.06979370, 0.00000000, 0.00000000, 0.00000000, 62.49541092, 55.62744522, 28.71035576, 1.00000000, 0.00000000, 0.00000000, 0.00000000, 0.61989403, 0.62333107, -0.92481375, 0.00000000, 0.00000000, 0.00000000, 0.00000000
1, 0.5500, 55, 0.40434501, -0.92536867, 0.25220892, -13.58196640, -22.48546982, -86.31519318, 0.00000000, 0.00000000, 0.00000000, 61.46492004, 56.28376007, 27.63176727, 1.00000000, 0.00000000, 0.00000000, 0.00000000, 0.42560768, 0.43329632, -0.51493764, 0.00000000, 0.00000000, 0.00000000, 0.00000000
1, 0.5600, 56, 0.50399059, -0.74823868, 0.38836661, -1.03409302, -87.99298096, -50.00286102, 0.00000000, 0.00000000, 0.00000000, 59.93716431, 56.28876114, 25.80834007, 1.00000000, 0.00000000, 0.00000000, 0.00000000, 0.32818821, 0.26554736, -0.66125774, 0.00000000, 0.00000000, 0.00000000, 0.00000000
1, 0.5700, 57, 0.23541789, -0.72533125, 0.67627162, 51.06124496, -101.61004639, -37.04669189, 0.00000000, 0.00000000, 0.00000000, 58.86025620, 56.08943176, 23.89787102, 1.00000000, 0.00000000, 0.00000000, 0.00000000, 0.59527302, 0.24712536, -0.96133959, 0.00000000, 0.00000000, 0.00000000, 0.00000000
1, 0.5800, 58, -0.34593767, -0.75530362, 0.34754154, 59.18547440, -91.09265137, -8.35852051, 0.00000000, 0.00000000, 0.00000000, 58.56306076, 55.45611572, 22.72503471, 1.00000000, 0.00000000, 0.00000000, 0.00000000, 1.17314315, 0.27592635, -0.64065123, 0.00000000, 0.00000000, 0.00000000, 0.00000000
1, 0.5900, 59, -0.54270589, -0.43860328, 0.19011959, 3.68405509, -90.52743530, 43.66998291, 0.00000000, 0.00000000, 0.00000000, 57.82781601, 54.60806656, 21.78355980, 1.00000000, 0.00000000, 0.00000000, 0.00000000, 1.36149526, -0.04879418, -0.49343938, 0.00000000, 0.00000000, 0.00000000, 0.00000000
1, 0.6000, 60, -0.50460929, -0.18077990, 0.12066925, 30.78964424, -120.20727539, 72.80686951, 0.00000000, 0.00000000, 0.00000000, 57.27887344, 53.34837341, 20.72405624, 1.00000000, 0.00000000, 0.00000000, 0.00000000, 1.31204009, -0.31656992, -0.43793207, 0.00000000, 0.00000000, 0.00000000, 0.00000000
1, 0.6100, 61, -0.44289616, -0.25709569, 0.07608585, 45.14841461, -115.94728088, 85.75321960, 0.00000000, 0.00000000, 0.00000000, 57.06125641, 51.99896240, 19.88370132, 1.00000000, 0.00000000, 0.00000000, 0.00000000, 1.23612607, -0.25413311, -0.40682605, 0.00000000, 0.00000000, 0.00000000, 0.00000000
1, 0.6200, 62, -0.33458954, -0.21436612, -0.02703075, 38.38882446, -48.78580856, 99.62960815, 0.00000000, 0.00000000, 0.00000000, 57.60406113, 50.89664459, 20.08809280, 1.00000000, 0.00000000, 0.00000000, 0.00000000, 1.11495090, -0.31202534, -0.31048465, 0.00000000, 0.00000000, 0.00000000, 0.00000000
1, 0.6300, 63, -0.23081534, -0.13970466, 0.04669325, 65.75231934, -4.28789663, 115.56852722, 0.00000000, 0.00000000, 0.00000000, 59.02610397, 49.83267593, 21.04936600, 1.00000000, 0.00000000, 0.00000000, 0.00000000, 0.99965978, -0.40495962, -0.38160926, 0.00000000, 0.00000000, 0.00000000, 0.00000000
1, 0.6400, 64, -0.19547552, -0.16200928, 0.13758463, 92.35459137, 23.27055359, 131.40455627, 0.00000000, 0.00000000, 0.00000000, 60.94896317, 48.81114960, 22.36730766, 1.00000000, 0.00000000, 0.00000000, 0.00000000, 0.95245695, -0.40495628, -0.46233678, 0.00000000, 0.00000000, 0.00000000, 0.00000000
1, 0.6500, 65, -0.20898755, -0.28446838, 0.16023003, 110.02272034, 42.26966095, 144.76417542, 0.00000000, 0.00000000, 0.00000000, 63.22760391, 47.72939682, 23.94676781, 1.00000000, 0.00000000, 0.00000000, 0.00000000, 0.95371544, -0.30663803, -0.46988896, 0.00000000, 0.00000000, 0.00000000, 0.00000000
1, 0.6600, 66, -0.19476496, -0.38314435, 0.19279110, 115.81221771, 74.33542633, 160.10310364, 0.00000000, 0.00000000, 0.00000000, 65.85188293, 46.60292435, 25.94626808, 1.00000000, 0.00000000, 0.00000000, 0.00000000, 0.92654681, -0.23368941, -0.48244941, 0.00000000, 0.00000000, 0.00000000, 0.00000000
1, 0.6700, 67, -0.15675895, -0.43407091, 0.25640145, 127.31620789, 86.15299988, 178.65074158, 0.00000000, 0.00000000, 0.00000000, 68.66055298, 45.28840637, 28.08213615, 1.00000000, 0.00000000, 0.00000000, 0.00000000, 0.87366998, -0.21041355, -0.52199942, 0.00000000, 0.00000000, 0.00000000, 0.00000000
1, 0.6800, 68, -0.10657441, -0.51580101, 0.26051304, 136.50672913, 82.80175018, 197.87028503, 0.00000000, 0.00000000, 0.00000000, 71.53677368, 43.66104126, 30.15857697, 1.00000000, 0.00000000, 0.00000000, 0.00000000, 0.80507332, -0.15838939, -0.50009322, 0.00000000, 0.00000000, 0.00000000, 0.00000000
1, 0.6900, 69, -0.07412601, -0.60047579, 0.23223336, 146.25457764, 84.86811829, 212.82461548, 0.00000000, 0.00000000, 0.00000000, 74.32783508, 41.87543869, 32.11454773, 1.00000000, 0.00000000, 0.00000000, 0.00000000, 0.75044316, -0.10489450, -0.44405711, 0.00000000, 0.00000000, 0.00000000, 0.00000000
1, 0.7000, 70, -0.03171547, -0.68466264, 0.21999413, 153.21873474, 94.03165436, 225.06184387, 0.00000000, 0.00000000, 0.00000000, 77.13029480, 39.92584991, 34.05407333, 1.00000000, 0.00000000, 0.00000000, 0.00000000, 0.68338352, -0.05145934, -0.40234959, 0.00000000, 0.00000000, 0.00000000, 0.00000000
1, 0.7100, 71, 0.02495237, -0.76153082, 0.24512005, 163.51434326, 100.71099854, 235.86401367, 0.00000000, 0.00000000, 0.00000000, 79.93933868, 37.81436539, 35.92395401, 1.00000000, 0.00000000, 0.00000000, 0.00000000, 0.59914875, -0.00503491, -0.39562580, 0.00000000, 0.00000000, 0.00000000, 0.00000000
1, 0.7200, 72, 0.06644488, -0.85705298, 0.26245591, 170.06834412, 107.21199036, 245.93995667, 0.00000000, 0.00000000, 0.00000000, 82.70612335, 35.54470062, 37.70775986, 1.00000000, 0.00000000, 0.00000000, 0.00000000, 0.52705842, 0.06083389, -0.37884876, 0.00000000, 0.00000000, 0.00000000, 0.00000000
1, 0.7300, 73, 0.08988854, -0.94833058, 0.25493371, 172.65745544, 103.82935333, 256.56039429, 0.00000000, 0.00000000, 0.00000000, 85.35449219, 33.06742859, 39.29060364, 1.00000000, 0.00000000, 0.00000000, 0.00000000, 0.46959430, 0.12364727, -0.33625764, 0.00000000, 0.00000000, 0.00000000, 0.00000000
1, 0.7400, 74, 0.12213219, -1.03806770, 0.24525821, 175.45046997, 94.72845459, 267.67086792, 0.00000000, 0.00000000, 0.00000000, 87.79396057, 30.45221138, 40.59030533, 1.00000000, 0.00000000, 0.00000000, 0.00000000, 0.39950585, 0.18630669, -0.29141328, 0.00000000, 0.00000000, 0.00000000, 0.00000000
1, 0.7500, 75, 0.12168459, -1.11956835, 0.18731140, 171.10086060, 90.01753235, 279.84799194, 0.00000000, 0.00000000, 0.00000000, 90.03535461, 27.67154694, 41.67982483, 1.00000000, 0.00000000, 0.00000000, 0.00000000, 0.35891110, 0.24286519, -0.19926292, 0.00000000, 0.00000000, 0.00000000, 0.00000000
1, 0.7600, 76, 0.15088628, -1.18594027, 0.18608667, 168.01765442, 72.91435242, 289.72860718, 0.00000000, 0.00000000, 0.00000000, 92.04956055, 24.76193428, 42.43339539, 1.00000000, 0.00000000, 0.00000000, 0.00000000, 0.28524444, 0.28644782, -0.16549870, 0.00000000, 0.00000000, 0.00000000, 0.00000000
1, 0.7700, 77, 0.19753428, -1.28137076, 0.19163831, 167.46496582, 59.37309265, 296.03292847, 0.00000000, 0.00000000, 0.00000000, 93.91381836, 21.77515984, 42.91094589, 1.00000000, 0.00000000, 0.00000000, 0.00000000, 0.19155532, 0.36178583, -0.13976894, 0.00000000, 0.00000000, 0.00000000, 0.00000000
1, 0.7800, 78, 0.20651919, -1.40977383, 0.20026968, 168.41683960, 49.06205750, 300.78198242, 0.00000000, 0.00000000, 0.00000000, 95.68856812, 18.72465324, 43.16673660, 1.00000000, 0.00000000, 0.00000000, 0.00000000, 0.13342708, 0.47310108, -0.11785150, 0.00000000, 0.00000000, 0.00000000, 0.00000000
1, 0.7900, 79, 0.22269286, -1.59167314, 0.23234852, 170.22232056, 45.86325073, 302.75207520, 0.00000000, 0.00000000, 0.00000000, 97.42522430, 15.66474915, 43.28186417, 1.00000000, 0.00000000, 0.00000000, 0.00000000, 0.06651929, 0.64124691, -0.11939854, 0.00000000, 0.00000000, 0.00000000, 0.00000000
1, 0.8000, 80, 0.30275655, -1.76239252, 0.28137118, 173.13072205, 48.87644577, 300.91455078, 0.00000000, 0.00000000, 0.00000000, 99.16912842, 12.61659718, 43.33296585, 1.00000000, 0.00000000, 0.00000000, 0.00000000, -0.06496066, 0.80193353, -0.13755688, 0.00000000, 0.00000000, 0.00000000, 0.00000000
1, 0.8100, 81, 0.44246852, -1.89657223, 0.29364026, 173.89088440, 55.32728577, 297.58642578, 0.00000000, 0.00000000, 0.00000000, 100.91311646, 9.58980751, 43.35943604, 1.00000000, 0.00000000, 0.00000000, 0.00000000, -0.25641602, 0.92988908, -0.11865191, 0.00000000, 0.00000000, 0.00000000, 0.00000000
1, 0.8200, 82, 0.69118869, -2.01803994, 0.29310226, 173.60978699, 66.56543732, 293.62762451, 0.00000000, 0.00000000, 0.00000000, 102.65634155, 6.57929659, 43.41181946, 1.00000000, 0.00000000, 0.00000000, 0.00000000, -0.55709213, 1.04888582, -0.08701389, 0.00000000, 0.00000000, 0.00000000, 0.00000000
1, 0.8300, 83, 1.01031876, -2.14402437, 0.25192836, 169.35409546, 80.14822388, 290.18249512, 0.00000000, 0.00000000, 0.00000000, 104.35578918, 3.58028960, 43.51298523, 1.00000000, 0.00000000, 0.00000000, 0.00000000, -0.92837059, 1.17597473, -0.01553308, 0.00000000, 0.00000000, 0.00000000, 0.00000000
1, 0.8400, 84, 1.09312892, -2.19459081, 0.15099795, 166.53117371, 91.41706085, 281.60028076, 0.00000000, 0.00000000, 0.00000000, 106.02630615, 0.62304014, 43.65702438, 1.00000000, 0.00000000, 0.00000000, 0.00000000, -1.06296682, 1.23111069, 0.11456486, 0.00000000, 0.00000000, 0.00000000, 0.00000000
1, 0.8500, 85, 0.92339492, -2.10170841, -0.08808021, 156.93156433, 105.16738892, 272.83285522, 0.00000000, 0.00000000, 0.00000000, 107.59185791, -2.29316926, 43.87487411, 1.00000000, 0.00000000, 0.00000000, 0.00000000, -0.94441134, 1.14577174, 0.38045657, 0.00000000, 0.00000000, 0.00000000, 0.00000000
1, 0.8600, 86, 0.92349446, -2.19334459, -0.24816591, 154.72882080, 120.67472839, 251.72866821, 0.00000000, 0.00000000, 0.00000000, 109.11580658, -5.06278276, 44.22832870, 1.00000000, 0.00000000, 0.00000000, 0.00000000, -0.99395758, 1.24778914, 0.56554055, 0.00000000, 0.00000000, 0.00000000, 0.00000000
1, 0.8700, 87, 1.17175734, -2.20684147, -0.30212587, 125.25466156, 127.87359619, 232.54025269, 0.00000000, 0.00000000, 0.00000000, 110.32167053, -7.68356609, 44.64844131, 1.00000000, 0.00000000, 0.00000000, 0.00000000, -1.28846765, 1.27310967, 0.64025366, 0.00000000, 0.00000000, 0.00000000, 0.00000000
1, 0.8800, 88, 1.57829273, -2.07986045, -0.30151618, 106.23680878, 128.61436462, 224.32966614, 0.00000000, 0.00000000, 0.00000000, 111.31215668, -10.22341347, 45.06299973, 1.00000000, 0.00000000, 0.00000000, 0.00000000, -1.73965001, 1.15816927, 0.65404314, 0.00000000, 0.00000000, 0.00000000, 0.00000000
1, 0.8900, 89, 1.83033788, -2.22798538, -0.04912741, 105.81470490, 109.22709656, 207.93704224, 0.00000000, 0.00000000, 0.00000000, 112.32322693, -12.55949020, 45.30690384, 1.00000000, 0.00000000, 0.00000000, 0.00000000, -2.03309870, 1.32011497, 0.41588554, 0.00000000, 0.00000000, 0.00000000, 0.00000000
1, 0.9000, 90, 2.02440667, -1.41953146, -0.06117869, 53.54391861, 64.48359680, 208.32931519, 0.00000000, 0.00000000, 0.00000000, 112.90993500, -14.73029804, 45.09629059, 1.00000000, 0.00000000, 0.00000000, 0.00000000, -2.26524162, 0.52388752, 0.43494654, 0.00000000, 0.00000000, 0.00000000, 0.00000000
1, 0.9100, 91, 2.24522877, -1.29749823, -0.09871633, 100.88844299, 38.30467224, 175.54023743, 0.00000000, 0.00000000, 0.00000000, 114.01566315, -16.49328232, 44.73638535, 1.00000000, 0.00000000, 0.00000000, 0.00000000, -2.51874542, 0.41610515, 0.48373336, 0.00000000, 0.00000000, 0.00000000, 0.00000000
1, 0.9200, 92, 2.51032257, -1.17802346, -0.54553330, 79.48849487, 21.65161514, 99.65949249, 0.00000000, 0.00000000, 0.00000000, 114.87650299, -17.49000549, 44.51177597, 1.00000000, 0.00000000, 0.00000000, 0.00000000, -2.80570316, 0.30918837, 0.94282520, 0.00000000, 0.00000000, 0.00000000, 0.00000000
1, 0.9300, 93, 2.39512873, -1.26618731, -0.90317541, 63.08835602, -2.25828719, 28.56677818, 0.00000000, 0.00000000, 0.00000000, 115.54073334, -17.72127914, 44.37137985, 1.00000000, 0.00000000, 0.00000000, 0.00000000, -2.69906712, 0.40498883, 1.31054378, 0.00000000, 0.00000000, 0.00000000, 0.00000000
1, 0.9400, 94, 2.24507022, -1.63167834, -0.91785735, 31.52074814, -8.60149002, -36.88345337, 0.00000000, 0.00000000, 0.00000000, 115.82984161, -17.35176468, 44.45822144, 1.00000000, 0.00000000, 0.00000000, 0.00000000, -2.54632425, 0.77290756, 1.33228803, 0.00000000, 0.00000000, 0.00000000, 0.00000000
1, 0.9500, 95, 1.99043941, -1.66111708, -0.94856554, -14.81926441, -4.44142199, -87.03227234, 0.00000000, 0.00000000, 0.00000000, 115.57880402, -16.54843903, 44.81141663, 1.00000000, 0.00000000, 0.00000000, 0.00000000, -2.28072143, 0.79892683, 1.36371017, 0.00000000, 0.00000000, 0.00000000, 0.00000000
1, 0.9600, 96, 1.79981554, -1.58434403, -0.97196692, -49.24046707, 9.74859905, -124.11933899, 0.00000000, 0.00000000, 0.00000000, 114.90936279, -15.46741962, 45.45414734, 1.00000000, 0.00000000, 0.00000000, 0.00000000, -2.07365894, 0.71406019, 1.38132584, 0.00000000, 0.00000000, 0.00000000, 0.00000000
1, 0.9700, 97, 1.55092776, -1.48689055, -1.00001383, -80.99031067, 27.94635010, -161.05189514, 0.00000000, 0.00000000, 0.00000000, 113.85687256, -14.11585045, 46.40524292, 1.00000000, 0.00000000, 0.00000000, 0.00000000, -1.80373609, 0.60496110, 1.39777744, 0.00000000, 0.00000000, 0.00000000, 0.00000000
1, 0.9800, 98, 1.20268273, -1.46489191, -0.63827413, -87.60247803, 62.18682861, -201.88279724, 0.00000000, 0.00000000, 0.00000000, 112.61470795, -12.46898842, 47.84803391, 1.00000000, 0.00000000, 0.00000000, 0.00000000, -1.42959142, 0.56915200, 1.02045095, 0.00000000, 0.00000000, 0.00000000, 0.00000000
1, 0.9900, 99, -1.48267519, -0.99937373, 1.83531535, -74.75452423, 134.75013733, -231.31813049, 0.00000000, 0.00000000, 0.00000000, 111.43592072, -10.82606030, 50.00790787, 1.00000000, 0.00000000, 0.00000000, 0.00000000, 1.28470278, 0.08962281, -1.47053099, 0.00000000, 0.00000000, 0.00000000, 0.00000000
1, 1.0000, 100, -4.05068922, -3.05391288, 0.80983680, 70.89325714, 312.55520630, -176.63471985, 0.00000000, 0.00000000, 0.00000000, 111.49218750, -10.31386185, 53.62056351, 1.00000000, 0.00000000, 0.00000000, 0.00000000, 3.87122273, 2.13723850, -0.45277822, 0.00000000, 0.00000000, 0.00000000, 0.00000000
1, 1.0100, 101, -1.05879033, -2.01277494, -1.26071250, -201.73992920, -12.11029816, 15.85529900, 0.00000000, 0.00000000, 0.00000000, 109.50552368, -10.41099358, 53.44769669, 1.00000000, 0.00000000, 0.00000000, 0.00000000, 0.87866139, 1.09301901, 1.60913324, 0.00000000, 0.00000000, 0.00000000, 0.00000000
1, 1.0200, 102, 1.51570463, -1.60270762, -0.71182370, -160.11424255, 71.87828064, -159.09303284, 0.00000000, 0.00000000, 0.00000000, 107.70039368, -9.12386322, 54.64205551, 1.00000000, 0.00000000, 0.00000000, 0.00000000, -1.68561387, 0.66600037, 1.01777565, 0.00000000, 0.00000000, 0.00000000, 0.00000000
1, 1.0300, 103, 1.40627813, -1.99998879, 1.17221677, -79.95967102, 210.22589111, -215.57781982, 0.00000000, 0.00000000, 0.00000000, 106.53516388, -7.67201328, 57.30172729, 1.00000000, 0.00000000, 0.00000000, 0.00000000, -1.54706740, 1.05413556, -0.87989736, 0.00000000, 0.00000000, 0.00000000, 0.00000000
1, 1.0400, 104, 1.17508507, 0.30548576, 1.03275859, -140.99713135, 246.16950989, -186.56582642, 0.00000000, 0.00000000, 0.00000000, 104.76343536, -6.53008366, 60.19164276, 1.00000000, 0.00000000, 0.00000000, 0.00000000, -1.29748821, -1.26314616, -0.77235520, 0.00000000, 0.00000000, 0.00000000, 0.00000000
1, 1.0500, 105, 2.23689604, -0.44384030, -0.17646667, 138.37950134, 116.65129089, -194.50459290, 0.00000000, 0.00000000, 0.00000000, 105.97899628, -4.95737362, 61.83726120, 1.00000000, 0.00000000, 0.00000000, 0.00000000, -2.33340430, -0.51566982, 0.44088280, 0.00000000, 0.00000000, 0.00000000, 0.00000000
1, 1.0600, 106, 2.15563583, -2.07015061, 0.40547237, 42.83945084, 84.93701935, -190.61175537, 0.00000000, 0.00000000, 0.00000000, 106.30987549, -3.36578894, 63.19024658, 1.00000000, 0.00000000, 0.00000000, 0.00000000, -2.22525620, 1.11274850, -0.12534653, 0.00000000, 0.00000000, 0.00000000, 0.00000000
1, 1.0700, 107, 0.67390758, -2.63739252, -0.20577762, -6.51163769, 52.15009689, -189.93927002, 0.00000000, 0.00000000, 0.00000000, 106.19820404, -1.68845582, 64.22378540, 1.00000000, 0.00000000, 0.00000000, 0.00000000, -0.71359640, 1.67809749, 0.48526648, 0.00000000, 0.00000000, 0.00000000, 0.00000000
1, 1.0800, 108, -0.49973843, -1.51333821, -0.53427750, -51.57833862, 6.12131739, -107.00182343, 0.00000000, 0.00000000, 0.00000000, 105.56256866, -0.77373898, 64.67614746, 1.00000000, 0.00000000, 0.00000000, 0.00000000, 0.48121527, 0.55168563, 0.80786610, 0.00000000, 0.00000000, 0.00000000, 0.00000000
1, 1.0900, 109, -0.06613270, -0.79811496, 0.08080534, -4.46393394, -117.76806641, -90.24497223, 0.00000000, 0.00000000, 0.00000000, 105.51911926, 0.40961355, 63.78129959, 1.00000000, 0.00000000, 0.00000000, 0.00000000, 0.06507995, -0.16577396, 0.18542600, 0.00000000, 0.00000000, 0.00000000, 0.00000000
1, 1.1000, 110, 0.33749476, -0.88079965, 0.42672357, -29.35900307, -98.49568176, -78.51361084, 0.00000000, 0.00000000, 0.00000000, 105.21450043, 1.42934537, 63.04141235, 1.00000000, 0.00000000, 0.00000000, 0.00000000, -0.31864208, -0.08299662, -0.16080344, 0.00000000, 0.00000000, 0.00000000, 0.00000000
1, 1.1100, 111, 0.31378448, -0.41861516, 0.21566075, -53.99969101, -65.15881348, -75.94657898, 0.00000000, 0.00000000, 0.00000000, 104.65963745, 2.33018136, 62.60615540, 1.00000000, 0.00000000, 0.00000000, 0.00000000, -0.27933460, -0.54760462, 0.03969533, 0.00000000, 0.00000000, 0.00000000, 0.00000000
1, 1.1200, 112, 0.57318705, -0.81565255, 0.21649113, 9.94647789, -107.02696228, -87.38986969, 0.00000000, 0.00000000, 0.00000000, 104.71814728, 3.44695735, 61.79150772, 1.00000000, 0.00000000, 0.00000000, 0.00000000, -0.52040941, -0.15025130, 0.03691319, 0.00000000, 0.00000000, 0.00000000, 0.00000000
1, 1.1300, 113, 0.10633695, -1.02332258, 0.17615099, -20.75975227, -87.32821655, -80.69209290, 0.00000000, 0.00000000, 0.00000000, 104.41283417, 4.39264631, 61.19327164, 1.00000000, 0.00000000, 0.00000000, 0.00000000, -0.03525677, 0.05789861, 0.07461037, 0.00000000, 0.00000000, 0.00000000, 0.00000000
1, 1.1400, 114, -0.16921417, -0.96446729, 0.17470683, -2.60510206, -79.00354767, -63.54448700, 0.00000000, 0.00000000, 0.00000000, 104.33573151, 5.20403528, 60.58320618, 1.00000000, 0.00000000, 0.00000000, 0.00000000, 0.25472990, -0.00082867, 0.07202296, 0.00000000, 0.00000000, 0.00000000, 0.00000000
1, 1.1500, 115, 0.06190133, -1.10035133, 0.49073216, 5.51548338, -56.92533493, -65.11601257, 0.00000000, 0.00000000, 0.00000000, 104.35307312, 5.97600412, 60.19137192, 1.00000000, 0.00000000, 0.00000000, 0.00000000, 0.03729080, 0.13637611, -0.24395539, 0.00000000, 0.00000000, 0.00000000, 0.00000000
1, 1.1600, 116, -0.04338118, -1.12591159, 0.29025912, -7.96324730, -43.87556458, -53.17774963, 0.00000000, 0.00000000, 0.00000000, 104.24089050, 6.59964371, 59.89575958, 1.00000000, 0.00000000, 0.00000000, 0.00000000, 0.15450853, 0.16283122, -0.04506890, 0.00000000, 0.00000000, 0.00000000, 0.00000000
1, 1.1700, 117, -0.14062436, -1.15255022, 0.17991778, -6.04175043, -36.32249069, -40.63533020, 0.00000000, 0.00000000, 0.00000000, 104.15033722, 7.08270788, 59.64152527, 1.00000000, 0.00000000, 0.00000000, 0.00000000, 0.26092717, 0.19010039, 0.06341766, 0.00000000, 0.00000000, 0.00000000, 0.00000000
1, 1.1800, 118, 0.07401435, -0.99531788, 0.24362896, -8.71814442, -13.83902645, -44.85228348, 0.00000000, 0.00000000, 0.00000000, 104.09583282, 7.55222321, 59.59003448, 1.00000000, 0.00000000, 0.00000000, 0.00000000, 0.05425142, 0.03342944, -0.00214830, 0.00000000, 0.00000000, 0.00000000, 0.00000000
1, 1.1900, 119, 0.19177246, -0.91895193, 0.29575756, -7.95433474, -6.13783407, -54.46537018, 0.00000000, 0.00000000, 0.00000000, 104.02632141, 8.09545422, 59.66360092, 1.00000000, 0.00000000, 0.00000000, 0.00000000, -0.05455315, -0.04190256, -0.05508758, 0.00000000, 0.00000000, 0.00000000, 0.00000000
1, 1.2000, 120, 0.27191454, -0.97426307, 0.33923745, -14.22019196, -19.69985771, -55.03854370, 0.00000000, 0.00000000, 0.00000000, 103.87532806, 8.67704868, 59.60447311, 1.00000000, 0.00000000, 0.00000000, 0.00000000, -0.12483117, 0.01425226, -0.10104206, 0.00000000, 0.00000000, 0.00000000, 0.00000000
1, 1.2100, 121, 0.41492587, -1.00092018, 0.33567590, -17.42594910, -42.60062408, -47.02719116, 0.00000000, 0.00000000, 0.00000000, 103.65325928, 9.23514271, 59.29892349, 1.00000000, 0.00000000, 0.00000000, 0.00000000, -0.25795746, 0.04160185, -0.10102545, 0.00000000, 0.00000000, 0.00000000, 0.00000000
1, 1.2200, 122, 0.38237956, -0.91328895, 0.34099257, -17.08245659, -64.86322784, -35.81441116, 0.00000000, 0.00000000, 0.00000000, 103.39092255, 9.73492813, 58.74439240, 1.00000000, 0.00000000, 0.00000000, 0.00000000, -0.21644448, -0.04565550, -0.11102800, 0.00000000, 0.00000000, 0.00000000, 0.00000000
1, 1.2300, 123, 0.20509808, -0.94044226, 0.29921791, -11.63687038, -68.06511688, -31.77151489, 0.00000000, 0.00000000, 0.00000000, 103.20082855, 10.19564533, 58.12604141, 1.00000000, 0.00000000, 0.00000000, 0.00000000, -0.03101575, -0.01803471, -0.07336098, 0.00000000, 0.00000000, 0.00000000, 0.00000000
1, 1.2400, 124, -0.00184281, -1.01158023, 0.24447209, -10.77478123, -60.21707535, -34.61190033, 0.00000000, 0.00000000, 0.00000000, 102.99962616, 10.66925907, 57.60945511, 1.00000000, 0.00000000, 0.00000000, 0.00000000, 0.18391687, 0.05378503, -0.02205159, 0.00000000, 0.00000000, 0.00000000, 0.00000000
1, 1.2500, 125, -0.09378138, -0.95660192, 0.20078632, -16.44416809, -48.05385208, -36.35901642, 0.00000000, 0.00000000, 0.00000000, 102.76062775, 11.13087463, 57.21497726, 1.00000000, 0.00000000, 0.00000000, 0.00000000, 0.28390089, -0.00054856, 0.01764259, 0.00000000, 0.00000000, 0.00000000, 0.00000000
1, 1.2600, 126, 0.00762742, -0.85697371, 0.23956193, -16.58411026, -32.69307327, -38.59109497, 0.00000000, 0.00000000, 0.00000000, 102.54783630, 11.57907677, 56.97584534, 1.00000000, 0.00000000, 0.00000000, 0.00000000, 0.19018602, -0.09956421, -0.02532083, 0.00000000, 0.00000000, 0.00000000, 0.00000000
1, 1.2700, 127, -0.00846171, -0.87655002, 0.20101117, -18.21629143, -17.39006233, -46.35282135, 0.00000000, 0.00000000, 0.00000000, 102.35112000, 12.06922054, 56.90444565, 1.00000000, 0.00000000, 0.00000000, 0.00000000, 0.21436371, -0.07910442, 0.00951742, 0.00000000, 0.00000000, 0.00000000, 0.00000000
1, 1.2800, 128, 0.09411428, -0.95040339, 0.13295282, -19.92829323, -9.70153999, -49.49606705, 0.00000000, 0.00000000, 0.00000000, 102.09452820, 12.53166103, 56.95682526, 1.00000000, 0.00000000, 0.00000000, 0.00000000, 0.12017840, -0.00425471, 0.07368614, 0.00000000, 0.00000000, 0.00000000, 0.00000000
1, 1.2900, 129, 0.19075471, -0.96953374, 0.14303267, -24.44955826, -3.04160166, -48.99472809, 0.00000000, 0.00000000, 0.00000000, 101.86636353, 13.01725864, 57.03064728, 1.00000000, 0.00000000, 0.00000000, 0.00000000, 0.03140805, 0.01567589, 0.05893806, 0.00000000, 0.00000000, 0.00000000, 0.00000000
1, 1.3000, 130, 0.18268611, -0.93097478, 0.19485018, -27.68255615, -0.97030824, -49.40320969, 0.00000000, 0.00000000, 0.00000000, 101.61099243, 13.50293732, 57.12415695, 1.00000000, 0.00000000, 0.00000000, 0.00000000, 0.04770450, -0.02187252, 0.00262164, 0.00000000, 0.00000000, 0.00000000, 0.00000000
1, 1.3100, 131, 0.28591013, -0.88533807, 0.27283773, -27.33882904, -2.96795464, -50.20093536, 0.00000000, 0.00000000, 0.00000000, 101.35490417, 14.00081062, 57.19708252, 1.00000000, 0.00000000, 0.00000000, 0.00000000, -0.04716861, -0.06641728, -0.08007666, 0.00000000, 0.00000000, 0.00000000, 0.00000000
1, 1.3200, 132, 0.20904274, -0.92648858, 0.31248337, -27.45206261, -5.62749147, -51.05336380, 0.00000000, 0.00000000, 0.00000000, 101.09159088, 14.51252270, 57.24269867, 1.00000000, 0.00000000, 0.00000000, 0.00000000, 0.03832499, -0.02399354, -0.12437418, 0.00000000, 0.00000000, 0.00000000, 0.00000000
1, 1.3300, 133, 0.27637166, -0.97439337, 0.27764207, -30.58967972, -14.69805527, -46.53711700, 0.00000000, 0.00000000, 0.00000000, 100.79940796, 15.02441311, 57.16559219, 1.00000000, 0.00000000, 0.00000000, 0.00000000, -0.02050618, 0.02512494, -0.09484653, 0.00000000, 0.00000000, 0.00000000, 0.00000000
1, 1.3400, 134, 0.33163723, -1.04152310, 0.27685842, -31.87674904, -24.93928337, -43.31726074, 0.00000000, 0.00000000, 0.00000000, 100.43547821, 15.49609280, 56.99428558, 1.00000000, 0.00000000, 0.00000000, 0.00000000, -0.06746337, 0.09344758, -0.09978032, 0.00000000, 0.00000000, 0.00000000, 0.00000000
1, 1.3500, 135, 0.21845287, -1.06183493, 0.28111184, -38.40410614, -31.31377029, -44.13498306, 0.00000000, 0.00000000, 0.00000000, 99.98657990, 15.98592663, 56.75539017, 1.00000000, 0.00000000, 0.00000000, 0.00000000, 0.05383271, 0.11470851, -0.11140089, 0.00000000, 0.00000000, 0.00000000, 0.00000000
1, 1.3600, 136, 0.20428252, -1.07583904, 0.27089152, -38.38466263, -36.76078796, -45.16188431, 0.00000000, 0.00000000, 0.00000000, 99.51945496, 16.49327087, 56.45768738, 1.00000000, 0.00000000, 0.00000000, 0.00000000, 0.07640470, 0.12975149, -0.10926865, 0.00000000, 0.00000000, 0.00000000, 0.00000000
1, 1.3700, 137, 0.15226945, -1.06378722, 0.25142696, -38.01020813, -39.49079514, -46.35360336, 0.00000000, 0.00000000, 0.00000000, 99.04454041, 17.01442146, 56.12874603, 1.00000000, 0.00000000, 0.00000000, 0.00000000, 0.13706228, 0.11893955, -0.09800388, 0.00000000, 0.00000000, 0.00000000, 0.00000000
1, 1.3800, 138, 0.15697759, -1.05675709, 0.22527222, -36.04209900, -40.88751221, -49.36901093, 0.00000000, 0.00000000, 0.00000000, 98.58901978, 17.49592400, 55.78937531, 1.00000000, 0.00000000, 0.00000000, 0.00000000, 0.14101952, 0.11331372, -0.08000438, 0.00000000, 0.00000000, 0.00000000, 0.00000000
1, 1.3900, 139, 0.09528758, -1.08647096, 0.18145443, -37.20344543, -37.17206192, -52.53084183, 0.00000000, 0.00000000, 0.00000000, 98.12355804, 18.06970787, 55.48336411, 1.00000000, 0.00000000, 0.00000000, 0.00000000, 0.21130455, 0.14461227, -0.04401096, 0.00000000, 0.00000000, 0.00000000, 0.00000000
1, 1.4000, 140, 0.12666929, -1.11544633, 0.16904882, -36.20103836, -34.28894043, -54.90650177, 0.00000000, 0.00000000, 0.00000000, 97.67388916, 18.66070557, 55.20499420, 1.00000000, 0.00000000, 0.00000000, 0.00000000, 0.18960334, 0.17565426, -0.03962689, 0.00000000, 0.00000000, 0.00000000, 0.00000000
1, 1.4100, 141, 0.10146697, -1.13049829, 0.17108865, -38.90495682, -34.17701721, -56.81449509, 0.00000000, 0.00000000, 0.00000000, 97.19364166, 19.26829720, 54.92437744, 1.00000000, 0.00000000, 0.00000000, 0.00000000, 0.22476305, 0.19303490, -0.04975159, 0.00000000, 0.00000000, 0.00000000, 0.00000000
1, 1.4200, 142, 0.12770554, -1.14782572, 0.16778785, -41.61145020, -36.64286041, -57.24791718, 0.00000000, 0.00000000, 0.00000000, 96.67272186, 19.88080406, 54.61167145, 1.00000000, 0.00000000, 0.00000000, 0.00000000, 0.20857424, 0.21283524, -0.05512078, 0.00000000, 0.00000000, 0.00000000, 0.00000000
1, 1.4300, 143, 0.16833965, -1.22721970, 0.18148005, -40.19132996, -36.59964752, -62.02456284, 0.00000000, 0.00000000, 0.00000000, 96.16853333, 20.48064613, 54.30343246, 1.00000000, 0.00000000, 0.00000000, 0.00000000, 0.17812005, 0.29492453, -0.07766402, 0.00000000, 0.00000000, 0.00000000, 0.00000000
1, 1.4400, 144, 0.16439553, -1.28974700, 0.19684605, -45.05602646, -37.66494370, -65.72239685, 0.00000000, 0.00000000, 0.00000000, 95.60109711, 21.17305756, 53.97474289, 1.00000000, 0.00000000, 0.00000000, 0.00000000, 0.19255178, 0.36044753, -0.10212038, 0.00000000, 0.00000000, 0.00000000, 0.00000000
1, 1.4500, 145, 0.09673023, -1.30541182, 0.23746742, -48.36695099, -37.37208939, -68.07581329, 0.00000000, 0.00000000, 0.00000000, 94.99542236, 21.88542938, 53.64233398, 1.00000000, 0.00000000, 0.00000000, 0.00000000, 0.27168837, 0.37962943, -0.15276246, 0.00000000, 0.00000000, 0.00000000, 0.00000000
1, 1.4600, 146, 0.11807019, -1.31928694, 0.24789530, -53.77157593, -40.50017166, -69.88394165, 0.00000000, 0.00000000, 0.00000000, 94.31578064, 22.61485481, 53.26746750, 1.00000000, 0.00000000, 0.00000000, 0.00000000, 0.26199603, 0.39728540, -0.17413467, 0.00000000, 0.00000000, 0.00000000, 0.00000000
1, 1.4700, 147, 0.04557351, -1.34619749, 0.28294936, -56.67858887, -42.10914612, -76.34201813, 0.00000000, 0.00000000, 0.00000000, 93.59294891, 23.40550041, 52.86829376, 1.00000000, 0.00000000, 0.00000000, 0.00000000, 0.34685275, 0.42852542, -0.22087216, 0.00000000, 0.00000000, 0.00000000, 0.00000000
1, 1.4800, 148, 0.02396371, -1.33840537, 0.31124726, -61.64741135, -43.79321671, -81.56830597, 0.00000000, 0.00000000, 0.00000000, 92.83972931, 24.18295097, 52.43734360, 1.00000000, 0.00000000, 0.00000000, 0.00000000, 0.38132298, 0.42557907, -0.26159972, 0.00000000, 0.00000000, 0.00000000, 0.00000000
1, 1.4900, 149, 0.05386667, -1.38248515, 0.34096012, -68.75089264, -42.39946365, -88.21960449, 0.00000000, 0.00000000, 0.00000000, 91.97505951, 25.08227730, 52.01215744, 1.00000000, 0.00000000, 0.00000000, 0.00000000, 0.36464083, 0.47502705, -0.30439892, 0.00000000, 0.00000000, 0.00000000, 0.00000000
1, 1.5000, 150, -0.04519957, -1.44972181, 0.38049313, -74.12679291, -42.42469406, -96.99118042, 0.00000000, 0.00000000, 0.00000000, 91.04309082, 26.06305313, 51.57034302, 1.00000000, 0.00000000, 0.00000000, 0.00000000, 0.47872117, 0.54886955, -0.35849994, 0.00000000, 0.00000000, 0.00000000, 0.00000000
1, 1.5100, 151, 0.06102062, -1.44684589, 0.36240360, -80.63398743, -43.52459717, -102.71670532, 0.00000000, 0.00000000, 0.00000000, 90.02378845, 27.09424019, 51.09437180, 1.00000000, 0.00000000, 0.00000000, 0.00000000, 0.38827235, 0.55351084, -0.35592616, 0.00000000, 0.00000000, 0.00000000, 0.00000000
1, 1.5200, 152, -0.14963324, -1.44162655, 0.32504949, -84.51699829, -48.09421921, -115.84741974, 0.00000000, 0.00000000, 0.00000000, 88.92080688, 28.24822998, 50.53927231, 1.00000000, 0.00000000, 0.00000000, 0.00000000, 0.61615038, 0.55720401, -0.33520666, 0.00000000, 0.00000000, 0.00000000, 0.00000000
1, 1.5300, 153, -0.14420177, -1.46337712, 0.25601754, -90.85523224, -44.29595566, -122.60224152, 0.00000000, 0.00000000, 0.00000000, 87.77358246, 29.40249825, 49.99945831, 1.00000000, 0.00000000, 0.00000000, 0.00000000, 0.62877929, 0.58909279, -0.28351635, 0.00000000, 0.00000000, 0.00000000, 0.00000000
1, 1.5400, 154, -0.18663506, -1.49428713, 0.25070375, -98.44976807, -36.51248550, -133.96696472, 0.00000000, 0.00000000, 0.00000000, 86.53959656, 30.72248459, 49.50127411, 1.00000000, 0.00000000, 0.00000000, 0.00000000, 0.68991828, 0.63138270, -0.29577851, 0.00000000, 0.00000000, 0.00000000, 0.00000000
1, 1.5500, 155, -0.27257130, -1.49802375, 0.33168411, -102.10639954, -28.97659302, -145.03283691, 0.00000000, 0.00000000, 0.00000000, 85.27869415, 32.14852524, 49.04116440, 1.00000000, 0.00000000, 0.00000000, 0.00000000, 0.79663444, 0.64872640, -0.39473364, 0.00000000, 0.00000000, 0.00000000, 0.00000000
1, 1.5600, 156, -0.25433964, -1.50169361, 0.41214344, -103.53668213, -24.09548950, -154.24983215, 0.00000000, 0.00000000, 0.00000000, 83.99475861, 33.66177368, 48.58358002, 1.00000000, 0.00000000, 0.00000000, 0.00000000, 0.80025160, 0.66778529, -0.49273026, 0.00000000, 0.00000000, 0.00000000, 0.00000000
1, 1.5700, 157, -0.33491498, -1.51693416, 0.56222564, -101.88771820, -24.91226196, -164.77912903, 0.00000000, 0.00000000, 0.00000000, 82.67434692, 35.26931763, 48.05121231, 1.00000000, 0.00000000, 0.00000000, 0.00000000, 0.90359318, 0.70025450, -0.65994292, 0.00000000, 0.00000000, 0.00000000, 0.00000000
1, 1.5800, 158, -0.92014194, -1.61011517, 0.74982876, -88.91359711, -40.00910950, -174.70542908, 0.00000000, 0.00000000, 0.00000000, 81.34709930, 36.90686798, 47.26705170, 1.00000000, 0.00000000, 0.00000000, 0.00000000, 1.51223826, 0.81245613, -0.86415839, 0.00000000, 0.00000000, 0.00000000, 0.00000000
1, 1.5900, 159, -0.37470630, -1.74708605, 1.11241317, -94.69866943, -30.02352524, -173.62443542, 0.00000000, 0.00000000, 0.00000000, 79.95285034, 38.57158661, 46.53514099, 1.00000000, 0.00000000, 0.00000000, 0.00000000, 0.98935950, 0.96925730, -1.24313676, 0.00000000, 0.00000000, 0.00000000, 0.00000000
1, 1.6000, 160, -1.18251991, -2.24799442, 1.07652020, -65.09510803, -26.80972481, -192.65550232, 0.00000000, 0.00000000, 0.00000000, 78.79215240, 40.41579437, 45.73360062, 1.00000000, 0.00000000, 0.00000000, 0.00000000, 1.82170451, 1.49254394, -1.22018170, 0.00000000, 0.00000000, 0.00000000, 0.00000000
1, 1.6100, 161, -0.82733297, -2.11675477, 1.17759359, -79.88211060, -49.90488815, -184.20721436, 0.00000000, 0.00000000, 0.00000000, 77.22794342, 42.11352158, 44.57527161, 1.00000000, 0.00000000, 0.00000000, 0.00000000, 1.48980820, 1.38450515, -1.33518195, 0.00000000, 0.00000000, 0.00000000, 0.00000000
1, 1.6200, 162, -0.85949659, -1.88841689, 0.82534444, -62.51209641, -92.34968567, -162.81877136, 0.00000000, 0.00000000, 0.00000000, 75.41421509, 43.47673035, 42.82780457, 1.00000000, 0.00000000, 0.00000000, 0.00000000, 1.54147744, 1.17847729, -1.00085580, 0.00000000, 0.00000000, 0.00000000, 0.00000000
1, 1.6300, 163, -0.03994520, -1.74889052, 0.09239966, -101.67742157, -126.83772278, -141.06452942, 0.00000000, 0.00000000, 0.00000000, 72.88435364, 44.46891785, 40.60992050, 1.00000000, 0.00000000, 0.00000000, 0.00000000, 0.73613405, 1.05914617, -0.29105273, 0.00000000, 0.00000000, 0.00000000, 0.00000000
1, 1.6400, 164, 1.07320082, -1.44600427, 0.53661954, -160.61441040, -127.42082214, -163.36140442, 0.00000000, 0.00000000, 0.00000000, 69.54238892, 45.60397339, 38.15613937, 1.00000000, 0.00000000, 0.00000000, 0.00000000, -0.36425936, 0.78007120, -0.76849926, 0.00000000, 0.00000000, 0.00000000, 0.00000000
1, 1.6500, 165, 0.58829570, -1.55980945, 0.46522403, -80.07692719, -144.83360291, -194.56350708, 0.00000000, 0.00000000, 0.00000000, 66.57872772, 46.86653519, 35.16158676, 1.00000000, 0.00000000, 0.00000000, 0.00000000, 0.13588315, 0.92206311, -0.72735459, 0.00000000, 0.00000000, 0.00000000, 0.00000000
1, 1.6600, 166, 0.41642669, -1.75557303, 1.10255897, -52.95749283, -94.49114227, -204.06645203, 0.00000000, 0.00000000, 0.00000000, 64.17801666, 48.32798767, 32.62581253, 1.00000000, 0.00000000, 0.00000000, 0.00000000, 0.32382643, 1.14609623, -1.38619661, 0.00000000, 0.00000000, 0.00000000, 0.00000000
1, 1.6700, 167, 0.36645669, -1.66854644, 1.09721303, -41.51685333, -35.66149902, -195.39334106, 0.00000000, 0.00000000, 0.00000000, 62.38085556, 49.91329956, 30.79643631, 1.00000000, 0.00000000, 0.00000000, 0.00000000, 0.39190143, 1.08779263, -1.39306474, 0.00000000, 0.00000000, 0.00000000, 0.00000000
1, 1.6800, 168, 0.28193814, -1.36267304, 1.03656137, -28.62924004, -5.86588192, -168.86357117, 0.00000000, 0.00000000, 0.00000000, 61.24256897, 51.35475540, 29.52491379, 1.00000000, 0.00000000, 0.00000000, 0.00000000, 0.49342802, 0.80737025, -1.33720756, 0.00000000, 0.00000000, 0.00000000, 0.00000000
1, 1.6900, 169, 0.32028043, -1.14307868, 0.77421671, -5.50194359, -23.08773422, -145.98828125, 0.00000000, 0.00000000, 0.00000000, 60.01549149, 52.51359940, 28.03687096, 1.00000000, 0.00000000, 0.00000000, 0.00000000, 0.46881434, 0.60860252, -1.07690692, 0.00000000, 0.00000000, 0.00000000, 0.00000000
1, 1.7000, 170, 0.48437044, -1.00142717, 0.45030165, 7.76655293, -57.75317383, -115.42839813, 0.00000000, 0.00000000, 0.00000000, 58.65821838, 53.21187592, 26.23859787, 1.00000000, 0.00000000, 0.00000000, 0.00000000, 0.31430170, 0.48456529, -0.75844193, 0.00000000, 0.00000000, 0.00000000, 0.00000000
1, 1.7100, 171, 0.47227350, -0.80735236, 0.50503087, 19.43003082, -114.91062164, -78.56933594, 0.00000000, 0.00000000, 0.00000000, 56.98934937, 53.26478958, 23.91407776, 1.00000000, 0.00000000, 0.00000000, 0.00000000, 0.32932058, 0.30241102, -0.82511926, 0.00000000, 0.00000000, 0.00000000, 0.00000000
1, 1.7200, 172, -0.06205980, -0.81802267, 0.62140298, 57.70145416, -138.70695496, -58.77429199, 0.00000000, 0.00000000, 0.00000000, 55.59275055, 52.98287582, 21.44758987, 1.00000000, 0.00000000, 0.00000000, 0.00000000, 0.86184525, 0.31995535, -0.95644760, 0.00000000, 0.00000000, 0.00000000, 0.00000000
1, 1.7300, 173, -0.60805154, -0.93241698, 0.25233001, 42.86476898, -144.50152588, -21.23031616, 0.00000000, 0.00000000, 0.00000000, 54.52003098, 52.11026382, 19.52415276, 1.00000000, 0.00000000, 0.00000000, 0.00000000, 1.40201735, 0.43521824, -0.60215414, 0.00000000, 0.00000000, 0.00000000, 0.00000000
1, 1.7400, 174, -0.70765007, -0.55512398, 0.18804672, -9.32144928, -147.07177734, 25.50589371, 0.00000000, 0.00000000, 0.00000000, 53.11957550, 51.03607559, 17.85649300, 1.00000000, 0.00000000, 0.00000000, 0.00000000, 1.48981225, 0.05357264, -0.55767059, 0.00000000, 0.00000000, 0.00000000, 0.00000000
1, 1.7500, 175, -0.54015005, -0.28416067, 0.17848803, 20.69466400, -131.59269714, 43.95759583, 0.00000000, 0.00000000, 0.00000000, 52.38010788, 49.88915634, 16.62981987, 1.00000000, 0.00000000, 0.00000000, 0.00000000, 1.30963695, -0.22316547, -0.56639946, 0.00000000, 0.00000000, 0.00000000, 0.00000000
1, 1.7600, 176, -0.53485972, -0.27259979, 0.09528339, 33.21986008, -78.06065369, 48.84518814, 0.00000000, 0.00000000, 0.00000000, 52.33812714, 49.02534866, 16.13819313, 1.00000000, 0.00000000, 0.00000000, 0.00000000, 1.29314089, -0.24314043, -0.49403873, 0.00000000, 0.00000000, 0.00000000, 0.00000000
1, 1.7700, 177, -0.50488704, -0.18567902, 0.10609857, 53.31969452, 2.97504044, 56.36170959, 0.00000000, 0.00000000, 0.00000000, 53.28765488, 48.59405136, 16.69200325, 1.00000000, 0.00000000, 0.00000000, 0.00000000, 1.25654721, -0.34012550, -0.50424570, 0.00000000, 0.00000000, 0.00000000, 0.00000000
1, 1.7800, 178, -0.45499483, -0.17744343, 0.14573562, 75.92424774, 55.38917160, 70.14231110, 0.00000000, 0.00000000, 0.00000000, 55.09571457, 48.26657867, 18.07299995, 1.00000000, 0.00000000, 0.00000000, 0.00000000, 1.20293415, -0.36179775, -0.53272998, 0.00000000, 0.00000000, 0.00000000, 0.00000000
1, 1.7900, 179, -0.44395921, -0.22729188, 0.16062722, 91.58871460, 91.84461975, 88.47450256, 0.00000000, 0.00000000, 0.00000000, 57.41321564, 48.04083252, 19.95454788, 1.00000000, 0.00000000, 0.00000000, 0.00000000, 1.18860531, -0.32930300, -0.52892476, 0.00000000, 0.00000000, 0.00000000, 0.00000000
1, 1.8000, 180, -0.39779413, -0.29233986, 0.15018652, 98.19754791, 124.73554230, 106.36802673, 0.00000000, 0.00000000, 0.00000000, 60.18647385, 47.77671051, 22.36839104, 1.00000000, 0.00000000, 0.00000000, 0.00000000, 1.13954294, -0.28317571, -0.49442962, 0.00000000, 0.00000000, 0.00000000, 0.00000000
1, 1.8100, 181, -0.29095212, -0.32975817, 0.16845147, 104.03607941, 147.10833740, 125.23193359, 0.00000000, 0.00000000, 0.00000000, 63.29371262, 47.37006760, 25.16781425, 1.00000000, 0.00000000, 0.00000000, 0.00000000, 1.02869689, -0.26685604, -0.48416144, 0.00000000, 0.00000000, 0.00000000, 0.00000000
1, 1.8200, 182, -0.19971859, -0.37129053, 0.20900391, 114.16841888, 146.59919739, 142.95103455, 0.00000000, 0.00000000, 0.00000000, 66.51238251, 46.69742966, 28.00507355, 1.00000000, 0.00000000, 0.00000000, 0.00000000, 0.93073833, -0.24857783, -0.49404091, 0.00000000, 0.00000000, 0.00000000, 0.00000000
1, 1.8300, 183, -0.17279124, -0.44317901, 0.20974429, 125.69361877, 145.06678772, 160.69355774, 0.00000000, 0.00000000, 0.00000000, 69.87376404, 45.69098663, 30.85771942, 1.00000000, 0.00000000, 0.00000000, 0.00000000, 0.89344883, -0.20213315, -0.46285868, 0.00000000, 0.00000000, 0.00000000, 0.00000000
1, 1.8400, 184, -0.15918171, -0.53464925, 0.19047166, 133.94750977, 153.16613770, 179.91958618, 0.00000000, 0.00000000, 0.00000000, 73.24155426, 44.46834946, 33.72121048, 1.00000000, 0.00000000, 0.00000000, 0.00000000, 0.86563814, -0.13827848, -0.40936363, 0.00000000, 0.00000000, 0.00000000, 0.00000000
1, 1.8500, 185, -0.10679484, -0.62496293, 0.19148952, 144.39532471, 161.83139038, 200.38537598, 0.00000000, 0.00000000, 0.00000000, 76.67752838, 42.95295334, 36.60247421, 1.00000000, 0.00000000, 0.00000000, 0.00000000, 0.79568070, -0.07637268, -0.37413892, 0.00000000, 0.00000000, 0.00000000, 0.00000000
1, 1.8600, 186, -0.05405883, -0.72785389, 0.20186204, 150.81027222, 160.99909973, 216.27377319, 0.00000000, 0.00000000, 0.00000000, 80.00321960, 41.15991974, 39.31437302, 1.00000000, 0.00000000, 0.00000000, 0.00000000, 0.72126204, -0.00262226, -0.34684646, 0.00000000, 0.00000000, 0.00000000, 0.00000000
1, 1.8700, 187, -0.00362094, -0.82400906, 0.18352382, 151.26492310, 158.75189209, 232.69091797, 0.00000000, 0.00000000, 0.00000000, 83.12780762, 39.09072113, 41.81372070, 1.00000000, 0.00000000, 0.00000000, 0.00000000, 0.64488429, 0.06434067, -0.29050905, 0.00000000, 0.00000000, 0.00000000, 0.00000000
1, 1.8800, 188, 0.01951293, -0.91259146, 0.16792478, 145.91059875, 151.20109558, 250.21911621, 0.00000000, 0.00000000, 0.00000000, 85.96981812, 36.69865036, 44.03475189, 1.00000000, 0.00000000, 0.00000000, 0.00000000, 0.59105265, 0.12388515, -0.23787905, 0.00000000, 0.00000000, 0.00000000, 0.00000000
1, 1.8900, 189, 0.03568218, -1.00525033, 0.13358052, 136.83587646, 133.72608948, 266.73080444, 0.00000000, 0.00000000, 0.00000000, 88.38198853, 34.10062408, 45.83366394, 1.00000000, 0.00000000, 0.00000000, 0.00000000, 0.53916901, 0.18791625, -0.16905007, 0.00000000, 0.00000000, 0.00000000, 0.00000000
1, 1.9000, 190, 0.08900282, -1.12727034, 0.08864659, 135.28417969, 108.93560028, 279.82690430, 0.00000000, 0.00000000, 0.00000000, 90.45394897, 31.31398201, 47.16165924, 1.00000000, 0.00000000, 0.00000000, 0.00000000, 0.44634742, 0.28280404, -0.09302666, 0.00000000, 0.00000000, 0.00000000, 0.00000000
1, 1.9100, 191, 0.12216251, -1.22576094, 0.08941418, 134.84887695, 95.74487305, 293.06359863, 0.00000000, 0.00000000, 0.00000000, 92.31163788, 28.36127472, 48.18298340, 1.00000000, 0.00000000, 0.00000000, 0.00000000, 0.36991829, 0.35572165, -0.06456903, 0.00000000, 0.00000000, 0.00000000, 0.00000000
1, 1.9200, 192, 0.12401170, -1.29798329, 0.12846147, 132.83303833, 82.16932678, 305.16015625, 0.00000000, 0.00000000, 0.00000000, 93.97129059, 25.26963234, 48.91463852, 1.00000000, 0.00000000, 0.00000000, 0.00000000, 0.32117486, 0.40424639, -0.07590729, 0.00000000, 0.00000000, 0.00000000, 0.00000000
1, 1.9300, 193, 0.11466164, -1.40145051, 0.17735052, 135.70297241, 63.03721619, 315.27645874, 0.00000000, 0.00000000, 0.00000000, 95.49262238, 22.05505753, 49.32089996, 1.00000000, 0.00000000, 0.00000000, 0.00000000, 0.28046525, 0.48638827, -0.09834973, 0.00000000, 0.00000000, 0.00000000, 0.00000000
1, 1.9400, 194, 0.09729930, -1.56928027, 0.18283728, 140.19218445, 52.94515610, 324.27206421, 0.00000000, 0.00000000, 0.00000000, 96.95986938, 18.77417374, 49.50716019, 1.00000000, 0.00000000, 0.00000000, 0.00000000, 0.24485216, 0.63567609, -0.07789554, 0.00000000, 0.00000000, 0.00000000, 0.00000000
1, 1.9500, 195, 0.18325180, -1.70304668, 0.21584380, 143.79632568, 53.49479675, 329.78164673, 0.00000000, 0.00000000, 0.00000000, 98.42572021, 15.43465137, 49.60019684, 1.00000000, 0.00000000, 0.00000000, 0.00000000, 0.10389037, 0.75435638, -0.08460761, 0.00000000, 0.00000000, 0.00000000, 0.00000000
1, 1.9600, 196, 0.34174073, -1.86473989, 0.21569094, 151.83190918, 46.68136215, 331.09045410, 0.00000000, 0.00000000, 0.00000000, 99.92848969, 12.09205341, 49.53129196, 1.00000000, 0.00000000, 0.00000000, 0.00000000, -0.11096439, 0.90486395, -0.05737669, 0.00000000, 0.00000000, 0.00000000, 0.00000000
1, 1.9700, 197, 0.53734708, -2.05027509, 0.19041978, 156.07843018, 34.09281540, 332.25497437, 0.00000000, 0.00000000, 0.00000000, 101.43858337, 8.76426983, 49.24608994, 1.00000000, 0.00000000, 0.00000000, 0.00000000, -0.36355320, 1.08331847, -0.00474699, 0.00000000, 0.00000000, 0.00000000, 0.00000000
1, 1.9800, 198, 0.73267460, -2.34656143, 0.22437847, 166.05218506, 35.42024612, 329.19122314, 0.00000000, 0.00000000, 0.00000000, 103.05197906, 5.47653103, 48.89300919, 1.00000000, 0.00000000, 0.00000000, 0.00000000, -0.61591184, 1.37687039, -0.01049290, 0.00000000, 0.00000000, 0.00000000, 0.00000000
1, 1.9900, 199, 0.91738766, -2.64530778, 0.20512998, 172.32575989, 51.94206238, 325.58187866, 0.00000000, 0.00000000, 0.00000000, 104.75642395, 2.19118118, 48.61418533, 1.00000000, 0.00000000, 0.00000000, 0.00000000, -0.85769486, 1.67739856, 0.03830887, 0.00000000, 0.00000000, 0.00000000, 0.00000000
1, 2.0000, 200, 0.92532688, -2.46645927, -0.02802338, 152.95599365, 57.83913803, 326.86843872, 0.00000000, 0.00000000, 0.00000000, 106.28317261, -1.11288393, 48.29555511, 1.00000000, 0.00000000, 0.00000000, 0.00000000, -0.92305434, 1.50406671, 0.29909781, 0.00000000, 0.00000000, 0.00000000, 0.00000000
1, 2.0100, 201, 0.74404645, -2.13856649, -0.25350088, 152.34622192, 78.65280914, 315.41433716, 0.00000000, 0.00000000, 0.00000000, 107.81279755, -4.36006927, 48.12397766, 1.00000000, 0.00000000, 0.00000000, 0.00000000, -0.79910278, 1.18500102, 0.54909825, 0.00000000, 0.00000000, 0.00000000, 0.00000000
1, 2.0200, 202, 0.91197485, -2.36712241, -0.28006473, 150.43348694, 130.21003723, 275.92001343, 0.00000000, 0.00000000, 0.00000000, 109.27788544, -7.39151907, 48.48207474, 1.00000000, 0.00000000, 0.00000000, 0.00000000, -1.02137184, 1.42605102, 0.59968746, 0.00000000, 0.00000000, 0.00000000, 0.00000000
1, 2.0300, 203, 1.53401780, -2.38290191, -0.23875153, 119.67368317, 151.01840210, 240.52853394, 0.00000000, 0.00000000, 0.00000000, 110.37559509, -10.15399456, 49.09561539, 1.00000000, 0.00000000, 0.00000000, 0.00000000, -1.69279563, 1.45517516, 0.57625532, 0.00000000, 0.00000000, 0.00000000, 0.00000000
1, 2.0400, 204, 2.05996943, -2.22439384, -0.03896793, 112.70613861, 149.18681335, 224.82548523, 0.00000000, 0.00000000, 0.00000000, 111.38345337, -12.78566647, 49.70096970, 1.00000000, 0.00000000, 0.00000000, 0.00000000, -2.26471066, 1.31063604, 0.38959718, 0.00000000, 0.00000000, 0.00000000, 0.00000000
1, 2.0500, 205, 2.25718498, -1.66297472, -0.13746637, 71.77692413, 105.29794312, 213.74955750, 0.00000000, 0.00000000, 0.00000000, 112.05614471, -15.16080856, 49.89274597, 1.00000000, 0.00000000, 0.00000000, 0.00000000, -2.50405598, 0.76347691, 0.49777138, 0.00000000, 0.00000000, 0.00000000, 0.00000000
1, 2.0600, 206, 2.59424829, -1.27374434, -0.23925570, 98.40750885, 68.56367493, 183.88946533, 0.00000000, 0.00000000, 0.00000000, 113.06055450, -17.12208366, 49.81988144, 1.00000000, 0.00000000, 0.00000000, 0.00000000, -2.87706041, 0.38852131, 0.60842472, 0.00000000, 0.00000000, 0.00000000, 0.00000000
1, 2.0700, 207, 2.87802362, -1.39463234, -0.52084750, 87.96980286, 41.97589111, 120.98677063, 0.00000000, 0.00000000, 0.00000000, 113.97196960, -18.39870834, 49.71705246, 1.00000000, 0.00000000, 0.00000000, 0.00000000, -3.18678570, 0.52356058, 0.90275282, 0.00000000, 0.00000000, 0.00000000, 0.00000000
1, 2.0800, 208, 2.97401071, -1.19152951, -0.75892603, 42.80620193, -10.90990067, 52.54687500, 0.00000000, 0.00000000, 0.00000000, 114.50075531, -18.81985664, 49.38893127, 1.00000000, 0.00000000, 0.00000000, 0.00000000, -3.29516363, 0.32850322, 1.14884710, 0.00000000, 0.00000000, 0.00000000, 0.00000000
1, 2.0900, 209, 2.72893429, -1.55778551, -0.75702196, 17.23914719, -41.69511795, -23.71195030, 0.00000000, 0.00000000, 0.00000000, 114.76788330, -18.43035316, 49.09389496, 1.00000000, 0.00000000, 0.00000000, 0.00000000, -3.04861259, 0.69714713, 1.15338087, 0.00000000, 0.00000000, 0.00000000, 0.00000000
1, 2.1000, 210, 2.16535640, -1.66565204, -0.83285135, -37.14900208, -31.32846832, -92.34318542, 0.00000000, 0.00000000, 0.00000000, 114.36492920, -17.46001625, 49.19816971, 1.00000000, 0.00000000, 0.00000000, 0.00000000, -2.47211170, 0.79997993, 1.22842860, 0.00000000, 0.00000000, 0.00000000, 0.00000000
1, 2.1100, 211, 1.78070951, -1.59793520, -0.74604559, -69.68139648, 3.80683374, -145.27069092, 0.00000000, 0.00000000, 0.00000000, 113.48005676, -16.14751816, 49.85045624, 1.00000000, 0.00000000, 0.00000000, 0.00000000, -2.06743312, 0.72181129, 1.13351583, 0.00000000, 0.00000000, 0.00000000, 0.00000000
1, 2.1200, 212, 0.76455981, -1.30829394, 0.28448790, -88.63314819, 43.54439926, -194.44282532, 0.00000000, 0.00000000, 0.00000000, 112.27828979, -14.52392292, 51.04968262, 1.00000000, 0.00000000, 0.00000000, 0.00000000, -1.02590489, 0.41808483, 0.08851130, 0.00000000, 0.00000000, 0.00000000, 0.00000000
1, 2.1300, 213, -3.28631639, -1.52309346, 2.89469552, -48.93492508, 200.67349243, -231.31193542, 0.00000000, 0.00000000, 0.00000000, 111.12787628, -13.11386395, 53.84872818, 1.00000000, 0.00000000, 0.00000000, 0.00000000, 3.05137444, 0.61884087, -2.53824353, 0.00000000, 0.00000000, 0.00000000, 0.00000000
1, 2.1400, 214, -3.08040047, -3.58412409, -1.23688090, 28.29453468, -29.39079666, -102.44839478, 0.00000000, 0.00000000, 0.00000000, 111.38013458, -12.04882622, 53.95145035, 1.00000000, 0.00000000, 0.00000000, 0.00000000, 2.86479998, 2.67456746, 1.59211242, 0.00000000, 0.00000000, 0.00000000, 0.00000000
1, 2.1500, 215, 0.30445054, -1.73989713, -0.95408177, -334.53628540, 20.62613678, -76.29633331, 0.00000000, 0.00000000, 0.00000000, 107.94306183, -11.38969994, 54.40983582, 1.00000000, 0.00000000, 0.00000000, 0.00000000, -0.50680339, 0.81569183, 1.27744389, 0.00000000, 0.00000000, 0.00000000, 0.00000000
1, 2.1600, 216, 1.35648477, -2.13182521, -0.08146542, -58.32447052, 73.02954865, -226.75213623, 0.00000000, 0.00000000, 0.00000000, 107.10892487, -9.44308949, 55.80638123, 1.00000000, 0.00000000, 0.00000000, 0.00000000, -1.53394592, 1.19218254, 0.37381887, 0.00000000, 0.00000000, 0.00000000, 0.00000000
1, 2.1700, 217, 0.61714965, -1.24761319, 0.65834516, -177.71002197, 142.96882629, -216.53923035, 0.00000000, 0.00000000, 0.00000000, 105.03350067, -7.76207733, 57.80651474, 1.00000000, 0.00000000, 0.00000000, 0.00000000, -0.76280826, 0.29641020, -0.38668299, 0.00000000, 0.00000000, 0.00000000, 0.00000000
1, 2.1800, 218, 1.08935535, -0.20191394, -0.01130444, -28.54850960, 133.71575928, -218.89398193, 0.00000000, 0.00000000, 0.00000000, 104.49195862, -5.90959883, 59.69027328, 1.00000000, 0.00000000, 0.00000000, 0.00000000, -1.20510912, -0.76010317, 0.25834799, 0.00000000, 0.00000000, 0.00000000, 0.00000000
1, 2.1900, 219, 2.05544734, -1.34570515, -0.14614165, 81.35648346, 8.66041374, -216.18379211, 0.00000000, 0.00000000, 0.00000000, 105.25086975, -3.84288049, 60.33292770, 1.00000000, 0.00000000, 0.00000000, 0.00000000, -2.13633347, 0.38303214, 0.40421456, 0.00000000, 0.00000000, 0.00000000, 0.00000000
1, 2.2000, 220, 0.78956461, -1.87246692, 0.54893678, 34.73339081, 54.53487015, -258.24270630, 0.00000000, 0.00000000, 0.00000000, 105.54182434, -1.49866855, 61.54703522, 1.00000000, 0.00000000, 0.00000000, 0.00000000, -0.83113241, 0.90957117, -0.28253716, 0.00000000, 0.00000000, 0.00000000, 0.00000000
1, 2.2100, 221, 0.02643779, -1.30657339, -0.02665486, -38.08722305, 65.54838562, -197.53195190, 0.00000000, 0.00000000, 0.00000000, 105.14923096, 0.23137680, 62.70438766, 1.00000000, 0.00000000, 0.00000000, 0.00000000, -0.03217497, 0.34231585, 0.29143435, 0.00000000, 0.00000000, 0.00000000, 0.00000000
1, 2.2200, 222, 0.06291141, -0.41235462, 0.02323774, 8.28784180, -25.49587440, -126.49893188, 0.00000000, 0.00000000, 0.00000000, 105.23078918, 1.51929796, 62.78780746, 1.00000000, 0.00000000, 0.00000000, 0.00000000, -0.04509719, -0.55289149, 0.23741506, 0.00000000, 0.00000000, 0.00000000, 0.00000000
1, 2.2300, 223, 0.51851511, -0.75399286, 0.47435561, 7.29508018, -80.93237305, -110.11367035, 0.00000000, 0.00000000, 0.00000000, 105.34130096, 2.89927840, 62.25031662, 1.00000000, 0.00000000, 0.00000000, 0.00000000, -0.47726986, -0.20950677, -0.20992714, 0.00000000, 0.00000000, 0.00000000, 0.00000000
1, 2.2400, 224, 0.45018095, -0.67251760, 0.40144029, -46.56421280, -53.74160767, -94.10211182, 0.00000000, 0.00000000, 0.00000000, 104.85898590, 3.94768810, 61.97617340, 1.00000000, 0.00000000, 0.00000000, 0.00000000, -0.38814437, -0.29133612, -0.14239213, 0.00000000, 0.00000000, 0.00000000, 0.00000000
1, 2.2500, 225, 0.55621988, -0.85703373, 0.30280316, -11.14516926, -86.35639954, -99.88990021, 0.00000000, 0.00000000, 0.00000000, 104.70100403, 5.13349962, 61.39356613, 1.00000000, 0.00000000, 0.00000000, 0.00000000, -0.47464266, -0.10684387, -0.04932681, 0.00000000, 0.00000000, 0.00000000, 0.00000000
1, 2.2600, 226, 0.32747275, -1.17407513, 0.08774559, -13.21987343, -82.31178284, -90.34976959, 0.00000000, 0.00000000, 0.00000000, 104.51242065, 6.21556187, 60.82243347, 1.00000000, 0.00000000, 0.00000000, 0.00000000, -0.22588715, 0.21137270, 0.16296813, 0.00000000, 0.00000000, 0.00000000, 0.00000000
1, 2.2700, 227, -0.00284406, -1.08231461, 0.25469479, -14.92713451, -76.78607178, -74.39199829, 0.00000000, 0.00000000, 0.00000000, 104.29776764, 7.12701750, 60.25980759, 1.00000000, 0.00000000, 0.00000000, 0.00000000, 0.12111190, 0.12039413, -0.00831834, 0.00000000, 0.00000000, 0.00000000, 0.00000000
1, 2.2800, 228, 0.18504567, -1.17049634, 0.29905993, -12.68300152, -56.88763809, -68.02517700, 0.00000000, 0.00000000, 0.00000000, 104.12918854, 7.93658972, 59.86494827, 1.00000000, 0.00000000, 0.00000000, 0.00000000, -0.05217633, 0.20961700, -0.05607741, 0.00000000, 0.00000000, 0.00000000, 0.00000000
1, 2.2900, 229, 0.09104943, -1.28151047, 0.23602128, -9.32534599, -49.17399979, -70.09272766, 0.00000000, 0.00000000, 0.00000000, 103.99100494, 8.73597431, 59.55493164, 1.00000000, 0.00000000, 0.00000000, 0.00000000, 0.05562120, 0.32189208, 0.00398755, 0.00000000, 0.00000000, 0.00000000, 0.00000000
1, 2.3000, 230, -0.03314626, -1.20626056, 0.11283688, -16.68836403, -44.56007385, -62.89605331, 0.00000000, 0.00000000, 0.00000000, 103.77902222, 9.45353031, 59.26981354, 1.00000000, 0.00000000, 0.00000000, 0.00000000, 0.19299833, 0.24788383, 0.12369765, 0.00000000, 0.00000000, 0.00000000, 0.00000000
1, 2.3100, 231, -0.01379119, -0.97017938, 0.11405923, -12.05875206, -33.99915314, -49.30136490, 0.00000000, 0.00000000, 0.00000000, 103.62185669, 10.01304150, 59.05309296, 1.00000000, 0.00000000, 0.00000000, 0.00000000, 0.18421495, 0.01273045, 0.11883548, 0.00000000, 0.00000000, 0.00000000, 0.00000000
1, 2.3200, 232, 0.07989636, -0.89888811, 0.17436546, -7.37540293, -20.28419113, -48.74201965, 0.00000000, 0.00000000, 0.00000000, 103.53319550, 10.53447151, 58.96897888, 1.00000000, 0.00000000, 0.00000000, 0.00000000, 0.09951704, -0.05744858, 0.05633832, 0.00000000, 0.00000000, 0.00000000, 0.00000000
1, 2.3300, 233, 0.07052193, -0.98337770, 0.22571968, -7.94671345, -8.53007030, -56.73355865, 0.00000000, 0.00000000, 0.00000000, 103.46456146, 11.05462646, 59.02244568, 1.00000000, 0.00000000, 0.00000000, 0.00000000, 0.11816595, 0.02845232, 0.00342640, 0.00000000, 0.00000000, 0.00000000, 0.00000000
1, 2.3400, 234, 0.23064253, -1.06850386, 0.31532356, -13.66488647, -11.30954552, -56.92382812, 0.00000000, 0.00000000, 0.00000000, 103.33220673, 11.63455868, 59.04476547, 1.00000000, 0.00000000, 0.00000000, 0.00000000, -0.03268296, 0.11491579, -0.08844627, 0.00000000, 0.00000000, 0.00000000, 0.00000000
1, 2.3500, 235, 0.47069576, -1.09977925, 0.36634883, -12.84462261, -28.43400192, -49.19114304, 0.00000000, 0.00000000, 0.00000000, 103.16893768, 12.17849064, 58.87714386, 1.00000000, 0.00000000, 0.00000000, 0.00000000, -0.26320672, 0.14753212, -0.14237076, 0.00000000, 0.00000000, 0.00000000, 0.00000000
1, 2.3600, 236, 0.49944752, -1.08783615, 0.34583122, -11.06045055, -51.53283691, -41.92565918, 0.00000000, 0.00000000, 0.00000000, 102.96835327, 12.70338345, 58.46017075, 1.00000000, 0.00000000, 0.00000000, 0.00000000, -0.28289783, 0.13676518, -0.12546146, 0.00000000, 0.00000000, 0.00000000, 0.00000000
1, 2.3700, 237, 0.21912837, -1.05979359, 0.29809180, -11.32366371, -60.73600388, -39.31856918, 0.00000000, 0.00000000, 0.00000000, 102.73892975, 13.22185230, 57.94232559, 1.00000000, 0.00000000, 0.00000000, 0.00000000, 0.00631153, 0.10985410, -0.08179478, 0.00000000, 0.00000000, 0.00000000, 0.00000000
1, 2.3800, 238, 0.11995326, -1.00429106, 0.26637286, -12.95519447, -58.34877014, -36.54059219, 0.00000000, 0.00000000, 0.00000000, 102.52082062, 13.64895439, 57.42726135, 1.00000000, 0.00000000, 0.00000000, 0.00000000, 0.11371513, 0.05536591, -0.05439417, 0.00000000, 0.00000000, 0.00000000, 0.00000000
1, 2.3900, 239, 0.12947333, -0.93699205, 0.30883995, -14.66381836, -48.29337311, -36.45362854, 0.00000000, 0.00000000, 0.00000000, 102.27703094, 14.10871220, 57.02203369, 1.00000000, 0.00000000, 0.00000000, 0.00000000, 0.11139004, -0.01104443, -0.10098073, 0.00000000, 0.00000000, 0.00000000, 0.00000000
1, 2.4000, 240, 0.22211814, -0.89318049, 0.25069979, -13.22660923, -42.92568970, -37.89536667, 0.00000000, 0.00000000, 0.00000000, 102.05792236, 14.56961346, 56.67134857, 1.00000000, 0.00000000, 0.00000000, 0.00000000, 0.02648565, -0.05376333, -0.04701546, 0.00000000, 0.00000000, 0.00000000, 0.00000000
1, 2.4100, 241, 0.20099470, -0.92068708, 0.21713230, -12.53703785, -38.50239563, -42.03395462, 0.00000000, 0.00000000, 0.00000000, 101.85597992, 15.06061363, 56.37179565, 1.00000000, 0.00000000, 0.00000000, 0.00000000, 0.05569780, -0.02492422, -0.01732860, 0.00000000, 0.00000000, 0.00000000, 0.00000000
1, 2.4200, 242, 0.09439670, -0.99486965, 0.13335767, -13.88632298, -39.07849884, -43.07418442, 0.00000000, 0.00000000, 0.00000000, 101.63642883, 15.56193924, 56.06609726, 1.00000000, 0.00000000, 0.00000000, 0.00000000, 0.17073627, 0.05078033, 0.06258304, 0.00000000, 0.00000000, 0.00000000, 0.00000000
1, 2.4300, 243, 0.17964759, -0.98214847, 0.14967132, -16.76119804, -33.20633698, -42.39229584, 0.00000000, 0.00000000, 0.00000000, 101.37694550, 15.99648094, 55.83505249, 1.00000000, 0.00000000, 0.00000000, 0.00000000, 0.09353568, 0.03943640, 0.04179407, 0.00000000, 0.00000000, 0.00000000, 0.00000000
1, 2.4400, 244, 0.18866141, -0.96287268, 0.16704112, -16.02752113, -25.49953842, -42.53790665, 0.00000000, 0.00000000, 0.00000000, 101.16814423, 16.46352386, 55.66120529, 1.00000000, 0.00000000, 0.00000000, 0.00000000, 0.09180790, 0.02143896, 0.02013086, 0.00000000, 0.00000000, 0.00000000, 0.00000000
1, 2.4500, 245, 0.19588353, -0.95091379, 0.21642052, -15.81735516, -20.52804565, -44.19678116, 0.00000000, 0.00000000, 0.00000000, 100.97501373, 16.93669319, 55.53947067, 1.00000000, 0.00000000, 0.00000000, 0.00000000, 0.09245542, 0.01112631, -0.03297028, 0.00000000, 0.00000000, 0.00000000, 0.00000000
1, 2.4600, 246, 0.24605723, -0.96491224, 0.22383535, -16.51703835, -19.55611038, -43.02182007, 0.00000000, 0.00000000, 0.00000000, 100.77556610, 17.39608192, 55.42345047, 1.00000000, 0.00000000, 0.00000000, 0.00000000, 0.05009397, 0.02686282, -0.04396925, 0.00000000, 0.00000000, 0.00000000, 0.00000000
1, 2.4700, 247, 0.36637324, -0.95710194, 0.21608299, -17.41378975, -22.84817314, -40.94975662, 0.00000000, 0.00000000, 0.00000000, 100.55416870, 17.84078217, 55.26735687, 1.00000000, 0.00000000, 0.00000000, 0.00000000, -0.06277228, 0.02067544, -0.04022469, 0.00000000, 0.00000000, 0.00000000, 0.00000000
1, 2.4800, 248, 0.33858585, -0.94704729, 0.24312310, -17.49305534, -25.22356987, -41.06428528, 0.00000000, 0.00000000, 0.00000000, 100.37049866, 18.27618027, 55.06229019, 1.00000000, 0.00000000, 0.00000000, 0.00000000, -0.02763312, 0.01230642, -0.07118489, 0.00000000, 0.00000000, 0.00000000, 0.00000000
1, 2.4900, 249, 0.25411004, -0.95843434, 0.28238416, -15.46437550, -26.84176254, -40.21572876, 0.00000000, 0.00000000, 0.00000000, 100.15145111, 18.71971130, 54.85931396, 1.00000000, 0.00000000, 0.00000000, 0.00000000, 0.06411423, 0.02550665, -0.11393937, 0.00000000, 0.00000000, 0.00000000, 0.00000000
1, 2.5000, 250, 0.35869202, -0.95116132, 0.26375794, -16.64120674, -31.88606453, -36.88346481, 0.00000000, 0.00000000, 0.00000000, 99.89932251, 19.13839340, 54.59523392, 1.00000000, 0.00000000, 0.00000000, 0.00000000, -0.03341839, 0.01989713, -0.09962863, 0.00000000, 0.00000000, 0.00000000, 0.00000000
1, 2.5100, 251, 0.24742833, -0.95536995, 0.22681664, -15.80460548, -36.89868164, -35.65785980, 0.00000000, 0.00000000, 0.00000000, 99.63481140, 19.55240631, 54.27396393, 1.00000000, 0.00000000, 0.00000000, 0.00000000, 0.08472323, 0.02573691, -0.06727871, 0.00000000, 0.00000000, 0.00000000, 0.00000000
1, 2.5200, 252, 0.24797395, -0.94713610, 0.20069005, -19.66493416, -42.04778671, -34.91884995, 0.00000000, 0.00000000, 0.00000000, 99.30981445, 19.96602821, 53.89434433, 1.00000000, 0.00000000, 0.00000000, 0.00000000, 0.09089023, 0.01903282, -0.04645409, 0.00000000, 0.00000000, 0.00000000, 0.00000000
1, 2.5300, 253, 0.13904205, -0.95238352, 0.18822435, -21.62627602, -44.35611725, -38.68437576, 0.00000000, 0.00000000, 0.00000000, 98.96395874, 20.32720375, 53.50395203, 1.00000000, 0.00000000, 0.00000000, 0.00000000, 0.20662710, 0.02582704, -0.03989995, 0.00000000, 0.00000000, 0.00000000, 0.00000000
1, 2.5400, 254, 0.18195128, -0.95901209, 0.16998550, -25.27250481, -42.66322327, -42.38211060, 0.00000000, 0.00000000, 0.00000000, 98.57728577, 20.81114960, 53.12262344, 1.00000000, 0.00000000, 0.00000000, 0.00000000, 0.17032826, 0.03394973, -0.02803512, 0.00000000, 0.00000000, 0.00000000, 0.00000000
1, 2.5500, 255, 0.13959931, -1.00389218, 0.15928589, -28.15877914, -43.49275970, -48.00878906, 0.00000000, 0.00000000, 0.00000000, 98.15679932, 21.34943199, 52.73635101, 1.00000000, 0.00000000, 0.00000000, 0.00000000, 0.22109008, 0.08102860, -0.02432236, 0.00000000, 0.00000000, 0.00000000, 0.00000000
1, 2.5600, 256, 0.04448774, -1.04514909, 0.19543751, -35.05998611, -40.40821075, -52.61273193, 0.00000000, 0.00000000, 0.00000000, 97.67620850, 21.92623901, 52.38376999, 1.00000000, 0.00000000, 0.00000000, 0.00000000, 0.32539758, 0.12480943, -0.06836777, 0.00000000, 0.00000000, 0.00000000, 0.00000000
1, 2.5700, 257, 0.17583030, -1.11036599, 0.23777319, -39.27249146, -39.22576904, -55.94205856, 0.00000000, 0.00000000, 0.00000000, 97.15403748, 22.53164482, 52.04155731, 1.00000000, 0.00000000, 0.00000000, 0.00000000, 0.20361081, 0.19276856, -0.11934733, 0.00000000, 0.00000000, 0.00000000, 0.00000000
1, 2.5800, 258, 0.06252421, -1.21889710, 0.34671402, -46.43607712, -35.53406143, -63.26549911, 0.00000000, 0.00000000, 0.00000000, 96.61567688, 23.13126373, 51.73761749, 1.00000000, 0.00000000, 0.00000000, 0.00000000, 0.32709390, 0.30443257, -0.23745365, 0.00000000, 0.00000000, 0.00000000, 0.00000000
1, 2.5900, 259, 0.13877128, -1.29152548, 0.36842981, -59.59016037, -39.96153641, -65.95656586, 0.00000000, 0.00000000, 0.00000000, 95.87837982, 23.83040428, 51.38279343, 1.00000000, 0.00000000, 0.00000000, 0.00000000, 0.26103806, 0.38023168, -0.27007669, 0.00000000, 0.00000000, 0.00000000, 0.00000000
1, 2.6000, 260, 0.14982423, -1.32651782, 0.37942916, -63.31193161, -41.60628128, -69.23773956, 0.00000000, 0.00000000, 0.00000000, 95.08883667, 24.55933762, 51.00130463, 1.00000000, 0.00000000, 0.00000000, 0.00000000, 0.26138800, 0.41903001, -0.29372913, 0.00000000, 0.00000000, 0.00000000, 0.00000000
1, 2.6100, 261, 0.14754111, -1.33692896, 0.42401561, -72.87846375, -47.32950974, -74.66535950, 0.00000000, 0.00000000, 0.00000000, 94.16852570, 25.34168243, 50.54736710, 1.00000000, 0.00000000, 0.00000000, 0.00000000, 0.27575615, 0.43376976, -0.35266376, 0.00000000, 0.00000000, 0.00000000, 0.00000000
1, 2.6200, 262, 0.06811576, -1.37711477, 0.48933095, -74.30464935, -48.61026382, -81.26018524, 0.00000000, 0.00000000, 0.00000000, 93.21661377, 26.18391037, 50.06677628, 1.00000000, 0.00000000, 0.00000000, 0.00000000, 0.36808765, 0.47903758, -0.43321291, 0.00000000, 0.00000000, 0.00000000, 0.00000000
1, 2.6300, 263, 0.05978023, -1.37614477, 0.50472850, -78.17919159, -51.69855499, -85.55394745, 0.00000000, 0.00000000, 0.00000000, 92.24560547, 27.01477623, 49.53044510, 1.00000000, 0.00000000, 0.00000000, 0.00000000, 0.38982508, 0.48385370, -0.46425927, 0.00000000, 0.00000000, 0.00000000, 0.00000000
1, 2.6400, 264, -0.01172388, -1.34403503, 0.46496961, -81.96774292, -54.64819336, -94.20443726, 0.00000000, 0.00000000, 0.00000000, 91.15612793, 27.97258568, 48.94611359, 1.00000000, 0.00000000, 0.00000000, 0.00000000, 0.47510490, 0.45823497, -0.44064939, 0.00000000, 0.00000000, 0.00000000, 0.00000000
1, 2.6500, 265, -0.11530167, -1.31330419, 0.43320519, -86.88663483, -55.07476425, -104.59626007, 0.00000000, 0.00000000, 0.00000000, 89.99399567, 29.02407837, 48.33134842, 1.00000000, 0.00000000, 0.00000000, 0.00000000, 0.59433079, 0.43555993, -0.42653966, 0.00000000, 0.00000000, 0.00000000, 0.00000000
1, 2.6600, 266, -0.20701495, -1.32989633, 0.34343773, -90.39402771, -50.54763412, -115.97940826, 0.00000000, 0.00000000, 0.00000000, 88.79610443, 30.17860031, 47.73591614, 1.00000000, 0.00000000, 0.00000000, 0.00000000, 0.70303136, 0.46169111, -0.35480267, 0.00000000, 0.00000000, 0.00000000, 0.00000000
1, 2.6700, 267, -0.24510151, -1.38986683, 0.30242005, -96.77576447, -40.37936020, -129.69323730, 0.00000000, 0.00000000, 0.00000000, 87.56316376, 31.46222878, 47.21786880, 1.00000000, 0.00000000, 0.00000000, 0.00000000, 0.75968003, 0.53297067, -0.33193028, 0.00000000, 0.00000000, 0.00000000, 0.00000000
1, 2.6800, 268, -0.27131692, -1.48984122, 0.31300235, -101.21165466, -31.19074059, -145.15736389, 0.00000000, 0.00000000, 0.00000000, 86.33749390, 32.83273315, 46.77021408, 1.00000000, 0.00000000, 0.00000000, 0.00000000, 0.80611217, 0.64622688, -0.36030793, 0.00000000, 0.00000000, 0.00000000, 0.00000000
1, 2.6900, 269, -0.31414217, -1.56672060, 0.35406610, -102.39761353, -30.00065422, -159.05816650, 0.00000000, 0.00000000, 0.00000000, 85.03493500, 34.39617157, 46.26729965, 1.00000000, 0.00000000, 0.00000000, 0.00000000, 0.87049824, 0.73835278, -0.41877842, 0.00000000, 0.00000000, 0.00000000, 0.00000000
1, 2.7000, 270, -0.69406074, -1.63283670, 0.55874151, -94.64710999, -35.51390839, -171.58990479, 0.00000000, 0.00000000, 0.00000000, 83.71912384, 36.06857300, 45.62805557, 1.00000000, 0.00000000, 0.00000000, 0.00000000, 1.27376819, 0.82221729, -0.64084041, 0.00000000, 0.00000000, 0.00000000, 0.00000000
1, 2.7100, 271, -0.42200029, -1.81014705, 0.56852847, -95.34248352, -35.35165787, -169.72459412, 0.00000000, 0.00000000, 0.00000000, 82.34973907, 37.71148300, 44.93322372, 1.00000000, 0.00000000, 0.00000000, 0.00000000, 1.02523279, 1.01881361, -0.66757584, 0.00000000, 0.00000000, 0.00000000, 0.00000000
1, 2.7200, 272, -0.79701394, -2.03793716, 0.91188484, -83.13215637, -10.12491703, -192.53552246, 0.00000000, 0.00000000, 0.00000000, 81.21537781, 39.60181427, 44.44921112, 1.00000000, 0.00000000, 0.00000000, 0.00000000, 1.42443502, 1.26767492, -1.02560067, 0.00000000, 0.00000000, 0.00000000, 0.00000000
1, 2.7300, 273, -1.20475864, -2.23570180, 0.93993831, -64.48323822, -26.86382866, -184.98149109, 0.00000000, 0.00000000, 0.00000000, 80.11046600, 41.36313629, 43.71523666, 1.00000000, 0.00000000, 0.00000000, 0.00000000, 1.85730481, 1.48827910, -1.06425667, 0.00000000, 0.00000000, 0.00000000, 0.00000000
1, 2.7400, 274, -0.68361765, -1.91426086, 0.89450502, -82.57789612, -49.25891113, -168.41732788, 0.00000000, 0.00000000, 0.00000000, 78.56307220, 42.92637253, 42.64173126, 1.00000000, 0.00000000, 0.00000000, 0.00000000, 1.35744345, 1.18861794, -1.03347671, 0.00000000, 0.00000000, 0.00000000, 0.00000000
1, 2.7500, 275, -1.02475119, -1.82003307, 0.52003986, -50.96879578, -83.93027496, -144.92414856, 0.00000000, 0.00000000, 0.00000000, 76.98119354, 44.16486740, 41.08680725, 1.00000000, 0.00000000, 0.00000000, 0.00000000, 1.71594357, 1.11427224, -0.67524618, 0.00000000, 0.00000000, 0.00000000, 0.00000000
1, 2.7600, 276, 0.15254010, -1.74883008, -0.06823725, -103.68462372, -116.88564301, -134.48295593, 0.00000000, 0.00000000, 0.00000000, 74.49741364, 45.18180466, 39.02981567, 1.00000000, 0.00000000, 0.00000000, 0.00000000, 0.55216181, 1.06186700, -0.10887223, 0.00000000, 0.00000000, 0.00000000, 0.00000000
1, 2.7700, 277, 0.80718428, -1.55267513, 0.31179929, -159.03021240, -113.34345245, -169.58456421, 0.00000000, 0.00000000, 0.00000000, 71.27794647, 46.46888733, 36.75706482, 1.00000000, 0.00000000, 0.00000000, 0.00000000, -0.08843784, 0.88977182, -0.52108765, 0.00000000, 0.00000000, 0.00000000, 0.00000000
1, 2.7800, 278, 0.32810396, -1.69771397, 0.57905805, -106.03623199, -82.84992981, -182.47306824, 0.00000000, 0.00000000, 0.00000000, 68.75489044, 47.88527679, 34.71035767, 1.00000000, 0.00000000, 0.00000000, 0.00000000, 0.40748268, 1.06280053, -0.81503963, 0.00000000, 0.00000000, 0.00000000, 0.00000000
1, 2.7900, 279, 0.54572445, -1.89842057, 1.05127323, -73.46107483, -42.50535202, -187.17340088, 0.00000000, 0.00000000, 0.00000000, 66.76642609, 49.45653152, 33.04058456, 1.00000000, 0.00000000, 0.00000000, 0.00000000, 0.20736718, 1.29066932, -1.30305135, 0.00000000, 0.00000000, 0.00000000, 0.00000000
1, 2.8000, 280, 0.61214495, -1.91681314, 1.11196971, -57.13268280, -28.10476875, -182.53121948, 0.00000000, 0.00000000, 0.00000000, 64.99114227, 51.00805283, 31.47395325, 1.00000000, 0.00000000, 0.00000000, 0.00000000, 0.15869327, 1.33646238, -1.37448561, 0.00000000, 0.00000000, 0.00000000, 0.00000000
1, 2.8100, 281, 0.62244725, -1.62209785, 1.19265759, -59.20725632, -16.27770233, -171.09693909, 0.00000000, 0.00000000, 0.00000000, 63.26608276, 52.47643280, 30.03100967, 1.00000000, 0.00000000, 0.00000000, 0.00000000, 0.16480240, 1.06842649, -1.46396792, 0.00000000, 0.00000000, 0.00000000, 0.00000000
1, 2.8200, 282, 0.46418798, -1.35917270, 0.90633863, -24.58786011, -1.11657083, -154.92770386, 0.00000000, 0.00000000, 0.00000000, 62.05662155, 53.84733963, 28.82676506, 1.00000000, 0.00000000, 0.00000000, 0.00000000, 0.33806166, 0.82983994, -1.18228757, 0.00000000, 0.00000000, 0.00000000, 0.00000000
1, 2.8300, 283, 0.26083812, -1.13351154, 0.60511827, -4.32300615, -5.04224062, -121.50116730, 0.00000000, 0.00000000, 0.00000000, 61.56183624, 54.80075073, 27.98179817, 1.00000000, 0.00000000, 0.00000000, 0.00000000, 0.55348933, 0.62293345, -0.88108873, 0.00000000, 0.00000000, 0.00000000, 0.00000000
1, 2.8400, 284, 0.27833572, -0.90535486, 0.41809738, -6.47701406, -70.68822479, -73.49608612, 0.00000000, 0.00000000, 0.00000000, 60.10554123, 55.09806061, 26.28343964, 1.00000000, 0.00000000, 0.00000000, 0.00000000, 0.54127753, 0.40573665, -0.69844729, 0.00000000, 0.00000000, 0.00000000, 0.00000000
1, 2.8500, 285, 0.06626789, -0.71713012, 0.66638821, 7.41209269, -114.04802704, -44.91867828, 0.00000000, 0.00000000, 0.00000000, 58.45143890, 54.90076828, 24.17419243, 1.00000000, 0.00000000, 0.00000000, 0.00000000, 0.75284511, 0.22524849, -0.96148849, 0.00000000, 0.00000000, 0.00000000, 0.00000000
1, 2.8600, 286, -0.29600418, -0.79335964, 0.60234272, 49.00304794, -117.68308258, -22.80918503, 0.00000000, 0.00000000, 0.00000000, 57.36246872, 54.46818161, 22.23978615, 1.00000000, 0.00000000, 0.00000000, 0.00000000, 1.11163783, 0.30421886, -0.91132522, 0.00000000, 0.00000000, 0.00000000, 0.00000000
1, 2.8700, 287, -0.72875720, -0.76532900, 0.27493289, 14.49484158, -105.58589935, 13.62906837, 0.00000000, 0.00000000, 0.00000000, 56.38625717, 53.77767181, 20.85685730, 1.00000000, 0.00000000, 0.00000000, 0.00000000, 1.53840017, 0.27438539, -0.59654075, 0.00000000, 0.00000000, 0.00000000, 0.00000000
1, 2.8800, 288, -0.76477206, -0.43732107, 0.14298840, -10.49450302, -129.82211304, 47.82504654, 0.00000000, 0.00000000, 0.00000000, 55.31267548, 52.50367355, 19.66271019, 1.00000000, 0.00000000, 0.00000000, 0.00000000, 1.56416035, -0.05882540, -0.48175377, 0.00000000, 0.00000000, 0.00000000, 0.00000000
1, 2.8900, 289, -0.60592282, -0.32172543, 0.13616332, 21.27397537, -150.14245605, 60.74099731, 0.00000000, 0.00000000, 0.00000000, 54.40837097, 51.14244843, 18.24237251, 1.00000000, 0.00000000, 0.00000000, 0.00000000, 1.39009392, -0.18468474, -0.49473560, 0.00000000, 0.00000000, 0.00000000, 0.00000000
1, 2.9000, 290, -0.50641501, -0.33524814, 0.01424299, 15.55842876, -75.11557770, 71.52999878, 0.00000000, 0.00000000, 0.00000000, 54.32664490, 50.12330246, 17.93684196, 1.00000000, 0.00000000, 0.00000000, 0.00000000, 1.27769661, -0.18148693, -0.38584387, 0.00000000, 0.00000000, 0.00000000, 0.00000000
1, 2.9100, 291, -0.38417152, -0.21578929, -0.02706238, 33.13015366, 2.58805633, 87.78775024, 0.00000000, 0.00000000, 0.00000000, 55.28096390, 49.42082596, 18.75370216, 1.00000000, 0.00000000, 0.00000000, 0.00000000, 1.14650655, -0.31335306, -0.34553787, 0.00000000, 0.00000000, 0.00000000, 0.00000000
1, 2.9200, 292, -0.27116016, -0.15182386, 0.03407566, 63.64489746, 44.58191299, 104.84852600, 0.00000000, 0.00000000, 0.00000000, 57.01942444, 48.79836273, 20.21183777, 1.00000000, 0.00000000, 0.00000000, 0.00000000, 1.02622485, -0.39375639, -0.39763647, 0.00000000, 0.00000000, 0.00000000, 0.00000000
1, 2.9300, 293, -0.24413532, -0.22012000, 0.09652516, 86.09223175, 65.71588898, 122.93456268, 0.00000000, 0.00000000, 0.00000000, 59.32176971, 48.03386307, 22.10011864, 1.00000000, 0.00000000, 0.00000000, 0.00000000, 0.99143600, -0.34580648, -0.44465554, 0.00000000, 0.00000000, 0.00000000, 0.00000000
1, 2.9400, 294, -0.24696669, -0.30703571, 0.14631891, 96.92539978, 96.81393433, 141.50770569, 0.00000000, 0.00000000, 0.00000000, 61.97763443, 47.27425766, 24.38282394, 1.00000000, 0.00000000, 0.00000000, 0.00000000, 0.98495138, -0.28273299, -0.47412261, 0.00000000, 0.00000000, 0.00000000, 0.00000000
1, 2.9500, 295, -0.23181966, -0.30186206, 0.24279846, 110.73001862, 114.13695526, 161.50952148, 0.00000000, 0.00000000, 0.00000000, 64.94191742, 46.33961487, 26.92900085, 1.00000000, 0.00000000, 0.00000000, 0.00000000, 0.95971513, -0.31343368, -0.54521793, 0.00000000, 0.00000000, 0.00000000, 0.00000000
1, 2.9600, 296, -0.20464714, -0.34907895, 0.29335499, 124.15167999, 109.46122742, 178.59677124, 0.00000000, 0.00000000, 0.00000000, 67.94597626, 45.13980103, 29.38910484, 1.00000000, 0.00000000, 0.00000000, 0.00000000, 0.91923589, -0.29392388, -0.56861663, 0.00000000, 0.00000000, 0.00000000, 0.00000000
1, 2.9700, 297, -0.19982353, -0.41306445, 0.23729475, 131.59246826, 108.71496582, 197.23847961, 0.00000000, 0.00000000, 0.00000000, 70.93789673, 43.67462921, 31.78326225, 1.00000000, 0.00000000, 0.00000000, 0.00000000, 0.89752114, -0.25926003, -0.48434797, 0.00000000, 0.00000000, 0.00000000, 0.00000000
1, 2.9800, 298, -0.16270460, -0.48189557, 0.21631594, 140.05932617, 109.19967651, 212.67982483, 0.00000000, 0.00000000, 0.00000000, 73.96669006, 41.92593384, 34.10949326, 1.00000000, 0.00000000, 0.00000000, 0.00000000, 0.83977431, -0.22104175, -0.43371138, 0.00000000, 0.00000000, 0.00000000, 0.00000000
1, 2.9900, 299, -0.10738070, -0.57726347, 0.25888759, 149.31192017, 112.68700409, 226.02954102, 0.00000000, 0.00000000, 0.00000000, 76.90125275, 40.02158356, 36.30679703, 1.00000000, 0.00000000, 0.00000000, 0.00000000, 0.76014167, -0.15705386, -0.44456238, 0.00000000, 0.00000000, 0.00000000, 0.00000000
1, 3.0000, 300, -0.05352014, -0.68115354, 0.26898241, 156.64065552, 116.70290375, 239.84649658, 0.00000000, 0.00000000, 0.00000000, 79.78438568, 37.90813065, 38.39974213, 1.00000000, 0.00000000, 0.00000000, 0.00000000, 0.67894840, -0.08390012, -0.42163831, 0.00000000, 0.00000000, 0.00000000, 0.00000000
1, 3.0100, 301, 0.00123553, -0.78411067, 0.26355165, 159.62232971, 114.94926453, 253.52619934, 0.00000000, 0.00000000, 0.00000000, 82.52052307, 35.57989883, 40.30328751, 1.00000000, 0.00000000, 0.00000000, 0.00000000, 0.59313750, -0.01113027, -0.38215762, 0.00000000, 0.00000000, 0.00000000, 0.00000000
1, 3.0200, 302, 0.04024762, -0.91286397, 0.26518884, 163.87373352, 102.97994995, 270.41223145, 0.00000000, 0.00000000, 0.00000000, 85.05800629, 33.00336838, 41.89598083, 1.00000000, 0.00000000, 0.00000000, 0.00000000, 0.51875317, 0.08820596, -0.34999228, 0.00000000, 0.00000000, 0.00000000, 0.00000000
1, 3.0300, 303, 0.03396662, -1.02903080, 0.21870312, 165.36630249, 87.64809418, 287.79983521, 0.00000000, 0.00000000, 0.00000000, 87.38982391, 30.15270996, 43.15292358, 1.00000000, 0.00000000, 0.00000000, 0.00000000, 0.48478243, 0.17584080, -0.27042779, 0.00000000, 0.00000000, 0.00000000, 0.00000000
1, 3.0400, 304, 0.03581636, -1.11451411, 0.18448487, 164.73855591, 72.12757111, 301.72888184, 0.00000000, 0.00000000, 0.00000000, 89.47731018, 27.15667152, 44.06815720, 1.00000000, 0.00000000, 0.00000000, 0.00000000, 0.43808731, 0.23432703, -0.20425482, 0.00000000, 0.00000000, 0.00000000, 0.00000000
1, 3.0500, 305, 0.05223851, -1.22473383, 0.14057471, 165.42416382, 62.48952866, 312.14132690, 0.00000000, 0.00000000, 0.00000000, 91.41984558, 24.03073883, 44.73351669, 1.00000000, 0.00000000, 0.00000000, 0.00000000, 0.37368745, 0.32021409, -0.12944081, 0.00000000, 0.00000000, 0.00000000, 0.00000000
1, 3.0600, 306, 0.09881274, -1.34444499, 0.12921177, 164.77835083, 57.40290451, 321.85379028, 0.00000000, 0.00000000, 0.00000000, 93.25066376, 20.79171944, 45.21189117, 1.00000000, 0.00000000, 0.00000000, 0.00000000, 0.27597499, 0.41844025, -0.08761440, 0.00000000, 0.00000000, 0.00000000, 0.00000000
1, 3.0700, 307, 0.16244014, -1.53666973, 0.17174798, 170.05757141, 58.59497070, 328.26040649, 0.00000000, 0.00000000, 0.00000000, 95.07166290, 17.47533989, 45.57847595, 1.00000000, 0.00000000, 0.00000000, 0.00000000, 0.15852137, 0.59253138, -0.09927581, 0.00000000, 0.00000000, 0.00000000, 0.00000000
1, 3.0800, 308, 0.25998601, -1.78360832, 0.22717483, 177.70057678, 63.97409821, 330.17266846, 0.00000000, 0.00000000, 0.00000000, 96.93229675, 14.12138176, 45.88194275, 1.00000000, 0.00000000, 0.00000000, 0.00000000, 0.00521642, 0.82529092, -0.12253073, 0.00000000, 0.00000000, 0.00000000, 0.00000000
1, 3.0900, 309, 0.38187531, -2.07669115, 0.29302847, 189.30761719, 65.17797852, 327.62997437, 0.00000000, 0.00000000, 0.00000000, 98.86910248, 10.78685474, 46.08234787, 1.00000000, 0.00000000, 0.00000000, 0.00000000, -0.17339182, 1.10869801, -0.15455848, 0.00000000, 0.00000000, 0.00000000, 0.00000000
1, 3.1000, 310, 0.59126866, -2.39759493, 0.27661437, 191.21653748, 65.51866913, 325.51071167, 0.00000000, 0.00000000, 0.00000000, 100.79600525, 7.46782255, 46.17309189, 1.00000000, 0.00000000, 0.00000000, 0.00000000, -0.43981177, 1.42455447, -0.10368326, 0.00000000, 0.00000000, 0.00000000, 0.00000000
1, 3.1100, 311, 0.92262053, -2.53801584, 0.26842648, 179.77110291, 76.10891724, 328.59301758, 0.00000000, 0.00000000, 0.00000000, 102.60183716, 4.09588718, 46.25121307, 1.00000000, 0.00000000, 0.00000000, 0.00000000, -0.82907355, 1.56412411, -0.06242595, 0.00000000, 0.00000000, 0.00000000, 0.00000000
1, 3.1200, 312, 1.21281290, -2.37144923, 0.23599815, 157.07168579, 69.60568237, 336.03881836, 0.00000000, 0.00000000, 0.00000000, 104.16967010, 0.66625750, 46.14970016, 1.00000000, 0.00000000, 0.00000000, 0.00000000, -1.17879200, 1.40019083, -0.00112936, 0.00000000, 0.00000000, 0.00000000, 0.00000000
1, 3.1300, 313, 1.14858079, -2.23239088, 0.07255497, 155.56828308, 59.77304840, 329.64157104, 0.00000000, 0.00000000, 0.00000000, 105.72367096, -2.66143799, 45.88010025, 1.00000000, 0.00000000, 0.00000000, 0.00000000, -1.17350590, 1.26753509, 0.18843034, 0.00000000, 0.00000000, 0.00000000, 0.00000000
1, 3.1400, 314, 0.98623675, -2.32963395, -0.12766156, 157.89645386, 85.26153564, 301.86245728, 0.00000000, 0.00000000, 0.00000000, 107.30392456, -5.79877710, 45.83972549, 1.00000000, 0.00000000, 0.00000000, 0.00000000, -1.06717658, 1.37518096, 0.41433245, 0.00000000, 0.00000000, 0.00000000, 0.00000000
1, 3.1500, 315, 1.16426635, -2.47548652, -0.25490442, 141.16873169, 117.97145081, 266.03707886, 0.00000000, 0.00000000, 0.00000000, 108.67663574, -8.69395351, 46.14176559, 1.00000000, 0.00000000, 0.00000000, 0.00000000, -1.29691207, 1.53394461, 0.56420404, 0.00000000, 0.00000000, 0.00000000, 0.00000000
1, 3.1600, 316, 1.80716312, -2.29900837, -0.18460412, 110.56929779, 126.06522369, 249.55033875, 0.00000000, 0.00000000, 0.00000000, 109.71648407, -11.46539402, 46.51672745, 1.00000000, 0.00000000, 0.00000000, 0.00000000, -1.98820448, 1.37116694, 0.51037949, 0.00000000, 0.00000000, 0.00000000, 0.00000000
1, 3.1700, 317, 2.16143274, -2.26012969, -0.15613359, 121.39332581, 115.27388000, 234.60884094, 0.00000000, 0.00000000, 0.00000000, 110.87110901, -14.06510258, 46.79066849, 1.00000000, 0.00000000, 0.00000000, 0.00000000, -2.38834739, 1.34768581, 0.49638215, 0.00000000, 0.00000000, 0.00000000, 0.00000000
1, 3.1800, 318, 2.38627815, -1.48951960, -0.28143975, 63.41384888, 78.10572815, 213.65386963, 0.00000000, 0.00000000, 0.00000000, 111.51343536, -16.32137299, 46.74675751, 1.00000000, 0.00000000, 0.00000000, 0.00000000, -2.65374303, 0.59157467, 0.63077152, 0.00000000, 0.00000000, 0.00000000, 0.00000000
1, 3.1900, 319, 2.79964662, -1.43388009, -0.47185388, 101.54911041, 49.01572418, 151.92956543, 0.00000000, 0.00000000, 0.00000000, 112.56434631, -17.91360092, 46.62664413, 1.00000000, 0.00000000, 0.00000000, 0.00000000, -3.09841108, 0.55020678, 0.83210731, 0.00000000, 0.00000000, 0.00000000, 0.00000000
1, 3.2000, 320, 3.03883958, -1.17486572, -1.00628960, 44.56258011, 7.88799906, 70.29865265, 0.00000000, 0.00000000, 0.00000000, 113.07629395, -18.59192085, 46.41621780, 1.00000000, 0.00000000, 0.00000000, 0.00000000, -3.35463381, 0.30092651, 1.37573802, 0.00000000, 0.00000000, 0.00000000, 0.00000000
1, 3.2100, 321, 2.79663754, -1.35112643, -1.02095950, 32.20337677, -31.46049309, -8.16520309, 0.00000000, 0.00000000, 0.00000000, 113.48439026, -18.39262581, 46.14591980, 1.00000000, 0.00000000, 0.00000000, 0.00000000, -3.11439109, 0.48057324, 1.39667797, 0.00000000, 0.00000000, 0.00000000, 0.00000000
1, 3.2200, 322, 2.45079803, -1.77865875, -0.86643577, -12.57222557, -16.97935295, -75.32566071, 0.00000000, 0.00000000, 0.00000000, 113.31228638, -17.63392067, 46.29717636, 1.00000000, 0.00000000, 0.00000000, 0.00000000, -2.75900483, 0.90582228, 1.24478436, 0.00000000, 0.00000000, 0.00000000, 0.00000000
1, 3.2300, 323, 1.99560344, -1.63583481, -0.90330261, -50.29720306, 5.83610535, -123.31258392, 0.00000000, 0.00000000, 0.00000000, 112.62905884, -16.50064850, 46.86999512, 1.00000000, 0.00000000, 0.00000000, 0.00000000, -2.28723884, 0.75482142, 1.27575326, 0.00000000, 0.00000000, 0.00000000, 0.00000000
1, 3.2400, 324, 1.73723364, -1.65019131, -0.74222600, -74.75936127, 29.79060364, -166.14616394, 0.00000000, 0.00000000, 0.00000000, 111.62667084, -15.07383442, 47.80752182, 1.00000000, 0.00000000, 0.00000000, 0.00000000, -2.00672197, 0.75757611, 1.10352707, 0.00000000, 0.00000000, 0.00000000, 0.00000000
1, 3.2500, 325, 0.91736460, -1.35004675, -0.12625813, -106.37866974, 47.60426712, -204.32727051, 0.00000000, 0.00000000, 0.00000000, 110.26605988, -13.33509350, 49.01914597, 1.00000000, 0.00000000, 0.00000000, 0.00000000, -1.15949202, 0.44298851, 0.47049835, 0.00000000, 0.00000000, 0.00000000, 0.00000000
1, 3.2600, 326, -3.18221140, -1.18647659, 3.25159550, -50.07773209, 210.31689453, -245.84852600, 0.00000000, 0.00000000, 0.00000000, 109.14994812, -11.72350883, 51.89463806, 1.00000000, 0.00000000, 0.00000000, 0.00000000, 2.96963310, 0.26554632, -2.92507505, 0.00000000, 0.00000000, 0.00000000, 0.00000000
1, 3.2700, 327, -3.14420962, -3.51722097, -1.32072115, 20.51127625, 103.38513184, -125.02410889, 0.00000000, 0.00000000, 0.00000000, 109.07243347, -10.88238525, 53.31100082, 1.00000000, 0.00000000, 0.00000000, 0.00000000, 2.95096660, 2.59081173, 1.64383316, 0.00000000, 0.00000000, 0.00000000, 0.00000000
1, 3.2800, 328, 0.37831771, -1.80729449, -1.11936295, -284.86257935, -16.68496323, -83.74887848, 0.00000000, 0.00000000, 0.00000000, 106.18228149, -9.99265194, 53.42473984, 1.00000000, 0.00000000, 0.00000000, 0.00000000, -0.55969828, 0.86863506, 1.41216540, 0.00000000, 0.00000000, 0.00000000, 0.00000000
1, 3.2900, 329, 1.46712184, -2.22897983, 0.17571829, -67.20904541, 110.46849823, -256.84304810, 0.00000000, 0.00000000, 0.00000000, 105.24013519, -7.81615019, 55.20288467, 1.00000000, 0.00000000, 0.00000000, 0.00000000, -1.61707008, 1.27654934, 0.08934640, 0.00000000, 0.00000000, 0.00000000, 0.00000000
1, 3.3000, 330, 1.02061880, -0.96260959, 1.06868267, -162.68296814, 226.11158752, -211.45562744, 0.00000000, 0.00000000, 0.00000000, 103.27797699, -6.32444954, 57.93732452, 1.00000000, 0.00000000, 0.00000000, 0.00000000, -1.14024174, -0.00043981, -0.82770026, 0.00000000, 0.00000000, 0.00000000, 0.00000000
1, 3.3100, 331, 1.12563336, -0.14040180, -0.00646120, 30.82735634, 172.09487915, -233.53506470, 0.00000000, 0.00000000, 0.00000000, 103.37464905, -4.43949556, 60.15279388, 1.00000000, 0.00000000, 0.00000000, 0.00000000, -1.21577132, -0.82953429, 0.23229542, 0.00000000, 0.00000000, 0.00000000, 0.00000000
1, 3.3200, 332, 1.83879232, -1.24464965, -0.23186029, 68.96510315, 77.56386566, -215.48226929, 0.00000000, 0.00000000, 0.00000000, 103.98639679, -2.53159738, 61.42247772, 1.00000000, 0.00000000, 0.00000000, 0.00000000, -1.89542890, 0.27543741, 0.47129381, 0.00000000, 0.00000000, 0.00000000, 0.00000000
1, 3.3300, 333, 1.22280490, -1.56079400, 0.38163620, -1.01682496, 85.92584229, -232.76124573, 0.00000000, 0.00000000, 0.00000000, 103.94096375, -0.45261759, 62.81646729, 1.00000000, 0.00000000, 0.00000000, 0.00000000, -1.24441671, 0.59044904, -0.14109898, 0.00000000, 0.00000000, 0.00000000, 0.00000000
1, 3.3400, 334, 0.26087171, -1.28889942, -0.16349904, -17.91316605, 88.56333160, -170.64631653, 0.00000000, 0.00000000, 0.00000000, 103.76683044, 0.99073285, 64.08636475, 1.00000000, 0.00000000, 0.00000000, 0.00000000, -0.25215298, 0.31816575, 0.40340555, 0.00000000, 0.00000000, 0.00000000, 0.00000000
1, 3.3500, 335, 0.18197832, -0.55764484, -0.04498514, -11.35282803, -48.54792786, -111.28853607, 0.00000000, 0.00000000, 0.00000000, 103.64527130, 2.18656731, 63.87733841, 1.00000000, 0.00000000, 0.00000000, 0.00000000, -0.15182051, -0.41366029, 0.28082824, 0.00000000, 0.00000000, 0.00000000, 0.00000000
1, 3.3600, 336, 0.45942312, -0.97559971, 0.21418162, -13.10855579, -100.72122955, -101.68013763, 0.00000000, 0.00000000, 0.00000000, 103.47802734, 3.41189194, 63.13687515, 1.00000000, 0.00000000, 0.00000000, 0.00000000, -0.40771511, 0.00492588, 0.02051304, 0.00000000, 0.00000000, 0.00000000, 0.00000000
1, 3.3700, 337, 0.37419826, -1.00361013, 0.16968593, -47.45790863, -94.33525848, -91.76988220, 0.00000000, 0.00000000, 0.00000000, 102.95406342, 4.52060843, 62.42621613, 1.00000000, 0.00000000, 0.00000000, 0.00000000, -0.30270138, 0.03227676, 0.05695036, 0.00000000, 0.00000000, 0.00000000, 0.00000000
1, 3.3800, 338, 0.43946490, -1.07480800, 0.25976068, -28.14375305, -95.53999329, -95.76530457, 0.00000000, 0.00000000, 0.00000000, 102.61403656, 5.71709633, 61.69760513, 1.00000000, 0.00000000, 0.00000000, 0.00000000, -0.34791923, 0.10356425, -0.04006173, 0.00000000, 0.00000000, 0.00000000, 0.00000000
1, 3.3900, 339, 0.16169313, -1.05842686, 0.16348736, -37.75208664, -77.69581604, -89.13763428, 0.00000000, 0.00000000, 0.00000000, 102.17449951, 6.75451136, 61.12680054, 1.00000000, 0.00000000, 0.00000000, 0.00000000, -0.05064854, 0.08758847, 0.04890973, 0.00000000, 0.00000000, 0.00000000, 0.00000000
1, 3.4000, 340, -0.19721986, -1.02159929, 0.14805441, -37.56344986, -77.35158539, -79.52883911, 0.00000000, 0.00000000, 0.00000000, 101.72371674, 7.69267416, 60.52996826, 1.00000000, 0.00000000, 0.00000000, 0.00000000, 0.32510072, 0.05110514, 0.05630434, 0.00000000, 0.00000000, 0.00000000, 0.00000000
1, 3.4100, 341, 0.07565133, -1.11095381, 0.39618096, -29.18343544, -55.39923477, -74.63033295, 0.00000000, 0.00000000, 0.00000000, 101.37629700, 8.53493309, 60.13258362, 1.00000000, 0.00000000, 0.00000000, 0.00000000, 0.06744829, 0.14110552, -0.19895563, 0.00000000, 0.00000000, 0.00000000, 0.00000000
1, 3.4200, 342, 0.13475096, -1.20606565, 0.27634484, -26.70375061, -34.80764008, -77.69026947, 0.00000000, 0.00000000, 0.00000000, 101.07925415, 9.36472130, 59.94011307, 1.00000000, 0.00000000, 0.00000000, 0.00000000, 0.02250485, 0.23730966, -0.08460636, 0.00000000, 0.00000000, 0.00000000, 0.00000000
1, 3.4300, 343, -0.08155401, -1.08576262, 0.19961785, -34.89129639, -38.26725388, -73.37854767, 0.00000000, 0.00000000, 0.00000000, 100.65734863, 10.06553650, 59.72889709, 1.00000000, 0.00000000, 0.00000000, 0.00000000, 0.25267550, 0.11807457, -0.01446340, 0.00000000, 0.00000000, 0.00000000, 0.00000000
1, 3.4400, 344, 0.10507640, -0.86014569, 0.19646704, -35.13605881, -25.74220848, -49.62153244, 0.00000000, 0.00000000, 0.00000000, 100.27643585, 10.60038185, 59.56333542, 1.00000000, 0.00000000, 0.00000000, 0.00000000, 0.07573079, -0.10715503, -0.01862247, 0.00000000, 0.00000000, 0.00000000, 0.00000000
1, 3.4500, 345, 0.23107643, -0.81394923, 0.23243798, -35.33227158, 3.86458015, -49.77755737, 0.00000000, 0.00000000, 0.00000000, 99.94722748, 11.08371830, 59.69101715, 1.00000000, 0.00000000, 0.00000000, 0.00000000, -0.04202347, -0.15288997, -0.06076168, 0.00000000, 0.00000000, 0.00000000, 0.00000000
1, 3.4600, 346, 0.17481957, -0.92922777, 0.20859747, -38.00503159, 10.36114788, -56.42293167, 0.00000000, 0.00000000, 0.00000000, 99.60692596, 11.62217236, 59.89286423, 1.00000000, 0.00000000, 0.00000000, 0.00000000, 0.02312559, -0.03687026, -0.04287871, 0.00000000, 0.00000000, 0.00000000, 0.00000000
1, 3.4700, 347, 0.30412251, -1.09112740, 0.18532591, -39.07562637, 10.29427433, -55.32566833, 0.00000000, 0.00000000, 0.00000000, 99.25659943, 12.15101528, 60.08933258, 1.00000000, 0.00000000, 0.00000000, 0.00000000, -0.09693833, 0.12594008, -0.02570544, 0.00000000, 0.00000000, 0.00000000, 0.00000000
1, 3.4800, 348, 0.50418228, -1.10781157, 0.24975631, -35.14198303, -4.04702902, -50.78311539, 0.00000000, 0.00000000, 0.00000000, 98.94763947, 12.73155403, 60.10444260, 1.00000000, 0.00000000, 0.00000000, 0.00000000, -0.28797895, 0.14362124, -0.09619051, 0.00000000, 0.00000000, 0.00000000, 0.00000000
1, 3.4900, 349, 0.53242511, -1.02507365, 0.27975854, -30.93125343, -25.96710587, -46.26330948, 0.00000000, 0.00000000, 0.00000000, 98.59524536, 13.22826195, 59.91345596, 1.00000000, 0.00000000, 0.00000000, 0.00000000, -0.30672926, 0.06216060, -0.13193673, 0.00000000, 0.00000000, 0.00000000, 0.00000000
1, 3.5000, 350, 0.32031706, -1.00470829, 0.23636644, -21.86766815, -43.40805435, -41.29512024, 0.00000000, 0.00000000, 0.00000000, 98.28818512, 13.70041180, 59.53425980, 1.00000000, 0.00000000, 0.00000000, 0.00000000, -0.08644557, 0.04287794, -0.09431314, 0.00000000, 0.00000000, 0.00000000, 0.00000000
1, 3.5100, 351, 0.13320929, -1.01797390, 0.10221063, -21.17375565, -47.94972229, -36.94736862, 0.00000000, 0.00000000, 0.00000000, 97.97175598, 14.13398266, 59.09908676, 1.00000000, 0.00000000, 0.00000000, 0.00000000, 0.10831894, 0.05724367, 0.03437173, 0.00000000, 0.00000000, 0.00000000, 0.00000000
1, 3.5200, 352, 0.24351132, -0.96005338, 0.09234340, -20.79324532, -45.26705551, -33.08808517, 0.00000000, 0.00000000, 0.00000000, 97.66076660, 14.52334690, 58.68265533, 1.00000000, 0.00000000, 0.00000000, 0.00000000, 0.00480932, 0.00028357, 0.03870306, 0.00000000, 0.00000000, 0.00000000, 0.00000000
1, 3.5300, 353, 0.16717179, -0.93017447, 0.08185209, -15.31234455, -35.72700119, -37.27749252, 0.00000000, 0.00000000, 0.00000000, 97.39065552, 14.86119556, 58.39618301, 1.00000000, 0.00000000, 0.00000000, 0.00000000, 0.08761653, -0.02854091, 0.04441546, 0.00000000, 0.00000000, 0.00000000, 0.00000000
1, 3.5400, 354, 0.10275813, -0.94087017, 0.04720345, -15.28932285, -25.95029831, -40.67984390, 0.00000000, 0.00000000, 0.00000000, 97.18237305, 15.29765129, 58.18302917, 1.00000000, 0.00000000, 0.00000000, 0.00000000, 0.15830930, -0.01671004, 0.07477356, 0.00000000, 0.00000000, 0.00000000, 0.00000000
1, 3.5500, 355, 0.13854599, -1.01353884, 0.03432468, -14.58374310, -16.13164330, -43.79256821, 0.00000000, 0.00000000, 0.00000000, 97.00716400, 15.75216675, 58.07302094, 1.00000000, 0.00000000, 0.00000000, 0.00000000, 0.13002919, 0.05760920, 0.08425111, 0.00000000, 0.00000000, 0.00000000, 0.00000000
1, 3.5600, 356, 0.13238101, -1.02653098, 0.04648444, -18.48089790, -6.11251831, -44.88668442, 0.00000000, 0.00000000, 0.00000000, 96.82047272, 16.20514297, 58.06613541, 1.00000000, 0.00000000, 0.00000000, 0.00000000, 0.14388381, 0.07239847, 0.06885502, 0.00000000, 0.00000000, 0.00000000, 0.00000000
1, 3.5700, 357, 0.19084118, -0.99851763, 0.12579323, -18.23064423, -2.93951416, -42.22747421, 0.00000000, 0.00000000, 0.00000000, 96.64417267, 16.62796402, 58.08731461, 1.00000000, 0.00000000, 0.00000000, 0.00000000, 0.09270465, 0.04612926, -0.01375161, 0.00000000, 0.00000000, 0.00000000, 0.00000000
1, 3.5800, 358, 0.32985577, -1.01119423, 0.16535032, -18.03594780, -4.35094690, -41.38904190, 0.00000000, 0.00000000, 0.00000000, 96.49788666, 17.05287361, 58.07281494, 1.00000000, 0.00000000, 0.00000000, 0.00000000, -0.03933191, 0.06055692, -0.05635535, 0.00000000, 0.00000000, 0.00000000, 0.00000000
1, 3.5900, 359, 0.28590015, -1.04357529, 0.15886389, -17.61471367, -13.53903294, -41.38002014, 0.00000000, 0.00000000, 0.00000000, 96.29417419, 17.47915649, 57.98019791, 1.00000000, 0.00000000, 0.00000000, 0.00000000, 0.01180764, 0.09482290, -0.05287552, 0.00000000, 0.00000000, 0.00000000, 0.00000000
1, 3.6000, 360, 0.35651749, -1.00625122, 0.18927996, -17.20480156, -23.35278702, -38.15839386, 0.00000000, 0.00000000, 0.00000000, 96.06114197, 17.88363075, 57.77960968, 1.00000000, 0.00000000, 0.00000000, 0.00000000, -0.05193868, 0.05924670, -0.08725579, 0.00000000, 0.00000000, 0.00000000, 0.00000000
1, 3.6100, 361, 0.29319748, -1.00565183, 0.18065505, -14.03434563, -32.64213562, -37.55425262, 0.00000000, 0.00000000, 0.00000000, 95.82740784, 18.29094696, 57.47898483, 1.00000000, 0.00000000, 0.00000000, 0.00000000, 0.01811168, 0.06041159, -0.08266451, 0.00000000, 0.00000000, 0.00000000, 0.00000000
1, 3.6200, 362, 0.25722972, -1.07062960, 0.20667644, -14.68151760, -36.94764328, -39.29450989, 0.00000000, 0.00000000, 0.00000000, 95.57061768, 18.71864128, 57.13242722, 1.00000000, 0.00000000, 0.00000000, 0.00000000, 0.06098518, 0.12724902, -0.11304703, 0.00000000, 0.00000000, 0.00000000, 0.00000000
1, 3.6300, 363, 0.17340332, -1.10637319, 0.19704317, -17.09607315, -37.95561600, -40.57177353, 0.00000000, 0.00000000, 0.00000000, 95.32489014, 19.09368515, 56.76071548, 1.00000000, 0.00000000, 0.00000000, 0.00000000, 0.15181762, 0.16494350, -0.10795331, 0.00000000, 0.00000000, 0.00000000, 0.00000000
1, 3.6400, 364, 0.19024929, -1.07425737, 0.22835472, -19.38527679, -39.94919586, -40.72475433, 0.00000000, 0.00000000, 0.00000000, 95.00445557, 19.53524971, 56.37795639, 1.00000000, 0.00000000, 0.00000000, 0.00000000, 0.14136718, 0.13461868, -0.14407599, 0.00000000, 0.00000000, 0.00000000, 0.00000000
1, 3.6500, 365, 0.10675391, -1.05050790, 0.24070908, -24.50219917, -38.74594116, -43.41280746, 0.00000000, 0.00000000, 0.00000000, 94.63381195, 20.00041389, 56.00649261, 1.00000000, 0.00000000, 0.00000000, 0.00000000, 0.23239885, 0.11305235, -0.16232277, 0.00000000, 0.00000000, 0.00000000, 0.00000000
1, 3.6600, 366, 0.13316022, -1.04458821, 0.28841326, -31.13227463, -39.01851273, -45.71475220, 0.00000000, 0.00000000, 0.00000000, 94.19202423, 20.48627090, 55.62936783, 1.00000000, 0.00000000, 0.00000000, 0.00000000, 0.21377839, 0.10942458, -0.21704993, 0.00000000, 0.00000000, 0.00000000, 0.00000000
1, 3.6700, 367, 0.07483011, -1.04043734, 0.21486966, -35.57788086, -39.99760818, -49.99417114, 0.00000000, 0.00000000, 0.00000000, 93.69806671, 21.01252365, 55.23941422, 1.00000000, 0.00000000, 0.00000000, 0.00000000, 0.28047755, 0.10784149, -0.15154797, 0.00000000, 0.00000000, 0.00000000, 0.00000000
1, 3.6800, 368, 0.12347840, -1.10368812, 0.21819466, -34.62246704, -42.38539124, -53.91883087, 0.00000000, 0.00000000, 0.00000000, 93.24117279, 21.51852036, 54.81071854, 1.00000000, 0.00000000, 0.00000000, 0.00000000, 0.24054796, 0.17394428, -0.16295877, 0.00000000, 0.00000000, 0.00000000, 0.00000000
1, 3.6900, 369, 0.18898009, -1.21150017, 0.19447559, -36.18113708, -44.14511108, -60.34269333, 0.00000000, 0.00000000, 0.00000000, 92.71533203, 22.14406776, 54.36952209, 1.00000000, 0.00000000, 0.00000000, 0.00000000, 0.18402350, 0.28487813, -0.14731067, 0.00000000, 0.00000000, 0.00000000, 0.00000000
1, 3.7000, 370, 0.15908977, -1.32854033, 0.18880907, -40.15986252, -48.20668411, -66.71156311, 0.00000000, 0.00000000, 0.00000000, 92.12601471, 22.83095551, 53.87879181, 1.00000000, 0.00000000, 0.00000000, 0.00000000, 0.22476484, 0.40593553, -0.15089263, 0.00000000, 0.00000000, 0.00000000, 0.00000000
1, 3.7100, 371, 0.12325676, -1.39921713, 0.18025406, -42.76584244, -51.55083466, -72.59880829, 0.00000000, 0.00000000, 0.00000000, 91.48729706, 23.57286453, 53.34312820, 1.00000000, 0.00000000, 0.00000000, 0.00000000, 0.27213034, 0.48113462, -0.15247220, 0.00000000, 0.00000000, 0.00000000, 0.00000000
1, 3.7200, 372, 0.01978080, -1.36380935, 0.18992415, -47.92322922, -56.15547943, -76.03730774, 0.00000000, 0.00000000, 0.00000000, 90.76520538, 24.34416199, 52.74514389, 1.00000000, 0.00000000, 0.00000000, 0.00000000, 0.38781130, 0.45080960, -0.17332880, 0.00000000, 0.00000000, 0.00000000, 0.00000000
1, 3.7300, 373, -0.01233515, -1.37473130, 0.21540247, -52.04158020, -56.40363312, -82.20202637, 0.00000000, 0.00000000, 0.00000000, 90.01699829, 25.10635567, 52.13214493, 1.00000000, 0.00000000, 0.00000000, 0.00000000, 0.43238693, 0.46725652, -0.21078871, 0.00000000, 0.00000000, 0.00000000, 0.00000000
1, 3.7400, 374, -0.05868317, -1.38841343, 0.28657958, -58.79906082, -52.70397186, -90.94776154, 0.00000000, 0.00000000, 0.00000000, 89.17391968, 26.01209068, 51.54074097, 1.00000000, 0.00000000, 0.00000000, 0.00000000, 0.49175301, 0.48710734, -0.29455706, 0.00000000, 0.00000000, 0.00000000, 0.00000000
1, 3.7500, 375, -0.08294248, -1.42969263, 0.33562961, -65.29184723, -47.91166306, -99.78887177, 0.00000000, 0.00000000, 0.00000000, 88.27106476, 26.99909782, 50.98064041, 1.00000000, 0.00000000, 0.00000000, 0.00000000, 0.53103381, 0.53598714, -0.35719764, 0.00000000, 0.00000000, 0.00000000, 0.00000000
1, 3.7600, 376, -0.11945093, -1.43263960, 0.35751739, -72.00023651, -46.26058197, -111.04425049, 0.00000000, 0.00000000, 0.00000000, 87.28759003, 28.09084702, 50.41073608, 1.00000000, 0.00000000, 0.00000000, 0.00000000, 0.58385468, 0.54777932, -0.39362609, 0.00000000, 0.00000000, 0.00000000, 0.00000000
1, 3.7700, 377, -0.13797070, -1.41933739, 0.35086000, -79.71051025, -44.06877136, -122.35097504, 0.00000000, 0.00000000, 0.00000000, 86.21184540, 29.28749657, 49.83015823, 1.00000000, 0.00000000, 0.00000000, 0.00000000, 0.62019962, 0.54484516, -0.40245795, 0.00000000, 0.00000000, 0.00000000, 0.00000000
1, 3.7800, 378, -0.20807491, -1.44984722, 0.33045840, -87.38496399, -39.14627075, -137.07330322, 0.00000000, 0.00000000, 0.00000000, 85.09161377, 30.56190109, 49.26618958, 1.00000000, 0.00000000, 0.00000000, 0.00000000, 0.70943213, 0.58730245, -0.39824250, 0.00000000, 0.00000000, 0.00000000, 0.00000000
1, 3.7900, 379, -0.28255922, -1.51617730, 0.37892181, -95.69687653, -30.92110062, -153.28880310, 0.00000000, 0.00000000, 0.00000000, 83.85773468, 32.05798340, 48.73308563, 1.00000000, 0.00000000, 0.00000000, 0.00000000, 0.80483234, 0.66762507, -0.46323511, 0.00000000, 0.00000000, 0.00000000, 0.00000000
1, 3.8000, 380, -0.32211462, -1.60656404, 0.46401802, -100.57150269, -24.81710625, -167.48896790, 0.00000000, 0.00000000, 0.00000000, 82.56487274, 33.69187927, 48.20396423, 1.00000000, 0.00000000, 0.00000000, 0.00000000, 0.86777163, 0.77475274, -0.56528783, 0.00000000, 0.00000000, 0.00000000, 0.00000000
1, 3.8100, 381, -0.40756243, -1.67968643, 0.63070846, -100.99361420, -23.87856293, -182.88948059, 0.00000000, 0.00000000, 0.00000000, 81.21382904, 35.46870422, 47.60307693, 1.00000000, 0.00000000, 0.00000000, 0.00000000, 0.97811460, 0.86703962, -0.74889976, 0.00000000, 0.00000000, 0.00000000, 0.00000000
1, 3.8200, 382, -0.92258817, -1.79060972, 0.86896974, -91.64887238, -34.87812042, -197.72784424, 0.00000000, 0.00000000, 0.00000000, 79.80207825, 37.36100769, 46.76981735, 1.00000000, 0.00000000, 0.00000000, 0.00000000, 1.51942253, 0.99969560, -1.00360405, 0.00000000, 0.00000000, 0.00000000, 0.00000000
1, 3.8300, 383, -0.42198515, -1.98061264, 0.94126201, -96.21862793, -35.03605270, -195.83636475, 0.00000000, 0.00000000, 0.00000000, 78.30793762, 39.20192337, 45.86289978, 1.00000000, 0.00000000, 0.00000000, 0.00000000, 1.04478335, 1.21302640, -1.09233069, 0.00000000, 0.00000000, 0.00000000, 0.00000000
1, 3.8400, 384, -0.90161967, -2.36166263, 1.14588225, -78.39466095, -34.01124573, -214.94154358, 0.00000000, 0.00000000, 0.00000000, 76.84979248, 41.22690201, 44.82050323, 1.00000000, 0.00000000, 0.00000000, 0.00000000, 1.55043995, 1.61914241, -1.31191254, 0.00000000, 0.00000000, 0.00000000, 0.00000000
1, 3.8500, 385, -1.25199628, -2.54921079, 1.19000638, -68.40086365, -57.33152771, -205.46925354, 0.00000000, 0.00000000, 0.00000000, 75.21198273, 43.08230209, 43.40177155, 1.00000000, 0.00000000, 0.00000000, 0.00000000, 1.92642999, 1.83327496, -1.37017095, 0.00000000, 0.00000000, 0.00000000, 0.00000000
1, 3.8600, 386, -0.92079139, -2.13171363, 0.90299100, -70.53991699, -96.47309875, -177.24092102, 0.00000000, 0.00000000, 0.00000000, 73.15171814, 44.52444839, 41.44688416, 1.00000000, 0.00000000, 0.00000000, 0.00000000, 1.61578739, 1.44078040, -1.10172021, 0.00000000, 0.00000000, 0.00000000, 0.00000000
1, 3.8700, 387, -0.20521790, -1.77023387, 0.11456950, -107.20139313, -144.22164917, -145.59416199, 0.00000000, 0.00000000, 0.00000000, 70.25423431, 45.45611954, 38.86644745, 1.00000000, 0.00000000, 0.00000000, 0.00000000, 0.91391778, 1.10148931, -0.33905941, 0.00000000, 0.00000000, 0.00000000, 0.00000000
1, 3.8800, 388, 0.89339495, -1.29883802, 0.63865376, -152.29740906, -120.03816223, -164.58363342, 0.00000000, 0.00000000, 0.00000000, 67.00520325, 46.54668808, 36.40203857, 1.00000000, 0.00000000, 0.00000000, 0.00000000, -0.17278850, 0.65527856, -0.89635330, 0.00000000, 0.00000000, 0.00000000, 0.00000000
1, 3.8900, 389, 0.62611026, -1.51499057, 0.49640882, -65.83017731, -156.53765869, -190.64108276, 0.00000000, 0.00000000, 0.00000000, 63.96279144, 47.63116455, 33.14762115, 1.00000000, 0.00000000, 0.00000000, 0.00000000, 0.10807681, 0.89932293, -0.78240901, 0.00000000, 0.00000000, 0.00000000, 0.00000000
1, 3.9000, 390, 0.64081800, -1.82553673, 0.97423059, -46.11476517, -75.35037231, -202.57714844, 0.00000000, 0.00000000, 0.00000000, 61.70832062, 49.08958054, 30.74563217, 1.00000000, 0.00000000, 0.00000000, 0.00000000, 0.10823970, 1.23791432, -1.28002155, 0.00000000, 0.00000000, 0.00000000, 0.00000000
1, 3.9100, 391, 0.59680909, -1.69591928, 1.04521859, -38.45919418, -26.28068733, -187.98802185, 0.00000000, 0.00000000, 0.00000000, 59.96645737, 50.60342407, 28.96912956, 1.00000000, 0.00000000, 0.00000000, 0.00000000, 0.16972488, 1.13652658, -1.36053455, 0.00000000, 0.00000000, 0.00000000, 0.00000000
1, 3.9200, 392, 0.45826638, -1.31947660, 0.91907692, -31.92691803, -9.29071712, -158.34660339, 0.00000000, 0.00000000, 0.00000000, 58.53849030, 51.91687012, 27.54785919, 1.00000000, 0.00000000, 0.00000000, 0.00000000, 0.32373273, 0.78490990, -1.23948097, 0.00000000, 0.00000000, 0.00000000, 0.00000000
1, 3.9300, 393, 0.56251407, -0.99427956, 0.74423683, -13.33399105, -15.83734894, -134.52000427, 0.00000000, 0.00000000, 0.00000000, 57.66796112, 52.99957275, 26.28484917, 1.00000000, 0.00000000, 0.00000000, 0.00000000, 0.23192982, 0.48020571, -1.06758475, 0.00000000, 0.00000000, 0.00000000, 0.00000000
