SensorId, TimeStamp (s), FrameNumber, AccX (g), AccY (g), AccZ (g), GyroX (deg/s), GyroY (deg/s), GyroZ (deg/s), MagX (uT), MagY (uT), MagZ (uT), EulerX (deg), EulerY (deg), EulerZ (deg), QuatW, QuatX, QuatY, QuatZ, LinAccX (g), LinAccY (g), LinAccZ (g), Pressure (kPa), Altitude (m), Temperature (degC), HeaveMotion (m)
1, -0.0001, 0, -0.06443007, -1.25982475, 0.60826880, -5.96001816, -31.77811623, -4.74156046, 0.00000000, 0.00000000, 0.00000000, 114.62704468, 9.01432800, 53.72837830, 1.00000000, 0.00000000, 0.00000000, 0.00000000, 0.21995530, 0.36207196, -0.19613941, 0.00000000, 0.00000000, 0.00000000, 0.00000000
1, 0.0099, 1, -0.02214750, -1.23230481, 0.56624103, -6.62300777, -22.13012314, -18.37403870, 0.00000000, 0.00000000, 0.00000000, 114.54078674, 9.27350616, 53.60200119, 1.00000000, 0.00000000, 0.00000000, 0.00000000, 0.18145561, 0.33452499, -0.15561916, 0.00000000, 0.00000000, 0.00000000, 0.00000000
1, 0.0199, 2, -0.07649978, -1.08728468, 0.43825063, -19.78960228, -18.36646271, -27.02308655, 0.00000000, 0.00000000, 0.00000000, 114.32967377, 9.41427422, 53.22669601, 1.00000000, 0.00000000, 0.00000000, 0.00000000, 0.24030465, 0.18905756, -0.03038590, 0.00000000, 0.00000000, 0.00000000, 0.00000000
1, 0.0299, 3, 0.06809256, -0.83516711, 0.36678988, -24.44313622, -13.85148430, -31.56767082, 0.00000000, 0.00000000, 0.00000000, 114.08578491, 9.75901031, 53.22977829, 1.00000000, 0.00000000, 0.00000000, 0.00000000, 0.09915771, -0.06433015, 0.03685322, 0.00000000, 0.00000000, 0.00000000, 0.00000000
1, 0.0399, 4, 0.11647031, -0.78816694, 0.25773406, -11.51988411, -5.34399176, -35.80784607, 0.00000000, 0.00000000, 0.00000000, 113.98760986, 10.10782623, 53.32825470, 1.00000000, 0.00000000, 0.00000000, 0.00000000, 0.05676553, -0.11145027, 0.14310881, 0.00000000, 0.00000000, 0.00000000, 0.00000000
1, 0.0499, 5, 0.11644788, -0.78917634, 0.23138574, -6.84623384, -2.42705083, -40.50293732, 0.00000000, 0.00000000, 0.00000000, 113.94501495, 10.48780537, 53.47290421, 1.00000000, 0.00000000, 0.00000000, 0.00000000, 0.06307945, -0.10981518, 0.16808978, 0.00000000, 0.00000000, 0.00000000, 0.00000000
1, 0.0599, 6, 0.17659508, -0.78956431, 0.21020013, -0.58596879, -4.61726904, -45.82012939, 0.00000000, 0.00000000, 0.00000000, 113.96627808, 10.92530346, 53.61923981, 1.00000000, 0.00000000, 0.00000000, 0.00000000, 0.01002603, -0.10826574, 0.18863447, 0.00000000, 0.00000000, 0.00000000, 0.00000000
1, 0.0699, 7, 0.17354609, -0.80596465, 0.20375760, 3.08801365, -13.93676376, -50.33226013, 0.00000000, 0.00000000, 0.00000000, 113.91396332, 11.44775772, 53.72671509, 1.00000000, 0.00000000, 0.00000000, 0.00000000, 0.02142916, -0.09024650, 0.19471832, 0.00000000, 0.00000000, 0.00000000, 0.00000000
1, 0.0799, 8, 0.18385364, -0.77026451, 0.21506873, 7.57027531, -14.44542027, -56.20283508, 0.00000000, 0.00000000, 0.00000000, 114.00965881, 12.02002144, 53.82494736, 1.00000000, 0.00000000, 0.00000000, 0.00000000, 0.02065961, -0.12419941, 0.18254980, 0.00000000, 0.00000000, 0.00000000, 0.00000000
1, 0.0899, 9, 0.15184748, -0.78328568, 0.19281286, 15.03348637, -17.86674309, -62.98419189, 0.00000000, 0.00000000, 0.00000000, 114.18051910, 12.66794300, 53.92120361, 1.00000000, 0.00000000, 0.00000000, 0.00000000, 0.06320326, -0.10808060, 0.20619625, 0.00000000, 0.00000000, 0.00000000, 0.00000000
1, 0.0999, 10, 0.15594158, -0.75712526, 0.22511972, 13.02693462, -22.71726799, -69.42151642, 0.00000000, 0.00000000, 0.00000000, 114.32888794, 13.39418697, 54.00137329, 1.00000000, 0.00000000, 0.00000000, 0.00000000, 0.07097596, -0.13067459, 0.17526314, 0.00000000, 0.00000000, 0.00000000, 0.00000000
1, 0.1099, 11, 0.23372999, -0.75760961, 0.16515292, 14.16376114, -22.39085388, -77.00872040, 0.00000000, 0.00000000, 0.00000000, 114.49864197, 14.18795490, 54.11915970, 1.00000000, 0.00000000, 0.00000000, 0.00000000, 0.00625414, -0.12622467, 0.23637986, 0.00000000, 0.00000000, 0.00000000, 0.00000000
1, 0.1199, 12, 0.21336849, -0.79061288, 0.12314075, 11.26651955, -27.85786438, -88.34217072, 0.00000000, 0.00000000, 0.00000000, 114.56001282, 15.09550381, 54.22362900, 1.00000000, 0.00000000, 0.00000000, 0.00000000, 0.04127427, -0.08883971, 0.27897882, 0.00000000, 0.00000000, 0.00000000, 0.00000000
1, 0.1299, 13, 0.15428162, -0.81519592, 0.21744099, 7.68756294, -26.89997482, -100.23898315, 0.00000000, 0.00000000, 0.00000000, 114.68533325, 16.11881065, 54.40338898, 1.00000000, 0.00000000, 0.00000000, 0.00000000, 0.11676428, -0.05972928, 0.18382463, 0.00000000, 0.00000000, 0.00000000, 0.00000000
1, 0.1399, 14, 0.10556099, -0.88721937, 0.19752377, 6.50944710, -26.18244171, -110.85559845, 0.00000000, 0.00000000, 0.00000000, 114.81830597, 17.23513794, 54.63974762, 1.00000000, 0.00000000, 0.00000000, 0.00000000, 0.18363941, 0.01802769, 0.20352280, 0.00000000, 0.00000000, 0.00000000, 0.00000000
1, 0.1499, 15, 0.07023348, -0.93294019, 0.26660112, 3.52005553, -23.27341270, -121.61669922, 0.00000000, 0.00000000, 0.00000000, 114.95026398, 18.43631363, 54.95558929, 1.00000000, 0.00000000, 0.00000000, 0.00000000, 0.23842767, 0.07021098, 0.13388771, 0.00000000, 0.00000000, 0.00000000, 0.00000000
1, 0.1599, 16, 0.09879716, -1.01525569, 0.28442651, 6.54599667, -29.25974274, -131.20881653, 0.00000000, 0.00000000, 0.00000000, 115.11603546, 19.74897957, 55.26247406, 1.00000000, 0.00000000, 0.00000000, 0.00000000, 0.23084995, 0.15997709, 0.11530941, 0.00000000, 0.00000000, 0.00000000, 0.00000000
1, 0.1699, 17, 0.12478504, -1.13947034, 0.29941487, 5.83893394, -40.17547989, -139.90344238, 0.00000000, 0.00000000, 0.00000000, 115.21452332, 21.12314606, 55.39481735, 1.00000000, 0.00000000, 0.00000000, 0.00000000, 0.22737467, 0.29262179, 0.09906406, 0.00000000, 0.00000000, 0.00000000, 0.00000000
1, 0.1799, 18, 0.16040120, -1.27423787, 0.20213920, 7.05136204, -56.38145447, -148.19395447, 0.00000000, 0.00000000, 0.00000000, 115.33417511, 22.70396423, 55.52716064, 1.00000000, 0.00000000, 0.00000000, 0.00000000, 0.21582617, 0.43653059, 0.19363627, 0.00000000, 0.00000000, 0.00000000, 0.00000000
1, 0.1899, 19, 0.17133696, -1.39092183, 0.14238702, 11.67242813, -73.94001007, -154.31974792, 0.00000000, 0.00000000, 0.00000000, 115.44766998, 24.41517067, 55.52028275, 1.00000000, 0.00000000, 0.00000000, 0.00000000, 0.23157069, 0.56425482, 0.25031596, 0.00000000, 0.00000000, 0.00000000, 0.00000000
1, 0.1999, 20, 0.19322014, -1.44367456, 0.03080301, 15.23302746, -100.21799469, -161.49780273, 0.00000000, 0.00000000, 0.00000000, 115.49984741, 26.30420685, 55.28769302, 1.00000000, 0.00000000, 0.00000000, 0.00000000, 0.23850735, 0.62949538, 0.35731566, 0.00000000, 0.00000000, 0.00000000, 0.00000000
1, 0.2099, 21, -0.03399739, -1.47787809, -0.11692418, 20.58809853, -125.61710358, -171.60981750, 0.00000000, 0.00000000, 0.00000000, 115.50098419, 28.39392662, 54.84285736, 1.00000000, 0.00000000, 0.00000000, 0.00000000, 0.49723545, 0.67805260, 0.49847850, 0.00000000, 0.00000000, 0.00000000, 0.00000000
1, 0.2199, 22, -0.23950864, -1.49444091, -0.17751475, 29.52935028, -150.46168518, -178.78431702, 0.00000000, 0.00000000, 0.00000000, 115.41060638, 30.58858299, 54.02592087, 1.00000000, 0.00000000, 0.00000000, 0.00000000, 0.73609447, 0.71084023, 0.55068552, 0.00000000, 0.00000000, 0.00000000, 0.00000000
1, 0.2299, 23, -0.52901810, -1.59896183, -0.23682778, 39.29255676, -165.82563782, -185.64714050, 0.00000000, 0.00000000, 0.00000000, 115.36824799, 32.97672653, 53.19980621, 1.00000000, 0.00000000, 0.00000000, 0.00000000, 1.06001854, 0.83347660, 0.60005516, 0.00000000, 0.00000000, 0.00000000, 0.00000000
1, 0.2399, 24, -0.70028096, -1.80302584, -0.06244867, 47.88546371, -169.66108704, -187.28495789, 0.00000000, 0.00000000, 0.00000000, 115.35044861, 35.39561462, 52.31569290, 1.00000000, 0.00000000, 0.00000000, 0.00000000, 1.26646698, 1.05818367, 0.41530076, 0.00000000, 0.00000000, 0.00000000, 0.00000000
1, 0.2499, 25, -0.63647825, -2.03336763, 0.14051302, 58.48495483, -158.81343079, -200.53366089, 0.00000000, 0.00000000, 0.00000000, 115.50988770, 37.88837051, 51.60133362, 1.00000000, 0.00000000, 0.00000000, 0.00000000, 1.23748481, 1.31166649, 0.20268995, 0.00000000, 0.00000000, 0.00000000, 0.00000000
1, 0.2599, 26, -0.58961397, -2.20412493, 0.33630046, 59.13724136, -128.13334656, -217.36412048, 0.00000000, 0.00000000, 0.00000000, 115.93067169, 40.40239716, 51.32907867, 1.00000000, 0.00000000, 0.00000000, 0.00000000, 1.22515583, 1.50880015, -0.00095361, 0.00000000, 0.00000000, 0.00000000, 0.00000000
1, 0.2699, 27, -0.27624407, -2.27991796, 0.48079893, 67.29430389, -103.00129700, -232.23442078, 0.00000000, 0.00000000, 0.00000000, 116.68898773, 42.91194916, 51.41406250, 1.00000000, 0.00000000, 0.00000000, 0.00000000, 0.94502980, 1.61397457, -0.15051652, 0.00000000, 0.00000000, 0.00000000, 0.00000000
1, 0.2799, 28, 0.26293468, -2.49583197, 0.39731812, 69.76864624, -88.67765045, -244.36276245, 0.00000000, 0.00000000, 0.00000000, 117.70645142, 45.49056625, 51.87189484, 1.00000000, 0.00000000, 0.00000000, 0.00000000, 0.43818814, 1.86236596, -0.07024605, 0.00000000, 0.00000000, 0.00000000, 0.00000000
1, 0.2899, 29, 0.47312248, -2.48393369, 0.68816555, 61.73445511, -66.24441528, -234.23541260, 0.00000000, 0.00000000, 0.00000000, 118.88375854, 47.86683655, 52.64026260, 1.00000000, 0.00000000, 0.00000000, 0.00000000, 0.25816527, 1.88419831, -0.36352751, 0.00000000, 0.00000000, 0.00000000, 0.00000000
1, 0.2999, 30, 0.18573394, -2.34935355, 0.90691638, 33.98451233, -46.49557877, -222.84846497, 0.00000000, 0.00000000, 0.00000000, 120.01865387, 50.03560638, 53.69388580, 1.00000000, 0.00000000, 0.00000000, 0.00000000, 0.57159674, 1.78166938, -0.58432972, 0.00000000, 0.00000000, 0.00000000, 0.00000000
1, 0.3099, 31, 0.05405013, -2.26960063, 0.74308699, -0.89516836, -55.03277206, -217.14996338, 0.00000000, 0.00000000, 0.00000000, 120.78372955, 52.18689346, 54.68902588, 1.00000000, 0.00000000, 0.00000000, 0.00000000, 0.72711492, 1.73186827, -0.42605579, 0.00000000, 0.00000000, 0.00000000, 0.00000000
1, 0.3199, 32, 0.26881260, -2.14719772, 0.67040426, -4.20496082, -50.79386520, -210.89978027, 0.00000000, 0.00000000, 0.00000000, 121.60586548, 54.21059418, 55.69461060, 1.00000000, 0.00000000, 0.00000000, 0.00000000, 0.53496355, 1.63869214, -0.36175200, 0.00000000, 0.00000000, 0.00000000, 0.00000000
1, 0.3299, 33, 0.46506181, -1.98292768, 0.47131193, -0.97789854, -25.90590096, -193.09420776, 0.00000000, 0.00000000, 0.00000000, 122.75585175, 55.98295975, 57.10869980, 1.00000000, 0.00000000, 0.00000000, 0.00000000, 0.35736853, 1.50227785, -0.16717164, 0.00000000, 0.00000000, 0.00000000, 0.00000000
1, 0.3399, 34, 0.80367911, -1.86843979, 0.48014566, 1.50661564, -26.98977089, -169.05857849, 0.00000000, 0.00000000, 0.00000000, 123.84261322, 57.54426956, 58.39032364, 1.00000000, 0.00000000, 0.00000000, 0.00000000, 0.03477465, 1.41380835, -0.17974290, 0.00000000, 0.00000000, 0.00000000, 0.00000000
1, 0.3499, 35, 0.32883018, -1.73794818, 0.49266705, 7.27978754, -66.21546936, -124.19886017, 0.00000000, 0.00000000, 0.00000000, 124.14960480, 58.94427109, 58.66737747, 1.00000000, 0.00000000, 0.00000000, 0.00000000, 0.52314693, 1.30463421, -0.19885072, 0.00000000, 0.00000000, 0.00000000, 0.00000000
1, 0.3599, 36, -0.21954109, -1.23696935, 0.41779596, -49.87502670, -75.18938446, -74.67746735, 0.00000000, 0.00000000, 0.00000000, 123.29566956, 59.98307037, 58.25507355, 1.00000000, 0.00000000, 0.00000000, 0.00000000, 1.08241224, 0.81629503, -0.13769129, 0.00000000, 0.00000000, 0.00000000, 0.00000000
1, 0.3699, 37, -0.18781887, -0.69824076, 0.21531548, -43.92863846, -9.29754162, -20.98598480, 0.00000000, 0.00000000, 0.00000000, 122.75523376, 59.78647614, 57.37284470, 1.00000000, 0.00000000, 0.00000000, 0.00000000, 1.05472267, 0.27964887, 0.05532537, 0.00000000, 0.00000000, 0.00000000, 0.00000000
1, 0.3799, 38, 0.19100742, -0.62425292, 0.19645789, 15.46271229, 67.58848572, 27.71867943, 0.00000000, 0.00000000, 0.00000000, 123.61277771, 59.18475723, 58.18851089, 1.00000000, 0.00000000, 0.00000000, 0.00000000, 0.67023683, 0.19923125, 0.08210661, 0.00000000, 0.00000000, 0.00000000, 0.00000000
1, 0.3899, 39, 0.39983994, -0.70232111, 0.25113168, 26.14185333, 95.74355316, 68.85042572, 0.00000000, 0.00000000, 0.00000000, 124.54201508, 58.07795334, 58.97008514, 1.00000000, 0.00000000, 0.00000000, 0.00000000, 0.45302141, 0.27065057, 0.04255350, 0.00000000, 0.00000000, 0.00000000, 0.00000000
1, 0.3999, 40, 0.38394511, -0.63191998, 0.23637490, 1.22006989, 101.29718781, 109.22399139, 0.00000000, 0.00000000, 0.00000000, 124.88264465, 56.60320282, 59.35954666, 1.00000000, 0.00000000, 0.00000000, 0.00000000, 0.45643955, 0.18693677, 0.07296014, 0.00000000, 0.00000000, 0.00000000, 0.00000000
1, 0.4099, 41, 0.32351673, -0.50177354, 0.16624112, -15.96453953, 105.27871704, 150.30679321, 0.00000000, 0.00000000, 0.00000000, 124.73265839, 54.76808929, 59.37075806, 1.00000000, 0.00000000, 0.00000000, 0.00000000, 0.50042504, 0.03657511, 0.15721819, 0.00000000, 0.00000000, 0.00000000, 0.00000000
1, 0.4199, 42, 0.29443806, -0.44072291, 0.09322137, -18.18850899, 111.87586975, 187.77250671, 0.00000000, 0.00000000, 0.00000000, 124.29324341, 52.55033112, 59.02280807, 1.00000000, 0.00000000, 0.00000000, 0.00000000, 0.50853062, -0.05042702, 0.24425319, 0.00000000, 0.00000000, 0.00000000, 0.00000000
1, 0.4299, 43, 0.27873942, -0.43115729, 0.03190498, -21.44723320, 109.63973999, 225.47920227, 0.00000000, 0.00000000, 0.00000000, 123.64158630, 50.06766891, 58.46199417, 1.00000000, 0.00000000, 0.00000000, 0.00000000, 0.49855679, -0.09090200, 0.31896442, 0.00000000, 0.00000000, 0.00000000, 0.00000000
1, 0.4399, 44, 0.26402792, -0.41437373, 0.00198723, -32.01705933, 101.36006927, 256.53692627, 0.00000000, 0.00000000, 0.00000000, 122.68940735, 47.36570358, 57.62027359, 1.00000000, 0.00000000, 0.00000000, 0.00000000, 0.48367366, -0.14198491, 0.36025530, 0.00000000, 0.00000000, 0.00000000, 0.00000000
1, 0.4499, 45, 0.24509352, -0.39508650, 0.01327325, -47.21852875, 96.91542053, 286.57669067, 0.00000000, 0.00000000, 0.00000000, 121.49347687, 44.42289352, 56.61197281, 1.00000000, 0.00000000, 0.00000000, 0.00000000, 0.46867663, -0.19902095, 0.35732314, 0.00000000, 0.00000000, 0.00000000, 0.00000000
1, 0.4599, 46, 0.26323643, -0.39943701, 0.04588114, -56.63605118, 91.24508667, 319.13851929, 0.00000000, 0.00000000, 0.00000000, 120.13846588, 41.21450424, 55.45148087, 1.00000000, 0.00000000, 0.00000000, 0.00000000, 0.41150433, -0.23535614, 0.33026665, 0.00000000, 0.00000000, 0.00000000, 0.00000000
1, 0.4699, 47, 0.25640830, -0.42540157, 0.08154458, -65.74935150, 95.09191895, 346.29660034, 0.00000000, 0.00000000, 0.00000000, 118.73236084, 37.72079849, 54.29204941, 1.00000000, 0.00000000, 0.00000000, 0.00000000, 0.37356710, -0.25189719, 0.29802400, 0.00000000, 0.00000000, 0.00000000, 0.00000000
1, 0.4799, 48, 0.22656374, -0.47908199, 0.04096476, -72.02796173, 93.20166016, 371.00747681, 0.00000000, 0.00000000, 0.00000000, 117.34628296, 34.00786209, 53.15555573, 1.00000000, 0.00000000, 0.00000000, 0.00000000, 0.35283738, -0.24130665, 0.33978716, 0.00000000, 0.00000000, 0.00000000, 0.00000000
1, 0.4899, 49, 0.20331666, -0.55579209, 0.04116877, -67.50160217, 87.16413116, 393.92727661, 0.00000000, 0.00000000, 0.00000000, 116.05089569, 30.09673691, 51.98691177, 1.00000000, 0.00000000, 0.00000000, 0.00000000, 0.32026720, -0.20630886, 0.33917972, 0.00000000, 0.00000000, 0.00000000, 0.00000000
1, 0.4999, 50, 0.18861540, -0.61697596, 0.07229714, -67.56341553, 83.50175476, 412.46893311, 0.00000000, 0.00000000, 0.00000000, 114.83273315, 26.01327324, 50.83359146, 1.00000000, 0.00000000, 0.00000000, 0.00000000, 0.27388257, -0.18449156, 0.30627629, 0.00000000, 0.00000000, 0.00000000, 0.00000000
1, 0.5099, 51, 0.23181795, -0.64625943, 0.06279057, -67.90766907, 75.48985291, 425.95806885, 0.00000000, 0.00000000, 0.00000000, 113.68274689, 21.81949425, 49.67277908, 1.00000000, 0.00000000, 0.00000000, 0.00000000, 0.16527051, -0.19129813, 0.31187049, 0.00000000, 0.00000000, 0.00000000, 0.00000000
1, 0.5199, 52, 0.24505810, -0.70287883, 0.10378884, -60.09087372, 79.82852936, 437.42794800, 0.00000000, 0.00000000, 0.00000000, 112.70983887, 17.48805046, 48.63389206, 1.00000000, 0.00000000, 0.00000000, 0.00000000, 0.08245608, -0.16623843, 0.26621193, 0.00000000, 0.00000000, 0.00000000, 0.00000000
1, 0.5299, 53, 0.25413579, -0.82846689, 0.18475580, -49.83980942, 98.07962799, 447.00222778, 0.00000000, 0.00000000, 0.00000000, 111.99420166, 12.98098946, 47.81312180, 1.00000000, 0.00000000, 0.00000000, 0.00000000, -0.00066342, -0.06664184, 0.18134958, 0.00000000, 0.00000000, 0.00000000, 0.00000000
1, 0.5399, 54, 0.28475240, -0.98954040, 0.24959788, -44.14506912, 117.37482452, 455.85708618, 0.00000000, 0.00000000, 0.00000000, 111.43902588, 8.31188011, 47.20689774, 1.00000000, 0.00000000, 0.00000000, 0.00000000, -0.10983881, 0.07457757, 0.11333092, 0.00000000, 0.00000000, 0.00000000, 0.00000000
1, 0.5499, 55, 0.34922659, -1.18258786, 0.28346318, -43.97712708, 133.91151428, 457.78244019, 0.00000000, 0.00000000, 0.00000000, 110.95591736, 3.55981731, 46.79817963, 1.00000000, 0.00000000, 0.00000000, 0.00000000, -0.25615272, 0.25413573, 0.07538372, 0.00000000, 0.00000000, 0.00000000, 0.00000000
1, 0.5599, 56, 0.50844747, -1.35258937, 0.35710362, -38.46443176, 143.16857910, 448.60202026, 0.00000000, 0.00000000, 0.00000000, 110.56534576, -1.14222872, 46.54720306, 1.00000000, 0.00000000, 0.00000000, 0.00000000, -0.49778491, 0.41747034, -0.00367476, 0.00000000, 0.00000000, 0.00000000, 0.00000000
1, 0.5699, 57, 0.77229774, -1.52636826, 0.39075330, -34.56603241, 133.00714111, 426.12307739, 0.00000000, 0.00000000, 0.00000000, 110.22735596, -5.56512451, 46.36801147, 1.00000000, 0.00000000, 0.00000000, 0.00000000, -0.84109795, 0.59124660, -0.04382947, 0.00000000, 0.00000000, 0.00000000, 0.00000000
1, 0.5799, 58, 1.23301828, -1.69579709, 0.50343180, -34.50137329, 117.06229401, 394.43585205, 0.00000000, 0.00000000, 0.00000000, 109.91613770, -9.67151928, 46.11137390, 1.00000000, 0.00000000, 0.00000000, 0.00000000, -1.37493920, 0.76600230, -0.16439608, 0.00000000, 0.00000000, 0.00000000, 0.00000000
1, 0.5899, 59, 1.70867229, -1.95195913, 0.77198702, -36.69830704, 127.49516296, 346.51556396, 0.00000000, 0.00000000, 0.00000000, 109.54069519, -13.36334610, 46.14211273, 1.00000000, 0.00000000, 0.00000000, 0.00000000, -1.91680968, 1.03120399, -0.44248608, 0.00000000, 0.00000000, 0.00000000, 0.00000000
1, 0.5999, 60, 2.10757375, -2.21964812, 1.12034345, -23.53755951, 134.54173279, 280.27322388, 0.00000000, 0.00000000, 0.00000000, 109.21434784, -16.45360947, 46.49335861, 1.00000000, 0.00000000, 0.00000000, 0.00000000, -2.37226081, 1.30979562, -0.80113745, 0.00000000, 0.00000000, 0.00000000, 0.00000000
1, 0.6099, 61, 2.04896092, -1.66230738, 1.17448187, -92.55990601, 109.25251007, 224.87509155, 0.00000000, 0.00000000, 0.00000000, 108.19020081, -18.93456650, 46.81787872, 1.00000000, 0.00000000, 0.00000000, 0.00000000, -2.35867357, 0.76157296, -0.87020218, 0.00000000, 0.00000000, 0.00000000, 0.00000000
1, 0.6199, 62, 2.19438386, -0.51813084, 0.93887186, -128.09419250, 94.38427734, 175.22714233, 0.00000000, 0.00000000, 0.00000000, 106.78051758, -20.85503006, 47.25279999, 1.00000000, 0.00000000, 0.00000000, 0.00000000, -2.53945613, -0.37808570, -0.66030610, 0.00000000, 0.00000000, 0.00000000, 0.00000000
1, 0.6299, 63, 2.44353724, -0.25852197, 0.94215465, -29.42595673, 103.98667908, 108.94833374, 0.00000000, 0.00000000, 0.00000000, 106.21374512, -22.19422150, 47.99321365, 1.00000000, 0.00000000, 0.00000000, 0.00000000, -2.81403232, -0.63262677, -0.68034309, 0.00000000, 0.00000000, 0.00000000, 0.00000000
1, 0.6399, 64, 2.55947375, -0.29825294, 0.96204990, -5.08161449, 84.61441040, 47.08744431, 0.00000000, 0.00000000, 0.00000000, 105.87911987, -22.88076401, 48.73254395, 1.00000000, 0.00000000, 0.00000000, 0.00000000, -2.94486356, -0.58869827, -0.70752966, 0.00000000, 0.00000000, 0.00000000, 0.00000000
1, 0.6499, 65, 2.51206636, -0.15249351, 0.89978212, -5.19819260, 60.35858154, -2.61470222, 0.00000000, 0.00000000, 0.00000000, 105.57770538, -23.01909256, 49.37115479, 1.00000000, 0.00000000, 0.00000000, 0.00000000, -2.90294743, -0.73370934, -0.65107584, 0.00000000, 0.00000000, 0.00000000, 0.00000000
1, 0.6599, 66, 2.31944466, -0.17846365, 0.85951692, 17.05641365, 30.71433640, -54.64908981, 0.00000000, 0.00000000, 0.00000000, 105.56176758, -22.57487106, 49.85116577, 1.00000000, 0.00000000, 0.00000000, 0.00000000, -2.70681453, -0.70976633, -0.61256480, 0.00000000, 0.00000000, 0.00000000, 0.00000000
1, 0.6699, 67, 2.11367249, -0.38408145, 0.94808775, 49.31978607, 4.47658539, -108.91822052, 0.00000000, 0.00000000, 0.00000000, 105.93141174, -21.48839569, 50.27266693, 1.00000000, 0.00000000, 0.00000000, 0.00000000, -2.48739147, -0.50839520, -0.69553196, 0.00000000, 0.00000000, 0.00000000, 0.00000000
1, 0.6799, 68, 1.66503227, -0.16096646, 1.14411795, 27.86939812, 7.69912910, -138.68122864, 0.00000000, 0.00000000, 0.00000000, 106.03701019, -20.17634392, 50.76012802, 1.00000000, 0.00000000, 0.00000000, 0.00000000, -2.01819968, -0.73838848, -0.88645279, 0.00000000, 0.00000000, 0.00000000, 0.00000000
1, 0.6899, 69, 0.42326382, -0.99103189, 0.39399377, 109.49420166, -42.62492752, -186.48884583, 0.00000000, 0.00000000, 0.00000000, 107.08551025, -18.26466942, 50.88834000, 1.00000000, 0.00000000, 0.00000000, 0.00000000, -0.74949253, 0.08501326, -0.12459591, 0.00000000, 0.00000000, 0.00000000, 0.00000000
1, 0.6999, 70, 0.20527890, -3.60907817, -0.40540108, 138.99166870, -240.13432312, -211.73481750, 0.00000000, 0.00000000, 0.00000000, 108.97212219, -15.50786781, 49.18967056, 1.00000000, 0.00000000, 0.00000000, 0.00000000, -0.49052861, 2.69935060, 0.70667464, 0.00000000, 0.00000000, 0.00000000, 0.00000000
1, 0.7099, 71, -0.42117909, -3.45776916, 1.06527555, 158.45373535, 46.06171799, -151.60420227, 0.00000000, 0.00000000, 0.00000000, 110.29696655, -14.24298954, 50.18418121, 1.00000000, 0.00000000, 0.00000000, 0.00000000, 0.16133180, 2.55149388, -0.73205751, 0.00000000, 0.00000000, 0.00000000, 0.00000000
1, 0.7199, 72, 0.75397950, -1.38767767, -0.20814864, -105.30009460, 24.63528252, -333.55960083, 0.00000000, 0.00000000, 0.00000000, 108.88951111, -11.03692245, 51.81591415, 1.00000000, 0.00000000, 0.00000000, 0.00000000, -0.96620429, 0.46570608, 0.53164959, 0.00000000, 0.00000000, 0.00000000, 0.00000000
1, 0.7299, 73, 1.41824269, -0.11458634, 0.48336339, 106.17099762, 98.57888031, -329.04650879, 0.00000000, 0.00000000, 0.00000000, 109.61672974, -8.25162792, 53.85152435, 1.00000000, 0.00000000, 0.00000000, 0.00000000, -1.57876611, -0.81745100, -0.15880173, 0.00000000, 0.00000000, 0.00000000, 0.00000000
1, 0.7399, 74, 1.91933632, -0.13893022, 1.18753922, 175.98655701, 15.95218468, -278.32516479, 0.00000000, 0.00000000, 0.00000000, 111.22779846, -5.69237375, 54.98359680, 1.00000000, 0.00000000, 0.00000000, 0.00000000, -2.03607368, -0.79046470, -0.83772320, 0.00000000, 0.00000000, 0.00000000, 0.00000000
1, 0.7499, 75, 1.23420811, -0.46859041, 0.11341830, 117.98435974, -153.82296753, -238.87873840, 0.00000000, 0.00000000, 0.00000000, 112.44882965, -2.90282297, 54.44424820, 1.00000000, 0.00000000, 0.00000000, 0.00000000, -1.30235755, -0.45608097, 0.26091909, 0.00000000, 0.00000000, 0.00000000, 0.00000000
1, 0.7599, 76, 0.79399133, -0.66080117, -0.50056678, 28.09946251, -30.63992691, -205.98280334, 0.00000000, 0.00000000, 0.00000000, 112.71672821, -0.88446122, 54.95523453, 1.00000000, 0.00000000, 0.00000000, 0.00000000, -0.82151389, -0.26133883, 0.88632965, 0.00000000, 0.00000000, 0.00000000, 0.00000000
1, 0.7699, 77, 0.80944240, -0.52133858, 0.13546576, 24.55077744, -26.45557785, -170.80422974, 0.00000000, 0.00000000, 0.00000000, 112.97408295, 0.95598263, 55.62643433, 1.00000000, 0.00000000, 0.00000000, 0.00000000, -0.80582654, -0.40055394, 0.25184968, 0.00000000, 0.00000000, 0.00000000, 0.00000000
1, 0.7799, 78, 0.79470897, -0.65235037, 0.57088327, 107.46652222, -55.57247162, -125.36964417, 0.00000000, 0.00000000, 0.00000000, 114.04882050, 2.32701087, 55.61603928, 1.00000000, 0.00000000, 0.00000000, 0.00000000, -0.76234704, -0.26322874, -0.17013657, 0.00000000, 0.00000000, 0.00000000, 0.00000000
1, 0.7899, 79, 0.70869988, -0.87148011, 0.57999593, 73.33470154, -63.02585983, -91.03887939, 0.00000000, 0.00000000, 0.00000000, 114.77153015, 3.41715360, 55.41899109, 1.00000000, 0.00000000, 0.00000000, 0.00000000, -0.65630406, -0.03688082, -0.16515118, 0.00000000, 0.00000000, 0.00000000, 0.00000000
1, 0.7999, 80, 0.58506477, -1.26054096, 0.59087539, 37.00991058, -60.53334427, -67.34352112, 0.00000000, 0.00000000, 0.00000000, 115.12394714, 4.28300285, 55.15354538, 1.00000000, 0.00000000, 0.00000000, 0.00000000, -0.51566267, 0.35640877, -0.16931936, 0.00000000, 0.00000000, 0.00000000, 0.00000000
1, 0.8099, 81, 0.50244457, -1.69257927, 0.58753347, 37.62572479, -36.15567398, -52.80184937, 0.00000000, 0.00000000, 0.00000000, 115.49218750, 4.91479969, 55.05191803, 1.00000000, 0.00000000, 0.00000000, 0.00000000, -0.42058879, 0.79189456, -0.16085519, 0.00000000, 0.00000000, 0.00000000, 0.00000000
1, 0.8199, 82, 0.36903548, -1.41716063, 0.63955617, 20.54958534, -19.83441353, -59.36509323, 0.00000000, 0.00000000, 0.00000000, 115.71212006, 5.59164429, 55.22379303, 1.00000000, 0.00000000, 0.00000000, 0.00000000, -0.27679530, 0.51968563, -0.20825949, 0.00000000, 0.00000000, 0.00000000, 0.00000000
1, 0.8299, 83, 0.38574597, -0.95928913, 0.56841689, -11.38455009, -20.08352661, -70.56160736, 0.00000000, 0.00000000, 0.00000000, 115.61142731, 6.31468105, 55.34889603, 1.00000000, 0.00000000, 0.00000000, 0.00000000, -0.28025997, 0.06276812, -0.13817194, 0.00000000, 0.00000000, 0.00000000, 0.00000000
1, 0.8399, 84, 0.53137767, -1.11341727, 0.52823448, 35.23033142, -7.01800251, -63.59347153, 0.00000000, 0.00000000, 0.00000000, 115.98844147, 6.91792011, 55.56351089, 1.00000000, 0.00000000, 0.00000000, 0.00000000, -0.41471890, 0.21934895, -0.09577685, 0.00000000, 0.00000000, 0.00000000, 0.00000000
1, 0.8499, 85, 0.59283429, -1.27095604, 0.43498746, 32.87497330, -17.75926208, -52.56181717, 0.00000000, 0.00000000, 0.00000000, 116.32621765, 7.46804667, 55.63665390, 1.00000000, 0.00000000, 0.00000000, 0.00000000, -0.46640965, 0.38112277, 0.00342364, 0.00000000, 0.00000000, 0.00000000, 0.00000000
1, 0.8599, 86, 0.55926311, -1.18608117, 0.41504982, -1.56795132, -27.43532562, -44.16971207, 0.00000000, 0.00000000, 0.00000000, 116.30369568, 7.98560715, 55.58626556, 1.00000000, 0.00000000, 0.00000000, 0.00000000, -0.42363027, 0.29813600, 0.02443947, 0.00000000, 0.00000000, 0.00000000, 0.00000000
1, 0.8699, 87, 0.57465994, -0.95460480, 0.48030016, -14.13378716, -33.67106628, -35.98731613, 0.00000000, 0.00000000, 0.00000000, 116.14730835, 8.67043972, 55.79763794, 1.00000000, 0.00000000, 0.00000000, 0.00000000, -0.42965680, 0.06688888, -0.04335550, 0.00000000, 0.00000000, 0.00000000, 0.00000000
1, 0.8799, 88, 0.55087346, -0.90057665, 0.40618950, -6.27788401, -51.16165161, -25.73768616, 0.00000000, 0.00000000, 0.00000000, 116.03019714, 9.12652397, 55.44705582, 1.00000000, 0.00000000, 0.00000000, 0.00000000, -0.39517933, 0.01325908, 0.02788640, 0.00000000, 0.00000000, 0.00000000, 0.00000000
1, 0.8899, 89, 0.39021486, -1.05424404, 0.29749590, 2.28983927, -68.03549194, -18.48185158, 0.00000000, 0.00000000, 0.00000000, 115.96556091, 9.59083366, 54.90936279, 1.00000000, 0.00000000, 0.00000000, 0.00000000, -0.22665997, 0.16746685, 0.13478944, 0.00000000, 0.00000000, 0.00000000, 0.00000000
1, 0.8999, 90, 0.11143434, -1.20306981, 0.39792827, -0.21494713, -74.38717651, -12.66385746, 0.00000000, 0.00000000, 0.00000000, 115.85727692, 10.02986431, 54.28654861, 1.00000000, 0.00000000, 0.00000000, 0.00000000, 0.05995591, 0.31685299, 0.03246730, 0.00000000, 0.00000000, 0.00000000, 0.00000000
1, 0.9099, 91, -0.02113929, -1.23698163, 0.53586692, -6.24494743, -64.28471375, -14.99082947, 0.00000000, 0.00000000, 0.00000000, 115.70217133, 10.44448471, 53.76460648, 1.00000000, 0.00000000, 0.00000000, 0.00000000, 0.19974156, 0.35085857, -0.10821944, 0.00000000, 0.00000000, 0.00000000, 0.00000000
1, 0.9199, 92, 0.07508025, -1.13491416, 0.58224010, -8.96523476, -45.77183914, -26.88369370, 0.00000000, 0.00000000, 0.00000000, 115.56156921, 10.82532120, 53.35827255, 1.00000000, 0.00000000, 0.00000000, 0.00000000, 0.11059778, 0.24885367, -0.15748551, 0.00000000, 0.00000000, 0.00000000, 0.00000000
1, 0.9299, 93, 0.03011156, -1.03536403, 0.43503094, -14.26955414, -39.24340820, -38.18624496, 0.00000000, 0.00000000, 0.00000000, 115.38169861, 11.33887386, 53.16466522, 1.00000000, 0.00000000, 0.00000000, 0.00000000, 0.16316882, 0.14947577, -0.01332303, 0.00000000, 0.00000000, 0.00000000, 0.00000000
1, 0.9399, 94, -0.00410614, -0.88399565, 0.40096042, -22.83622742, -28.41687584, -42.20605087, 0.00000000, 0.00000000, 0.00000000, 115.13765717, 11.84188843, 53.08620071, 1.00000000, 0.00000000, 0.00000000, 0.00000000, 0.20614365, -0.00194913, 0.01650262, 0.00000000, 0.00000000, 0.00000000, 0.00000000
1, 0.9499, 95, 0.10316986, -0.76727653, 0.33339605, -19.58042145, -14.49903107, -45.72164154, 0.00000000, 0.00000000, 0.00000000, 114.95525360, 12.31754017, 53.14975357, 1.00000000, 0.00000000, 0.00000000, 0.00000000, 0.10713904, -0.11866169, 0.07997759, 0.00000000, 0.00000000, 0.00000000, 0.00000000
1, 0.9599, 96, 0.16525614, -0.74198520, 0.26949173, -11.58157921, -5.32001781, -52.69349289, 0.00000000, 0.00000000, 0.00000000, 114.87820435, 12.81786823, 53.32773590, 1.00000000, 0.00000000, 0.00000000, 0.00000000, 0.05337550, -0.14309712, 0.14138934, 0.00000000, 0.00000000, 0.00000000, 0.00000000
1, 0.9699, 97, 0.19538584, -0.73897290, 0.26756561, -8.41253567, -0.01137887, -57.30696869, 0.00000000, 0.00000000, 0.00000000, 114.79914093, 13.36724949, 53.63367844, 1.00000000, 0.00000000, 0.00000000, 0.00000000, 0.03209502, -0.14467676, 0.14158984, 0.00000000, 0.00000000, 0.00000000, 0.00000000
1, 0.9799, 98, 0.23826195, -0.72475439, 0.25244266, -5.26569223, 0.40088287, -61.27793503, 0.00000000, 0.00000000, 0.00000000, 114.80973053, 13.92183685, 53.90191650, 1.00000000, 0.00000000, 0.00000000, 0.00000000, -0.00125383, -0.15713906, 0.15509099, 0.00000000, 0.00000000, 0.00000000, 0.00000000
1, 0.9899, 99, 0.26367164, -0.68278974, 0.29416254, -0.11482828, -2.75368547, -66.50543213, 0.00000000, 0.00000000, 0.00000000, 114.87305450, 14.53694439, 54.16431427, 1.00000000, 0.00000000, 0.00000000, 0.00000000, -0.01665718, -0.19653639, 0.11297394, 0.00000000, 0.00000000, 0.00000000, 0.00000000
1, 0.9999, 100, 0.26903075, -0.68301314, 0.26344633, 4.50662184, -5.28260183, -72.27902985, 0.00000000, 0.00000000, 0.00000000, 114.98630524, 15.21466160, 54.42994690, 1.00000000, 0.00000000, 0.00000000, 0.00000000, -0.01095647, -0.19300413, 0.14396003, 0.00000000, 0.00000000, 0.00000000, 0.00000000
1, 1.0099, 101, 0.17544539, -0.67172325, 0.28703669, 4.09642315, -8.42998886, -77.77085876, 0.00000000, 0.00000000, 0.00000000, 115.09780884, 15.95494366, 54.69244003, 1.00000000, 0.00000000, 0.00000000, 0.00000000, 0.09469458, -0.20048203, 0.12072416, 0.00000000, 0.00000000, 0.00000000, 0.00000000
1, 1.0199, 102, 0.21328928, -0.65232635, 0.28540403, 5.23992205, -7.08765411, -82.14381409, 0.00000000, 0.00000000, 0.00000000, 115.20771027, 16.73135757, 54.99592972, 1.00000000, 0.00000000, 0.00000000, 0.00000000, 0.06964517, -0.21572641, 0.12253924, 0.00000000, 0.00000000, 0.00000000, 0.00000000
1, 1.0299, 103, 0.22029284, -0.68362504, 0.27689788, 9.65098286, -5.09209156, -86.77655029, 0.00000000, 0.00000000, 0.00000000, 115.40451050, 17.53760147, 55.33590698, 1.00000000, 0.00000000, 0.00000000, 0.00000000, 0.07597755, -0.17967139, 0.13166881, 0.00000000, 0.00000000, 0.00000000, 0.00000000
1, 1.0399, 104, 0.28412396, -0.77262807, 0.21474552, 8.55656815, 0.62213218, -93.80044556, 0.00000000, 0.00000000, 0.00000000, 115.62281036, 18.38145065, 55.76657867, 1.00000000, 0.00000000, 0.00000000, 0.00000000, 0.02586134, -0.08518197, 0.19519699, 0.00000000, 0.00000000, 0.00000000, 0.00000000
1, 1.0499, 105, 0.30878353, -0.85997576, 0.21545079, 5.34579134, -3.75364757, -102.35233307, 0.00000000, 0.00000000, 0.00000000, 115.81637573, 19.31984711, 56.20023346, 1.00000000, 0.00000000, 0.00000000, 0.00000000, 0.01611050, 0.00811243, 0.19534133, 0.00000000, 0.00000000, 0.00000000, 0.00000000
1, 1.0599, 106, 0.31960061, -1.01028860, 0.21980113, 3.50515223, -9.93451786, -111.43223572, 0.00000000, 0.00000000, 0.00000000, 115.99475098, 20.36560631, 56.62280273, 1.00000000, 0.00000000, 0.00000000, 0.00000000, 0.02183696, 0.16500621, 0.19116184, 0.00000000, 0.00000000, 0.00000000, 0.00000000
1, 1.0699, 107, 0.17144527, -1.20499802, 0.16089712, 0.83926260, -14.01086140, -117.62487030, 0.00000000, 0.00000000, 0.00000000, 116.06032562, 21.39251328, 56.86446762, 1.00000000, 0.00000000, 0.00000000, 0.00000000, 0.18753202, 0.36665672, 0.24933988, 0.00000000, 0.00000000, 0.00000000, 0.00000000
1, 1.0799, 108, 0.09727454, -1.30900240, 0.16803998, -2.14571953, -16.09874916, -123.98262787, 0.00000000, 0.00000000, 0.00000000, 116.20087433, 22.57655525, 57.29737091, 1.00000000, 0.00000000, 0.00000000, 0.00000000, 0.27934968, 0.47742659, 0.24012867, 0.00000000, 0.00000000, 0.00000000, 0.00000000
1, 1.0899, 109, 0.10942710, -1.42555130, 0.07591152, 5.40723372, -27.88966942, -136.13101196, 0.00000000, 0.00000000, 0.00000000, 116.40643311, 23.92053795, 57.68169785, 1.00000000, 0.00000000, 0.00000000, 0.00000000, 0.28772888, 0.60300577, 0.33107829, 0.00000000, 0.00000000, 0.00000000, 0.00000000
1, 1.0999, 110, 0.01910611, -1.51568413, -0.00348709, 6.10833836, -46.40677643, -149.58724976, 0.00000000, 0.00000000, 0.00000000, 116.58303833, 25.46634293, 57.95908737, 1.00000000, 0.00000000, 0.00000000, 0.00000000, 0.40144655, 0.70391870, 0.40859538, 0.00000000, 0.00000000, 0.00000000, 0.00000000
1, 1.1099, 111, 0.02440359, -1.51063681, -0.10978427, 14.74444962, -73.12064362, -159.82490540, 0.00000000, 0.00000000, 0.00000000, 116.76155090, 27.22279167, 58.03016663, 1.00000000, 0.00000000, 0.00000000, 0.00000000, 0.42254031, 0.71142447, 0.51156110, 0.00000000, 0.00000000, 0.00000000, 0.00000000
1, 1.1199, 112, 0.03544862, -1.52647054, -0.21226439, 28.11676979, -96.52908325, -170.22158813, 0.00000000, 0.00000000, 0.00000000, 116.92673492, 29.13194847, 57.81855392, 1.00000000, 0.00000000, 0.00000000, 0.00000000, 0.44037518, 0.74205744, 0.61000675, 0.00000000, 0.00000000, 0.00000000, 0.00000000
1, 1.1299, 113, -0.05391061, -1.57785869, -0.31647229, 40.48326874, -127.61035919, -180.11891174, 0.00000000, 0.00000000, 0.00000000, 117.14517212, 31.31646156, 57.45017624, 1.00000000, 0.00000000, 0.00000000, 0.00000000, 0.56106097, 0.81045079, 0.70860100, 0.00000000, 0.00000000, 0.00000000, 0.00000000
1, 1.1399, 114, -0.34304771, -1.66614330, -0.37670004, 53.88320541, -163.75068665, -183.54383850, 0.00000000, 0.00000000, 0.00000000, 117.29005432, 33.69776917, 56.71872330, 1.00000000, 0.00000000, 0.00000000, 0.00000000, 0.88460505, 0.91882223, 0.76152349, 0.00000000, 0.00000000, 0.00000000, 0.00000000
1, 1.1499, 115, -0.43519562, -1.77650392, -0.21758330, 62.97222519, -183.66864014, -180.95007324, 0.00000000, 0.00000000, 0.00000000, 117.35995483, 36.14843369, 55.74128723, 1.00000000, 0.00000000, 0.00000000, 0.00000000, 1.01199460, 1.05089569, 0.59262007, 0.00000000, 0.00000000, 0.00000000, 0.00000000
1, 1.1599, 116, -0.31839362, -1.99758410, 0.00891211, 77.23133087, -186.52761841, -185.51557922, 0.00000000, 0.00000000, 0.00000000, 117.52033997, 38.65415955, 54.73307800, 1.00000000, 0.00000000, 0.00000000, 0.00000000, 0.93000317, 1.29554212, 0.35566923, 0.00000000, 0.00000000, 0.00000000, 0.00000000
1, 1.1699, 117, -0.33794317, -2.34679794, 0.34278977, 93.99725342, -161.38554382, -195.69638062, 0.00000000, 0.00000000, 0.00000000, 118.02058411, 41.11244965, 54.00962830, 1.00000000, 0.00000000, 0.00000000, 0.00000000, 0.98342335, 1.67125726, 0.01337548, 0.00000000, 0.00000000, 0.00000000, 0.00000000
1, 1.1799, 118, -0.21008454, -2.67104626, 0.57198632, 103.04121399, -136.16473389, -205.95674133, 0.00000000, 0.00000000, 0.00000000, 118.85470581, 43.57158279, 53.71699142, 1.00000000, 0.00000000, 0.00000000, 0.00000000, 0.88750339, 2.02485371, -0.22072400, 0.00000000, 0.00000000, 0.00000000, 0.00000000
1, 1.1899, 119, 0.10243630, -2.76903868, 0.77294290, 85.47940826, -115.80728912, -213.97138977, 0.00000000, 0.00000000, 0.00000000, 119.74813080, 46.00387955, 53.77016449, 1.00000000, 0.00000000, 0.00000000, 0.00000000, 0.60594773, 2.15419984, -0.42650819, 0.00000000, 0.00000000, 0.00000000, 0.00000000
1, 1.1999, 120, 0.09453088, -2.58060670, 1.02582097, 59.77862930, -71.49272156, -209.93203735, 0.00000000, 0.00000000, 0.00000000, 120.82275391, 48.17678833, 54.41955566, 1.00000000, 0.00000000, 0.00000000, 0.00000000, 0.64127421, 1.99664891, -0.68309331, 0.00000000, 0.00000000, 0.00000000, 0.00000000
1, 1.2099, 121, -0.01554823, -2.42279577, 1.01366770, 17.41645432, -56.97265244, -217.95693970, 0.00000000, 0.00000000, 0.00000000, 121.74755096, 50.33484268, 55.41025162, 1.00000000, 0.00000000, 0.00000000, 0.00000000, 0.77609640, 1.86888182, -0.67510456, 0.00000000, 0.00000000, 0.00000000, 0.00000000
1, 1.2199, 122, 0.19752143, -2.30335045, 0.78942949, -9.81965065, -65.42496490, -221.31054688, 0.00000000, 0.00000000, 0.00000000, 122.41708374, 52.52650833, 56.34095383, 1.00000000, 0.00000000, 0.00000000, 0.00000000, 0.58746141, 1.77890480, -0.45982191, 0.00000000, 0.00000000, 0.00000000, 0.00000000
1, 1.2299, 123, 0.37126791, -2.10553360, 0.70836806, -2.58245492, -36.87992477, -209.98562622, 0.00000000, 0.00000000, 0.00000000, 123.51875305, 54.48904800, 57.74197388, 1.00000000, 0.00000000, 0.00000000, 0.00000000, 0.43540061, 1.61031175, -0.38596791, 0.00000000, 0.00000000, 0.00000000, 0.00000000
1, 1.2399, 124, 0.54626554, -1.97239840, 0.56639743, -5.00739670, -32.22640991, -193.17189026, 0.00000000, 0.00000000, 0.00000000, 124.64924622, 56.26963806, 59.17748260, 1.00000000, 0.00000000, 0.00000000, 0.00000000, 0.27890354, 1.50556254, -0.24847108, 0.00000000, 0.00000000, 0.00000000, 0.00000000
1, 1.2499, 125, 0.22918187, -1.84700930, 0.52137166, 2.44627714, -78.48892975, -147.36579895, 0.00000000, 0.00000000, 0.00000000, 124.97623444, 57.92768097, 59.53968048, 1.00000000, 0.00000000, 0.00000000, 0.00000000, 0.61257714, 1.40448606, -0.21225742, 0.00000000, 0.00000000, 0.00000000, 0.00000000
1, 1.2599, 126, -0.32438117, -1.46602070, 0.54468054, -28.80994034, -86.69847107, -87.77537537, 0.00000000, 0.00000000, 0.00000000, 124.34037018, 59.14292145, 59.13217163, 1.00000000, 0.00000000, 0.00000000, 0.00000000, 1.17915154, 1.03898239, -0.24977177, 0.00000000, 0.00000000, 0.00000000, 0.00000000
1, 1.2699, 127, -0.23663482, -0.87890297, 0.26820719, -55.02500916, -17.20957375, -42.78239441, 0.00000000, 0.00000000, 0.00000000, 123.71170807, 59.15040970, 58.26861572, 1.00000000, 0.00000000, 0.00000000, 0.00000000, 1.09718609, 0.45642373, 0.01631614, 0.00000000, 0.00000000, 0.00000000, 0.00000000
1, 1.2799, 128, 0.17471007, -0.68422771, 0.11939303, 2.60589671, 56.30159378, 2.64918804, 0.00000000, 0.00000000, 0.00000000, 124.48931122, 58.81326294, 59.14513016, 1.00000000, 0.00000000, 0.00000000, 0.00000000, 0.68240166, 0.25779223, 0.16957483, 0.00000000, 0.00000000, 0.00000000, 0.00000000
1, 1.2899, 129, 0.33651233, -0.81200069, 0.20003785, 41.58591080, 80.83046722, 48.41404343, 0.00000000, 0.00000000, 0.00000000, 125.52951813, 57.95309067, 59.87784958, 1.00000000, 0.00000000, 0.00000000, 0.00000000, 0.51428604, 0.38243580, 0.10260017, 0.00000000, 0.00000000, 0.00000000, 0.00000000
1, 1.2999, 130, 0.26070270, -0.73634630, 0.18590124, 2.81111813, 79.68088531, 105.23984528, 0.00000000, 0.00000000, 0.00000000, 125.61283875, 56.63354874, 59.94298172, 1.00000000, 0.00000000, 0.00000000, 0.00000000, 0.57947046, 0.29563674, 0.13007337, 0.00000000, 0.00000000, 0.00000000, 0.00000000
1, 1.3099, 131, 0.20801437, -0.57119727, 0.10130906, -19.97669983, 91.49560547, 148.91596985, 0.00000000, 0.00000000, 0.00000000, 125.24042511, 54.88970566, 59.73389053, 1.00000000, 0.00000000, 0.00000000, 0.00000000, 0.61682498, 0.11037239, 0.22610889, 0.00000000, 0.00000000, 0.00000000, 0.00000000
1, 1.3199, 132, 0.22979215, -0.50571406, 0.05562907, -18.21972656, 104.52153015, 185.84875488, 0.00000000, 0.00000000, 0.00000000, 124.68755341, 52.71920776, 59.23550034, 1.00000000, 0.00000000, 0.00000000, 0.00000000, 0.57481974, 0.01897775, 0.28432202, 0.00000000, 0.00000000, 0.00000000, 0.00000000
1, 1.3299, 133, 0.25214112, -0.49802545, 0.04381355, -18.24184227, 102.66271210, 219.56547546, 0.00000000, 0.00000000, 0.00000000, 124.01301575, 50.32717133, 58.60612869, 1.00000000, 0.00000000, 0.00000000, 0.00000000, 0.52763104, -0.01911722, 0.30885413, 0.00000000, 0.00000000, 0.00000000, 0.00000000
1, 1.3399, 134, 0.23493220, -0.46766651, 0.05508557, -35.47030640, 96.88294983, 254.18157959, 0.00000000, 0.00000000, 0.00000000, 122.97390747, 47.67280579, 57.69873810, 1.00000000, 0.00000000, 0.00000000, 0.00000000, 0.51610076, -0.08352553, 0.30816835, 0.00000000, 0.00000000, 0.00000000, 0.00000000
1, 1.3499, 135, 0.19839604, -0.42684928, 0.04329885, -55.23316574, 91.47554016, 286.22567749, 0.00000000, 0.00000000, 0.00000000, 121.63201141, 44.76465607, 56.60489655, 1.00000000, 0.00000000, 0.00000000, 0.00000000, 0.51935673, -0.16255046, 0.32712159, 0.00000000, 0.00000000, 0.00000000, 0.00000000
1, 1.3599, 136, 0.15228602, -0.41190991, 0.03359745, -66.84581757, 85.58009338, 315.67935181, 0.00000000, 0.00000000, 0.00000000, 120.13219452, 41.61595917, 55.38998413, 1.00000000, 0.00000000, 0.00000000, 0.00000000, 0.52725857, -0.21877962, 0.34080911, 0.00000000, 0.00000000, 0.00000000, 0.00000000
1, 1.3699, 137, 0.12233790, -0.43683386, 0.05032390, -71.60520172, 83.13360596, 343.67242432, 0.00000000, 0.00000000, 0.00000000, 118.57985687, 38.18125916, 54.07118988, 1.00000000, 0.00000000, 0.00000000, 0.00000000, 0.51369524, -0.23682147, 0.32561320, 0.00000000, 0.00000000, 0.00000000, 0.00000000
1, 1.3799, 138, 0.13902454, -0.48853362, 0.04352999, -72.97523499, 90.75815582, 373.91265869, 0.00000000, 0.00000000, 0.00000000, 117.15461731, 34.45146561, 52.89847946, 1.00000000, 0.00000000, 0.00000000, 0.00000000, 0.44680265, -0.22902355, 0.33270290, 0.00000000, 0.00000000, 0.00000000, 0.00000000
1, 1.3899, 139, 0.19313265, -0.54600263, 0.09243876, -69.45042419, 92.20019531, 397.31787109, 0.00000000, 0.00000000, 0.00000000, 115.85691833, 30.48429871, 51.77522659, 1.00000000, 0.00000000, 0.00000000, 0.00000000, 0.33647805, -0.21400337, 0.28372109, 0.00000000, 0.00000000, 0.00000000, 0.00000000
1, 1.3999, 140, 0.21789527, -0.55644637, 0.11455750, -72.59958649, 85.14416504, 414.36987305, 0.00000000, 0.00000000, 0.00000000, 114.59207916, 26.37276077, 50.64313507, 1.00000000, 0.00000000, 0.00000000, 0.00000000, 0.25029695, -0.24376635, 0.25963607, 0.00000000, 0.00000000, 0.00000000, 0.00000000
1, 1.4099, 141, 0.23643994, -0.56738329, 0.11491402, -70.88549805, 80.89185333, 427.75561523, 0.00000000, 0.00000000, 0.00000000, 113.43149567, 22.13611031, 49.54533386, 1.00000000, 0.00000000, 0.00000000, 0.00000000, 0.16599533, -0.26967710, 0.25511229, 0.00000000, 0.00000000, 0.00000000, 0.00000000
1, 1.4199, 142, 0.27360198, -0.63703716, 0.14799900, -58.98106766, 93.24783325, 438.79754639, 0.00000000, 0.00000000, 0.00000000, 112.51896667, 17.74310875, 48.65878296, 1.00000000, 0.00000000, 0.00000000, 0.00000000, 0.05848891, -0.23201400, 0.21804202, 0.00000000, 0.00000000, 0.00000000, 0.00000000
1, 1.4299, 143, 0.34938490, -0.75621623, 0.20625678, -48.88171387, 113.13304138, 449.46041870, 0.00000000, 0.00000000, 0.00000000, 111.84957123, 13.15419006, 47.98563385, 1.00000000, 0.00000000, 0.00000000, 0.00000000, -0.09251249, -0.13906033, 0.15703541, 0.00000000, 0.00000000, 0.00000000, 0.00000000
1, 1.4399, 144, 0.41538256, -0.91375852, 0.25432712, -42.16723633, 123.83014679, 458.62139893, 0.00000000, 0.00000000, 0.00000000, 111.32523346, 8.43419266, 47.44071579, 1.00000000, 0.00000000, 0.00000000, 0.00000000, -0.23815581, -0.00160350, 0.10645575, 0.00000000, 0.00000000, 0.00000000, 0.00000000
1, 1.4499, 145, 0.50941139, -1.06989825, 0.32129157, -38.72122192, 129.21940613, 458.29272461, 0.00000000, 0.00000000, 0.00000000, 110.89019775, 3.69360876, 46.99332809, 1.00000000, 0.00000000, 0.00000000, 0.00000000, -0.41416267, 0.14112869, 0.03616719, 0.00000000, 0.00000000, 0.00000000, 0.00000000
1, 1.4599, 146, 0.72719795, -1.23345661, 0.29182801, -38.45087433, 125.01157379, 443.92550659, 0.00000000, 0.00000000, 0.00000000, 110.49591064, -0.90086424, 46.59416962, 1.00000000, 0.00000000, 0.00000000, 0.00000000, -0.71314502, 0.29796475, 0.06053313, 0.00000000, 0.00000000, 0.00000000, 0.00000000
1, 1.4699, 147, 1.19107378, -1.37513888, 0.42355400, -28.04465675, 115.66558838, 416.33682251, 0.00000000, 0.00000000, 0.00000000, 110.23061371, -5.16790581, 46.29253387, 1.00000000, 0.00000000, 0.00000000, 0.00000000, -1.25389469, 0.43943655, -0.07701726, 0.00000000, 0.00000000, 0.00000000, 0.00000000
1, 1.4799, 148, 1.68958521, -1.52029812, 0.64290643, -21.75565720, 114.72515869, 380.55044556, 0.00000000, 0.00000000, 0.00000000, 110.04190063, -9.13563728, 46.05784225, 1.00000000, 0.00000000, 0.00000000, 0.00000000, -1.82323480, 0.58986354, -0.30222532, 0.00000000, 0.00000000, 0.00000000, 0.00000000
1, 1.4899, 149, 2.13593125, -1.81440949, 0.83559531, -7.46299028, 90.95037079, 325.49786377, 0.00000000, 0.00000000, 0.00000000, 110.01736450, -12.50530243, 45.79409027, 1.00000000, 0.00000000, 0.00000000, 0.00000000, -2.33186102, 0.89306241, -0.50022209, 0.00000000, 0.00000000, 0.00000000, 0.00000000
1, 1.4999, 150, 2.41346049, -2.11388254, 1.16682458, 10.49085903, 70.31104279, 251.25834656, 0.00000000, 0.00000000, 0.00000000, 110.17195129, -15.10643864, 45.58435822, 1.00000000, 0.00000000, 0.00000000, 0.00000000, -2.65849996, 1.20369792, -0.83310425, 0.00000000, 0.00000000, 0.00000000, 0.00000000
1, 1.5099, 151, 2.43700576, -1.38945806, 1.15631258, -87.22304535, 60.24742508, 193.20602417, 0.00000000, 0.00000000, 0.00000000, 109.32553101, -17.12820244, 45.49090576, 1.00000000, 0.00000000, 0.00000000, 0.00000000, -2.71949053, 0.48661846, -0.83232391, 0.00000000, 0.00000000, 0.00000000, 0.00000000
1, 1.5199, 152, 2.50560570, -0.36957353, 0.79940796, -119.21824646, 50.05008698, 139.09004211, 0.00000000, 0.00000000, 0.00000000, 108.12969971, -18.57543755, 45.55535507, 1.00000000, 0.00000000, 0.00000000, 0.00000000, -2.81617355, -0.53165329, -0.49730682, 0.00000000, 0.00000000, 0.00000000, 0.00000000
1, 1.5299, 153, 2.56088614, -0.14575358, 0.83673000, -21.81818771, 50.91128922, 70.53630829, 0.00000000, 0.00000000, 0.00000000, 107.81897736, -19.40307236, 45.83824921, 1.00000000, 0.00000000, 0.00000000, 0.00000000, -2.88880920, -0.75338197, -0.54688978, 0.00000000, 0.00000000, 0.00000000, 0.00000000
1, 1.5399, 154, 2.65686703, -0.20445494, 0.88362443, 7.94858742, 44.10765457, 12.44955254, 0.00000000, 0.00000000, 0.00000000, 107.76274109, -19.65653229, 46.24346161, 1.00000000, 0.00000000, 0.00000000, 0.00000000, -2.99228096, -0.69247901, -0.59551656, 0.00000000, 0.00000000, 0.00000000, 0.00000000
1, 1.5499, 155, 2.59244800, -0.00610491, 0.75772864, -9.75163555, 24.98539925, -42.85657120, 0.00000000, 0.00000000, 0.00000000, 107.53458405, -19.32385063, 46.63368988, 1.00000000, 0.00000000, 0.00000000, 0.00000000, -2.92627239, -0.89239776, -0.47268659, 0.00000000, 0.00000000, 0.00000000, 0.00000000
1, 1.5599, 156, 2.20334864, -0.23964652, 0.68565565, 32.31013870, -2.17158818, -99.23387146, 0.00000000, 0.00000000, 0.00000000, 107.76232910, -18.37140465, 46.92886734, 1.00000000, 0.00000000, 0.00000000, 0.00000000, -2.52518535, -0.66272831, -0.39910129, 0.00000000, 0.00000000, 0.00000000, 0.00000000
1, 1.5699, 157, 1.75666356, -0.22314112, 0.93983203, 31.23380470, 9.40596962, -138.26481628, 0.00000000, 0.00000000, 0.00000000, 107.95236206, -17.02057266, 47.51712036, 1.00000000, 0.00000000, 0.00000000, 0.00000000, -2.05844855, -0.68395537, -0.64648002, 0.00000000, 0.00000000, 0.00000000, 0.00000000
1, 1.5799, 158, 0.74213243, -0.21543621, 1.00859523, 34.72405243, 17.57011414, -171.45968628, 0.00000000, 0.00000000, 0.00000000, 108.09526062, -15.44342709, 48.24212265, 1.00000000, 0.00000000, 0.00000000, 0.00000000, -1.01932085, -0.69850534, -0.71226734, 0.00000000, 0.00000000, 0.00000000, 0.00000000
1, 1.5899, 159, -0.18432695, -2.40580773, -0.60131127, 115.28133392, -196.24485779, -212.37957764, 0.00000000, 0.00000000, 0.00000000, 109.54293823, -12.79975796, 47.03371811, 1.00000000, 0.00000000, 0.00000000, 0.00000000, -0.05534937, 1.48780644, 0.91688418, 0.00000000, 0.00000000, 0.00000000, 0.00000000
1, 1.5999, 160, -0.02417358, -3.93044257, 1.16863513, 367.72070312, 112.97564697, -79.77524567, 0.00000000, 0.00000000, 0.00000000, 112.92754364, -12.47647667, 48.39363861, 1.00000000, 0.00000000, 0.00000000, 0.00000000, -0.19031632, 3.02219820, -0.80984390, 0.00000000, 0.00000000, 0.00000000, 0.00000000
1, 1.6099, 161, 0.11306938, -2.81401396, 0.33797902, -141.18368530, 65.89369965, -376.50439453, 0.00000000, 0.00000000, 0.00000000, 111.11330414, -9.24706841, 50.46785736, 1.00000000, 0.00000000, 0.00000000, 0.00000000, -0.29724419, 1.90346503, 0.03150474, 0.00000000, 0.00000000, 0.00000000, 0.00000000
1, 1.6199, 162, 1.11683238, 0.04855432, -0.00734525, -79.81568146, 78.52886200, -358.55746460, 0.00000000, 0.00000000, 0.00000000, 110.07704926, -6.09529448, 52.53897476, 1.00000000, 0.00000000, 0.00000000, 0.00000000, -1.24290061, -0.97911966, 0.35073641, 0.00000000, 0.00000000, 0.00000000, 0.00000000
1, 1.6299, 163, 2.00183153, 0.58726746, 1.32160258, 107.94406891, 84.63899994, -300.67391968, 0.00000000, 0.00000000, 0.00000000, 110.99089050, -3.56904197, 54.38880157, 1.00000000, 0.00000000, 0.00000000, 0.00000000, -2.08082891, -1.52075016, -0.97204077, 0.00000000, 0.00000000, 0.00000000, 0.00000000
1, 1.6399, 164, 1.25026906, -0.39510560, 0.05388354, 180.63088989, -115.13842010, -247.04658508, 0.00000000, 0.00000000, 0.00000000, 112.80206299, -0.84688753, 54.24076462, 1.00000000, 0.00000000, 0.00000000, 0.00000000, -1.28239107, -0.53068495, 0.32244071, 0.00000000, 0.00000000, 0.00000000, 0.00000000
1, 1.6499, 165, 1.01684797, -0.73875821, -0.32278502, 20.43055153, 15.55129719, -210.82162476, 0.00000000, 0.00000000, 0.00000000, 113.01083374, 1.03139067, 55.20988083, 1.00000000, 0.00000000, 0.00000000, 0.00000000, -1.01011586, -0.18100464, 0.71510625, 0.00000000, 0.00000000, 0.00000000, 0.00000000
1, 1.6599, 166, 1.07885444, -0.34044170, 0.24733889, -14.45072937, -33.84712601, -176.31123352, 0.00000000, 0.00000000, 0.00000000, 112.87615204, 2.78737330, 55.58225632, 1.00000000, 0.00000000, 0.00000000, 0.00000000, -1.04178131, -0.58063155, 0.14018407, 0.00000000, 0.00000000, 0.00000000, 0.00000000
1, 1.6699, 167, 0.83060038, -0.62646699, 0.34007803, 110.85646057, -60.08938980, -133.21650696, 0.00000000, 0.00000000, 0.00000000, 113.96424866, 4.38050127, 55.78119659, 1.00000000, 0.00000000, 0.00000000, 0.00000000, -0.76492232, -0.28828907, 0.05844191, 0.00000000, 0.00000000, 0.00000000, 0.00000000
1, 1.6799, 168, 0.77834296, -0.98047531, 0.42817283, 76.55483246, -95.17369843, -97.35451508, 0.00000000, 0.00000000, 0.00000000, 114.68839264, 5.66038561, 55.31425858, 1.00000000, 0.00000000, 0.00000000, 0.00000000, -0.68781286, 0.07408364, -0.01560665, 0.00000000, 0.00000000, 0.00000000, 0.00000000
1, 1.6899, 169, 0.73266232, -1.27691853, 0.54622304, 21.90087509, -76.25612640, -70.79129028, 0.00000000, 0.00000000, 0.00000000, 114.86482239, 6.62279940, 54.91649246, 1.00000000, 0.00000000, 0.00000000, 0.00000000, -0.62314457, 0.37472868, -0.12904333, 0.00000000, 0.00000000, 0.00000000, 0.00000000
1, 1.6999, 170, 0.50874346, -1.66685557, 0.61680984, 29.17613983, -57.97404099, -55.26554108, 0.00000000, 0.00000000, 0.00000000, 115.12088013, 7.36846590, 54.62205887, 1.00000000, 0.00000000, 0.00000000, 0.00000000, -0.38520259, 0.76752114, -0.19738129, 0.00000000, 0.00000000, 0.00000000, 0.00000000
1, 1.7099, 171, 0.42765802, -1.33123958, 0.59760672, 17.84473801, -34.50717926, -66.31213379, 0.00000000, 0.00000000, 0.00000000, 115.29554749, 8.11538124, 54.59263992, 1.00000000, 0.00000000, 0.00000000, 0.00000000, -0.29160422, 0.43537015, -0.17464916, 0.00000000, 0.00000000, 0.00000000, 0.00000000
1, 1.7199, 172, 0.44691488, -0.88286144, 0.48918438, -2.70187759, -22.21090508, -72.05789185, 0.00000000, 0.00000000, 0.00000000, 115.30801392, 9.04712105, 55.00666046, 1.00000000, 0.00000000, 0.00000000, 0.00000000, -0.29659897, -0.01112637, -0.06708346, 0.00000000, 0.00000000, 0.00000000, 0.00000000
1, 1.7299, 173, 0.61134583, -1.06437504, 0.48767620, 35.62598419, -1.36672664, -64.96662903, 0.00000000, 0.00000000, 0.00000000, 115.70837402, 9.63938618, 55.27743149, 1.00000000, 0.00000000, 0.00000000, 0.00000000, -0.44751155, 0.17428125, -0.06237740, 0.00000000, 0.00000000, 0.00000000, 0.00000000
1, 1.7399, 174, 0.62152261, -1.20414662, 0.42896384, 24.12168884, 4.80222893, -52.67866898, 0.00000000, 0.00000000, 0.00000000, 115.99707794, 10.09241009, 55.55463791, 1.00000000, 0.00000000, 0.00000000, 0.00000000, -0.44907868, 0.31819201, 0.00154939, 0.00000000, 0.00000000, 0.00000000, 0.00000000
1, 1.7499, 175, 0.58971286, -1.13901556, 0.47122702, -3.70992827, 0.08706756, -42.24409866, 0.00000000, 0.00000000, 0.00000000, 115.99368286, 10.47167301, 55.74369812, 1.00000000, 0.00000000, 0.00000000, 0.00000000, -0.41031420, 0.25488204, -0.03980991, 0.00000000, 0.00000000, 0.00000000, 0.00000000
1, 1.7599, 176, 0.64467484, -0.95774829, 0.48659858, -11.81363201, -11.07575703, -31.11205673, 0.00000000, 0.00000000, 0.00000000, 115.88232422, 10.79987335, 55.78080750, 1.00000000, 0.00000000, 0.00000000, 0.00000000, -0.45936847, 0.07396033, -0.05697370, 0.00000000, 0.00000000, 0.00000000, 0.00000000
1, 1.7699, 177, 0.69558680, -0.89150566, 0.39634076, -3.41303205, -28.58779526, -18.97943687, 0.00000000, 0.00000000, 0.00000000, 115.74961853, 11.42827606, 56.16704941, 1.00000000, 0.00000000, 0.00000000, 0.00000000, -0.50359398, 0.00806923, 0.03105187, 0.00000000, 0.00000000, 0.00000000, 0.00000000
1, 1.7799, 178, 0.67084420, -1.00898767, 0.29930371, 8.55584812, -49.44841003, -7.47243834, 0.00000000, 0.00000000, 0.00000000, 115.75057220, 11.71040249, 55.74554443, 1.00000000, 0.00000000, 0.00000000, 0.00000000, -0.46971262, 0.12669802, 0.12626536, 0.00000000, 0.00000000, 0.00000000, 0.00000000
1, 1.7899, 179, 0.35899091, -1.21976757, 0.28415889, 4.42916822, -73.86690521, 1.12726450, 0.00000000, 0.00000000, 0.00000000, 115.65392303, 12.02069664, 55.06047058, 1.00000000, 0.00000000, 0.00000000, 0.00000000, -0.15270452, 0.33806968, 0.14016679, 0.00000000, 0.00000000, 0.00000000, 0.00000000
1, 1.7999, 180, 0.08220809, -1.34950030, 0.52334607, -1.85647774, -73.88400269, 6.61123610, 0.00000000, 0.00000000, 0.00000000, 115.48576355, 12.27992249, 54.34951782, 1.00000000, 0.00000000, 0.00000000, 0.00000000, 0.12882826, 0.46757567, -0.10183672, 0.00000000, 0.00000000, 0.00000000, 0.00000000
1, 1.8099, 181, 0.10512277, -1.35713029, 0.52749127, 3.64187336, -63.07259369, -8.37787342, 0.00000000, 0.00000000, 0.00000000, 115.40455627, 12.62654495, 53.80311584, 1.00000000, 0.00000000, 0.00000000, 0.00000000, 0.11107731, 0.47538567, -0.10822919, 0.00000000, 0.00000000, 0.00000000, 0.00000000
1, 1.8199, 182, 0.04825785, -1.28020835, 0.39371046, -3.80275106, -52.32828903, -26.23671341, 0.00000000, 0.00000000, 0.00000000, 115.23231506, 12.99197102, 53.27156067, 1.00000000, 0.00000000, 0.00000000, 0.00000000, 0.17473704, 0.39907965, 0.02328037, 0.00000000, 0.00000000, 0.00000000, 0.00000000
1, 1.8299, 183, 0.00497055, -1.07490706, 0.38070044, -15.07336235, -50.98736954, -31.77018356, 0.00000000, 0.00000000, 0.00000000, 115.00467682, 13.49612141, 52.93587875, 1.00000000, 0.00000000, 0.00000000, 0.00000000, 0.22519328, 0.19361806, 0.03203075, 0.00000000, 0.00000000, 0.00000000, 0.00000000
1, 1.8399, 184, 0.03161567, -0.89393669, 0.32286972, -15.11199284, -38.45883179, -34.91184616, 0.00000000, 0.00000000, 0.00000000, 114.80432892, 13.97474957, 52.72808838, 1.00000000, 0.00000000, 0.00000000, 0.00000000, 0.20689175, 0.01286267, 0.08556218, 0.00000000, 0.00000000, 0.00000000, 0.00000000
1, 1.8499, 185, 0.08447553, -0.82790726, 0.27112001, -9.02204990, -21.63567734, -37.53541183, 0.00000000, 0.00000000, 0.00000000, 114.70423889, 14.40622139, 52.68750763, 1.00000000, 0.00000000, 0.00000000, 0.00000000, 0.16160697, -0.05241860, 0.13442312, 0.00000000, 0.00000000, 0.00000000, 0.00000000
1, 1.8599, 186, 0.19812015, -0.82038820, 0.25346032, -4.05787992, -14.86128902, -41.68110657, 0.00000000, 0.00000000, 0.00000000, 114.67383575, 14.84701061, 52.72788620, 1.00000000, 0.00000000, 0.00000000, 0.00000000, 0.05526901, -0.05857736, 0.15053065, 0.00000000, 0.00000000, 0.00000000, 0.00000000
1, 1.8699, 187, 0.23078693, -0.82758361, 0.21179771, -5.13588572, -19.73484612, -44.49023819, 0.00000000, 0.00000000, 0.00000000, 114.53195190, 15.32476044, 52.72991562, 1.00000000, 0.00000000, 0.00000000, 0.00000000, 0.03048516, -0.04991566, 0.19035369, 0.00000000, 0.00000000, 0.00000000, 0.00000000
1, 1.8799, 188, 0.19583590, -0.76831335, 0.24842614, -6.91039228, -26.52807045, -45.96603775, 0.00000000, 0.00000000, 0.00000000, 114.44861603, 15.85304546, 52.67710495, 1.00000000, 0.00000000, 0.00000000, 0.00000000, 0.07396126, -0.10803843, 0.15058514, 0.00000000, 0.00000000, 0.00000000, 0.00000000
1, 1.8899, 189, 0.21513414, -0.74222118, 0.21401048, -0.33221161, -32.77186203, -51.61489487, 0.00000000, 0.00000000, 0.00000000, 114.42062378, 16.45851898, 52.58871841, 1.00000000, 0.00000000, 0.00000000, 0.00000000, 0.06424358, -0.13198011, 0.18311815, 0.00000000, 0.00000000, 0.00000000, 0.00000000
1, 1.8999, 190, 0.25852913, -0.72636557, 0.21981724, 1.49132121, -44.68892670, -58.18239975, 0.00000000, 0.00000000, 0.00000000, 114.38518524, 17.17299461, 52.41468811, 1.00000000, 0.00000000, 0.00000000, 0.00000000, 0.03214061, -0.14499751, 0.17543566, 0.00000000, 0.00000000, 0.00000000, 0.00000000
1, 1.9099, 191, 0.21968836, -0.72644204, 0.16369048, 3.59124970, -48.51041412, -65.83029938, 0.00000000, 0.00000000, 0.00000000, 114.36721802, 17.97282028, 52.23615265, 1.00000000, 0.00000000, 0.00000000, 0.00000000, 0.08378389, -0.14149150, 0.22947645, 0.00000000, 0.00000000, 0.00000000, 0.00000000
1, 1.9199, 192, 0.14126836, -0.74279076, 0.13267058, 4.51125145, -51.24691772, -72.96097565, 0.00000000, 0.00000000, 0.00000000, 114.29170990, 18.80392647, 51.98689651, 1.00000000, 0.00000000, 0.00000000, 0.00000000, 0.17608741, -0.12117355, 0.25826967, 0.00000000, 0.00000000, 0.00000000, 0.00000000
1, 1.9299, 193, 0.19811833, -0.74368972, 0.17390689, 5.33129454, -56.12090302, -82.02303314, 0.00000000, 0.00000000, 0.00000000, 114.28412628, 19.78238106, 51.80233765, 1.00000000, 0.00000000, 0.00000000, 0.00000000, 0.13416390, -0.11602901, 0.21397042, 0.00000000, 0.00000000, 0.00000000, 0.00000000
1, 1.9399, 194, 0.19013046, -0.80668509, 0.15155487, 9.10557747, -43.80663300, -92.68602753, 0.00000000, 0.00000000, 0.00000000, 114.36901855, 20.80737877, 51.78384781, 1.00000000, 0.00000000, 0.00000000, 0.00000000, 0.15876299, -0.04721110, 0.23459183, 0.00000000, 0.00000000, 0.00000000, 0.00000000
1, 1.9499, 195, 0.11890896, -0.90524894, 0.15713173, 2.85127115, -38.71983337, -104.27394867, 0.00000000, 0.00000000, 0.00000000, 114.42819214, 21.91693306, 51.86782455, 1.00000000, 0.00000000, 0.00000000, 0.00000000, 0.24747208, 0.05796425, 0.22737254, 0.00000000, 0.00000000, 0.00000000, 0.00000000
1, 1.9599, 196, 0.02023226, -0.97541726, 0.18100032, -0.67155081, -36.30848694, -114.19441986, 0.00000000, 0.00000000, 0.00000000, 114.48055267, 23.10673523, 52.02178192, 1.00000000, 0.00000000, 0.00000000, 0.00000000, 0.36498120, 0.13542147, 0.20107760, 0.00000000, 0.00000000, 0.00000000, 0.00000000
1, 1.9699, 197, 0.07209530, -1.04208136, 0.18223429, 0.88212866, -33.91918945, -121.51741791, 0.00000000, 0.00000000, 0.00000000, 114.49119568, 24.23457718, 52.01964188, 1.00000000, 0.00000000, 0.00000000, 0.00000000, 0.33225515, 0.20994520, 0.19726554, 0.00000000, 0.00000000, 0.00000000, 0.00000000
1, 1.9799, 198, 0.14158466, -1.14638638, 0.12254265, 1.57973206, -40.00285339, -132.98960876, 0.00000000, 0.00000000, 0.00000000, 114.59441376, 25.61047745, 52.22751617, 1.00000000, 0.00000000, 0.00000000, 0.00000000, 0.28233987, 0.32263935, 0.25386482, 0.00000000, 0.00000000, 0.00000000, 0.00000000
1, 1.9899, 199, 0.09662648, -1.24449277, 0.05547574, 0.72937065, -60.24376678, -140.96997070, 0.00000000, 0.00000000, 0.00000000, 114.62085724, 27.14300728, 52.27141953, 1.00000000, 0.00000000, 0.00000000, 0.00000000, 0.35044864, 0.43133682, 0.31714207, 0.00000000, 0.00000000, 0.00000000, 0.00000000
1, 1.9999, 200, 0.07611648, -1.26955581, 0.02580945, 2.82321501, -78.86534882, -147.79479980, 0.00000000, 0.00000000, 0.00000000, 114.59472656, 28.81510544, 52.15614319, 1.00000000, 0.00000000, 0.00000000, 0.00000000, 0.39605975, 0.46812129, 0.34118402, 0.00000000, 0.00000000, 0.00000000, 0.00000000
1, 2.0099, 201, 0.02596918, -1.30131555, -0.04529009, 11.55635071, -96.69244385, -155.39152527, 0.00000000, 0.00000000, 0.00000000, 114.57709503, 30.63043404, 51.88801956, 1.00000000, 0.00000000, 0.00000000, 0.00000000, 0.47307467, 0.51333940, 0.40580231, 0.00000000, 0.00000000, 0.00000000, 0.00000000
1, 2.0199, 202, -0.12062054, -1.34370756, -0.14928699, 15.41998863, -119.26693726, -164.05206299, 0.00000000, 0.00000000, 0.00000000, 114.41014099, 32.53059006, 51.23554993, 1.00000000, 0.00000000, 0.00000000, 0.00000000, 0.64808577, 0.57072484, 0.50169384, 0.00000000, 0.00000000, 0.00000000, 0.00000000
1, 2.0299, 203, -0.33258274, -1.38341272, -0.15802804, 26.52926636, -139.59152222, -170.37733459, 0.00000000, 0.00000000, 0.00000000, 114.29690552, 34.65831375, 50.55185318, 1.00000000, 0.00000000, 0.00000000, 0.00000000, 0.88960367, 0.62676352, 0.50022721, 0.00000000, 0.00000000, 0.00000000, 0.00000000
1, 2.0399, 204, -0.54634976, -1.54973602, -0.15961994, 37.37778854, -152.12008667, -176.10006714, 0.00000000, 0.00000000, 0.00000000, 114.19219208, 36.88866806, 49.73355103, 1.00000000, 0.00000000, 0.00000000, 0.00000000, 1.13478601, 0.81251657, 0.49147940, 0.00000000, 0.00000000, 0.00000000, 0.00000000
1, 2.0499, 205, -0.50211656, -1.74852026, 0.18131194, 41.04394913, -146.66822815, -182.06536865, 0.00000000, 0.00000000, 0.00000000, 114.13941193, 39.15007782, 48.98085403, 1.00000000, 0.00000000, 0.00000000, 0.00000000, 1.12181175, 1.03243315, 0.13974038, 0.00000000, 0.00000000, 0.00000000, 0.00000000
1, 2.0599, 206, -0.07716538, -2.10075045, 0.16864392, 52.82720566, -125.95908356, -210.10409546, 0.00000000, 0.00000000, 0.00000000, 114.42778015, 41.58284760, 48.60789490, 1.00000000, 0.00000000, 0.00000000, 0.00000000, 0.72875583, 1.40938485, 0.14328505, 0.00000000, 0.00000000, 0.00000000, 0.00000000
1, 2.0699, 207, -0.01867888, -2.53506184, 0.21951625, 64.62290955, -82.25666809, -227.02239990, 0.00000000, 0.00000000, 0.00000000, 115.25770569, 43.96765900, 48.84880829, 1.00000000, 0.00000000, 0.00000000, 0.00000000, 0.70175743, 1.87270629, 0.08796518, 0.00000000, 0.00000000, 0.00000000, 0.00000000
1, 2.0799, 208, -0.00848046, -2.69317508, 0.51138496, 86.69635010, -69.92703247, -231.06703186, 0.00000000, 0.00000000, 0.00000000, 116.50633240, 46.35182190, 49.38689423, 1.00000000, 0.00000000, 0.00000000, 0.00000000, 0.72106838, 2.06282330, -0.20361982, 0.00000000, 0.00000000, 0.00000000, 0.00000000
1, 2.0899, 209, 0.04331664, -2.53706312, 0.78776497, 69.28288269, -58.69085312, -238.56103516, 0.00000000, 0.00000000, 0.00000000, 117.82118988, 48.74173737, 50.22845078, 1.00000000, 0.00000000, 0.00000000, 0.00000000, 0.69807792, 1.94097030, -0.47978008, 0.00000000, 0.00000000, 0.00000000, 0.00000000
1, 2.0999, 210, 0.06705530, -2.44016743, 0.89157981, 35.00072479, -43.56526184, -234.84828186, 0.00000000, 0.00000000, 0.00000000, 119.04425812, 51.01425934, 51.36993408, 1.00000000, 0.00000000, 0.00000000, 0.00000000, 0.70087707, 1.87783909, -0.58509749, 0.00000000, 0.00000000, 0.00000000, 0.00000000
1, 2.1099, 211, 0.22294022, -2.44186831, 0.87061858, 15.69397259, -49.68474579, -220.22979736, 0.00000000, 0.00000000, 0.00000000, 120.04160309, 53.17504883, 52.43519974, 1.00000000, 0.00000000, 0.00000000, 0.00000000, 0.56901425, 1.91153002, -0.56824219, 0.00000000, 0.00000000, 0.00000000, 0.00000000
1, 2.1199, 212, 0.36152866, -2.28204513, 0.82824731, -11.40063572, -39.48070145, -209.40087891, 0.00000000, 0.00000000, 0.00000000, 120.92034149, 55.14447021, 53.59864044, 1.00000000, 0.00000000, 0.00000000, 0.00000000, 0.45187876, 1.78131497, -0.53237259, 0.00000000, 0.00000000, 0.00000000, 0.00000000
1, 2.1299, 213, 0.61406273, -2.03166533, 0.49708027, -31.74501801, -24.37680244, -203.61907959, 0.00000000, 0.00000000, 0.00000000, 121.87145233, 57.00946426, 55.12725449, 1.00000000, 0.00000000, 0.00000000, 0.00000000, 0.21803741, 1.55893469, -0.20717257, 0.00000000, 0.00000000, 0.00000000, 0.00000000
1, 2.1399, 214, 0.87042940, -1.96604991, 0.29019436, -18.06942177, -18.32154655, -177.69383240, 0.00000000, 0.00000000, 0.00000000, 122.95665741, 58.60836411, 56.62296295, 1.00000000, 0.00000000, 0.00000000, 0.00000000, -0.02214082, 1.51956606, -0.00560444, 0.00000000, 0.00000000, 0.00000000, 0.00000000
1, 2.1499, 215, 0.28275722, -1.77145815, 0.44680914, -2.11767721, -44.32379913, -141.37739563, 0.00000000, 0.00000000, 0.00000000, 123.61939240, 60.03326416, 57.41895294, 1.00000000, 0.00000000, 0.00000000, 0.00000000, 0.57900536, 1.34821749, -0.16719496, 0.00000000, 0.00000000, 0.00000000, 0.00000000
1, 2.1599, 216, -0.18349518, -1.27654493, 0.39687091, -47.97541428, -23.55140305, -97.97827911, 0.00000000, 0.00000000, 0.00000000, 123.75598145, 60.97919083, 58.12636566, 1.00000000, 0.00000000, 0.00000000, 0.00000000, 1.05536413, 0.86907852, -0.12521395, 0.00000000, 0.00000000, 0.00000000, 0.00000000
1, 2.1699, 217, -0.01302624, -0.79075402, 0.27152580, -34.04813766, 38.68925858, -50.79722214, 0.00000000, 0.00000000, 0.00000000, 124.37162781, 60.85713577, 58.65211105, 1.00000000, 0.00000000, 0.00000000, 0.00000000, 0.88835728, 0.39048561, -0.00028346, 0.00000000, 0.00000000, 0.00000000, 0.00000000
1, 2.1799, 218, 0.42270997, -0.69651240, 0.29058897, 15.41224575, 86.79805756, -7.01754522, 0.00000000, 0.00000000, 0.00000000, 125.86019897, 60.41561890, 60.18265533, 1.00000000, 0.00000000, 0.00000000, 0.00000000, 0.44870067, 0.29603785, -0.00731608, 0.00000000, 0.00000000, 0.00000000, 0.00000000
1, 2.1899, 219, 0.63163018, -0.72294581, 0.29529256, 24.13734436, 101.99555969, 35.77027130, 0.00000000, 0.00000000, 0.00000000, 127.15166473, 59.52119827, 61.39484406, 1.00000000, 0.00000000, 0.00000000, 0.00000000, 0.23337868, 0.32080472, 0.00472756, 0.00000000, 0.00000000, 0.00000000, 0.00000000
1, 2.1999, 220, 0.59583330, -0.63180149, 0.21153720, -5.89964056, 96.25234985, 79.34561157, 0.00000000, 0.00000000, 0.00000000, 127.56293488, 58.30630493, 61.94316483, 1.00000000, 0.00000000, 0.00000000, 0.00000000, 0.25938261, 0.22054875, 0.10380222, 0.00000000, 0.00000000, 0.00000000, 0.00000000
1, 2.2099, 221, 0.43665573, -0.45011100, 0.13723898, -27.73647308, 94.08787537, 124.71769714, 0.00000000, 0.00000000, 0.00000000, 127.26948547, 56.74396896, 61.92354202, 1.00000000, 0.00000000, 0.00000000, 0.00000000, 0.40539777, 0.02172410, 0.19043121, 0.00000000, 0.00000000, 0.00000000, 0.00000000
1, 2.2199, 222, 0.30070445, -0.33905917, 0.06453737, -24.68315506, 96.71782684, 165.92184448, 0.00000000, 0.00000000, 0.00000000, 126.63574982, 54.81259155, 61.43950653, 1.00000000, 0.00000000, 0.00000000, 0.00000000, 0.52411640, -0.11293866, 0.27498111, 0.00000000, 0.00000000, 0.00000000, 0.00000000
1, 2.2299, 223, 0.28085899, -0.33497122, 0.08173446, -16.75418854, 93.22983551, 210.86151123, 0.00000000, 0.00000000, 0.00000000, 125.79703522, 52.56047440, 60.60589600, 1.00000000, 0.00000000, 0.00000000, 0.00000000, 0.52225912, -0.14613900, 0.26955089, 0.00000000, 0.00000000, 0.00000000, 0.00000000
1, 2.2399, 224, 0.30756775, -0.32592604, 0.10421020, -30.55110741, 89.24702454, 249.30654907, 0.00000000, 0.00000000, 0.00000000, 124.60815430, 50.00885391, 59.47322464, 1.00000000, 0.00000000, 0.00000000, 0.00000000, 0.46935850, -0.18920207, 0.25752902, 0.00000000, 0.00000000, 0.00000000, 0.00000000
1, 2.2499, 225, 0.31092092, -0.27196345, 0.08844136, -49.68885803, 73.45351410, 281.22055054, 0.00000000, 0.00000000, 0.00000000, 123.02692413, 47.26349258, 58.02749634, 1.00000000, 0.00000000, 0.00000000, 0.00000000, 0.43571034, -0.28171277, 0.28003454, 0.00000000, 0.00000000, 0.00000000, 0.00000000
1, 2.2599, 226, 0.25294784, -0.22068614, 0.07632175, -62.25905609, 55.67829514, 313.11831665, 0.00000000, 0.00000000, 0.00000000, 121.17875671, 44.31487656, 56.31750488, 1.00000000, 0.00000000, 0.00000000, 0.00000000, 0.45949608, -0.37507969, 0.29413044, 0.00000000, 0.00000000, 0.00000000, 0.00000000
1, 2.2699, 227, 0.19322842, -0.23957048, 0.03812588, -64.80684662, 49.91816711, 344.03756714, 0.00000000, 0.00000000, 0.00000000, 119.30086517, 41.08657837, 54.52810287, 1.00000000, 0.00000000, 0.00000000, 0.00000000, 0.47996545, -0.40064842, 0.33150965, 0.00000000, 0.00000000, 0.00000000, 0.00000000
1, 2.2799, 228, 0.18246795, -0.31171808, 0.02905769, -59.28616714, 48.06597900, 370.35440063, 0.00000000, 0.00000000, 0.00000000, 117.60786438, 37.60098267, 52.79371262, 1.00000000, 0.00000000, 0.00000000, 0.00000000, 0.44576520, -0.37363282, 0.33875057, 0.00000000, 0.00000000, 0.00000000, 0.00000000
1, 2.2899, 229, 0.21771401, -0.40985543, 0.01506532, -51.82118988, 41.68801117, 389.57687378, 0.00000000, 0.00000000, 0.00000000, 116.09040070, 33.93644333, 51.08446503, 1.00000000, 0.00000000, 0.00000000, 0.00000000, 0.36035782, -0.31930238, 0.35072643, 0.00000000, 0.00000000, 0.00000000, 0.00000000
1, 2.2999, 230, 0.23749059, -0.49324003, 0.05333372, -46.02006912, 33.61760712, 404.65249634, 0.00000000, 0.00000000, 0.00000000, 114.73384094, 30.13677216, 49.39500046, 1.00000000, 0.00000000, 0.00000000, 0.00000000, 0.28601462, -0.27732271, 0.30970609, 0.00000000, 0.00000000, 0.00000000, 0.00000000
1, 2.3099, 231, 0.21541657, -0.55733353, 0.08593851, -38.99111176, 27.13042068, 419.11929321, 0.00000000, 0.00000000, 0.00000000, 113.55859375, 26.20085335, 47.73210526, 1.00000000, 0.00000000, 0.00000000, 0.00000000, 0.24916711, -0.25156659, 0.27384719, 0.00000000, 0.00000000, 0.00000000, 0.00000000
1, 2.3199, 232, 0.19849789, -0.61608666, 0.10766840, -30.73735046, 32.50012970, 431.50601196, 0.00000000, 0.00000000, 0.00000000, 112.60490417, 22.09689522, 46.19914246, 1.00000000, 0.00000000, 0.00000000, 0.00000000, 0.20261261, -0.22724645, 0.24937113, 0.00000000, 0.00000000, 0.00000000, 0.00000000
1, 2.3299, 233, 0.21650256, -0.70668858, 0.14807978, -18.63960648, 49.63882828, 443.00439453, 0.00000000, 0.00000000, 0.00000000, 111.97441864, 17.80932236, 44.90150070, 1.00000000, 0.00000000, 0.00000000, 0.00000000, 0.11610059, -0.16633643, 0.20794404, 0.00000000, 0.00000000, 0.00000000, 0.00000000
1, 2.3399, 234, 0.23562889, -0.85506487, 0.21607693, -7.18847895, 64.60390472, 453.45269775, 0.00000000, 0.00000000, 0.00000000, 111.59935760, 13.35882378, 43.77779388, 1.00000000, 0.00000000, 0.00000000, 0.00000000, 0.02379647, -0.04187983, 0.14128917, 0.00000000, 0.00000000, 0.00000000, 0.00000000
1, 2.3499, 235, 0.24144629, -1.03090131, 0.28421664, -4.87458134, 85.33061981, 458.86593628, 0.00000000, 0.00000000, 0.00000000, 111.37551880, 8.77659035, 42.87450790, 1.00000000, 0.00000000, 0.00000000, 0.00000000, -0.05920466, 0.11598372, 0.07524148, 0.00000000, 0.00000000, 0.00000000, 0.00000000
1, 2.3599, 236, 0.30027905, -1.19189000, 0.33167860, -4.19801283, 112.74491119, 454.03616333, 0.00000000, 0.00000000, 0.00000000, 111.26332092, 4.13717651, 42.27041245, 1.00000000, 0.00000000, 0.00000000, 0.00000000, -0.19790326, 0.26532507, 0.02954660, 0.00000000, 0.00000000, 0.00000000, 0.00000000
1, 2.3699, 237, 0.47157827, -1.36360598, 0.32617810, -2.89899421, 143.38311768, 437.33731079, 0.00000000, 0.00000000, 0.00000000, 111.21190643, -0.42827746, 42.07945633, 1.00000000, 0.00000000, 0.00000000, 0.00000000, -0.44952288, 0.43193778, 0.03578272, 0.00000000, 0.00000000, 0.00000000, 0.00000000
1, 2.3799, 238, 0.82027942, -1.52626300, 0.34458247, -0.70359951, 159.95935059, 411.99206543, 0.00000000, 0.00000000, 0.00000000, 111.20330811, -4.84768391, 42.08045197, 1.00000000, 0.00000000, 0.00000000, 0.00000000, -0.87621737, 0.59565103, 0.01648998, 0.00000000, 0.00000000, 0.00000000, 0.00000000
1, 2.3899, 239, 1.32461512, -1.73173869, 0.44699293, -3.70027685, 169.58390808, 371.61416626, 0.00000000, 0.00000000, 0.00000000, 111.13629913, -8.92538261, 42.32102966, 1.00000000, 0.00000000, 0.00000000, 0.00000000, -1.45397532, 0.80724788, -0.08894654, 0.00000000, 0.00000000, 0.00000000, 0.00000000
1, 2.3999, 240, 1.85073793, -2.06191611, 0.74530005, -3.99587536, 171.26834106, 308.39569092, 0.00000000, 0.00000000, 0.00000000, 111.00207520, -12.41871834, 42.81966400, 1.00000000, 0.00000000, 0.00000000, 0.00000000, -2.04426265, 1.14642060, -0.39296788, 0.00000000, 0.00000000, 0.00000000, 0.00000000
1, 2.4099, 241, 2.28680730, -2.25107551, 1.14059770, -8.86718750, 174.21189880, 237.26844788, 0.00000000, 0.00000000, 0.00000000, 110.71963501, -15.25689602, 43.62343216, 1.00000000, 0.00000000, 0.00000000, 0.00000000, -2.53270054, 1.34553885, -0.79511988, 0.00000000, 0.00000000, 0.00000000, 0.00000000
1, 2.4199, 242, 2.29258657, -1.30652559, 0.99954963, -135.77149963, 163.07908630, 188.87037659, 0.00000000, 0.00000000, 0.00000000, 109.10353088, -17.55923653, 44.58692169, 1.00000000, 0.00000000, 0.00000000, 0.00000000, -2.58065248, 0.40566829, -0.67507476, 0.00000000, 0.00000000, 0.00000000, 0.00000000
1, 2.4299, 243, 2.30882907, -0.31452963, 0.76610637, -141.70022583, 141.45013428, 142.87515259, 0.00000000, 0.00000000, 0.00000000, 107.38611603, -19.35780334, 45.53270340, 1.00000000, 0.00000000, 0.00000000, 0.00000000, -2.62986612, -0.58627725, -0.47395194, 0.00000000, 0.00000000, 0.00000000, 0.00000000
1, 2.4399, 244, 2.35127544, -0.08477558, 0.86687028, -43.76164627, 140.93061829, 85.25301361, 0.00000000, 0.00000000, 0.00000000, 106.54743958, -20.58319092, 46.70326614, 1.00000000, 0.00000000, 0.00000000, 0.00000000, -2.69611096, -0.81377393, -0.59547704, 0.00000000, 0.00000000, 0.00000000, 0.00000000
1, 2.4499, 245, 2.51046109, -0.14855038, 0.91780722, -13.76327705, 136.24072266, 25.68342018, 0.00000000, 0.00000000, 0.00000000, 105.93690491, -21.21101570, 48.02629089, 1.00000000, 0.00000000, 0.00000000, 0.00000000, -2.86912560, -0.74794495, -0.65772957, 0.00000000, 0.00000000, 0.00000000, 0.00000000
1, 2.4599, 246, 2.50489879, -0.07353181, 0.95620441, -17.53409576, 120.99491119, -25.39020729, 0.00000000, 0.00000000, 0.00000000, 105.28083038, -21.29194450, 49.34979630, 1.00000000, 0.00000000, 0.00000000, 0.00000000, -2.86829972, -0.82414114, -0.70697701, 0.00000000, 0.00000000, 0.00000000, 0.00000000
1, 2.4699, 247, 2.19098520, -0.37401557, 0.92718852, 14.64422703, 86.54281616, -82.95748901, 0.00000000, 0.00000000, 0.00000000, 105.03459930, -20.67518425, 50.52532578, 1.00000000, 0.00000000, 0.00000000, 0.00000000, -2.54878211, -0.52764606, -0.68434179, 0.00000000, 0.00000000, 0.00000000, 0.00000000
1, 2.4799, 248, 1.92379737, -0.23155913, 1.20840549, 16.16744614, 71.84081268, -135.90940857, 0.00000000, 0.00000000, 0.00000000, 104.81381989, -19.54721832, 51.63764954, 1.00000000, 0.00000000, 0.00000000, 0.00000000, -2.26572132, -0.67648554, -0.96651876, 0.00000000, 0.00000000, 0.00000000, 0.00000000
1, 2.4899, 249, 1.30014086, -0.35499462, 1.32481325, 72.81982422, 43.70214844, -184.67224121, 0.00000000, 0.00000000, 0.00000000, 105.23531342, -17.87458229, 52.58619308, 1.00000000, 0.00000000, 0.00000000, 0.00000000, -1.61867654, -0.56078827, -1.08028984, 0.00000000, 0.00000000, 0.00000000, 0.00000000
1, 2.4999, 250, 0.10946117, -2.83419657, -0.18096738, 181.81410217, -187.22157288, -220.38468933, 0.00000000, 0.00000000, 0.00000000, 107.39984131, -15.23017788, 51.35985565, 1.00000000, 0.00000000, 0.00000000, 0.00000000, -0.38987589, 1.91429830, 0.45456269, 0.00000000, 0.00000000, 0.00000000, 0.00000000
1, 2.5099, 251, -0.33881962, -3.91411066, 0.56437331, 241.78501892, 14.20944786, -92.64509583, 0.00000000, 0.00000000, 0.00000000, 109.70938110, -14.40086079, 51.79393387, 1.00000000, 0.00000000, 0.00000000, 0.00000000, 0.08823317, 2.99761391, -0.25277618, 0.00000000, 0.00000000, 0.00000000, 0.00000000
1, 2.5199, 252, -0.15514381, -2.50648403, 0.02974235, -111.32913208, -20.02762985, -329.25262451, 0.00000000, 0.00000000, 0.00000000, 108.34915924, -11.20060253, 52.78212357, 1.00000000, 0.00000000, 0.00000000, 0.00000000, -0.06199323, 1.58447981, 0.29020596, 0.00000000, 0.00000000, 0.00000000, 0.00000000
1, 2.5299, 253, 0.79097795, -0.07223386, -0.24448843, -31.36090469, 41.68212891, -332.56619263, 0.00000000, 0.00000000, 0.00000000, 107.79991913, -8.16193390, 54.21788025, 1.00000000, 0.00000000, 0.00000000, 0.00000000, -0.95201397, -0.86748993, 0.54576892, 0.00000000, 0.00000000, 0.00000000, 0.00000000
1, 2.5399, 254, 1.83927536, 0.39501116, 1.34885335, 188.19042969, 166.73501587, -296.33099365, 0.00000000, 0.00000000, 0.00000000, 109.37139130, -5.87991571, 56.75788879, 1.00000000, 0.00000000, 0.00000000, 0.00000000, -1.95600975, -1.33564413, -1.03042364, 0.00000000, 0.00000000, 0.00000000, 0.00000000
1, 2.5499, 255, 1.97909534, -0.25098532, 0.98290610, 191.04708862, -108.07219696, -247.73822021, 0.00000000, 0.00000000, 0.00000000, 111.28250122, -3.17325854, 56.60739136, 1.00000000, 0.00000000, 0.00000000, 0.00000000, -2.05325842, -0.68260652, -0.63272107, 0.00000000, 0.00000000, 0.00000000, 0.00000000
1, 2.5599, 256, 0.78794336, -0.83879614, -0.77683109, 98.13787842, -137.28633118, -217.09191895, 0.00000000, 0.00000000, 0.00000000, 112.28625488, -0.64928490, 56.14516449, 1.00000000, 0.00000000, 0.00000000, 0.00000000, -0.81417406, -0.08724353, 1.15314567, 0.00000000, 0.00000000, 0.00000000, 0.00000000
1, 2.5699, 257, 0.93033320, -0.40213439, -0.12872772, -20.31864738, -16.80608368, -188.35791016, 0.00000000, 0.00000000, 0.00000000, 112.09804535, 1.36435056, 57.02144623, 1.00000000, 0.00000000, 0.00000000, 0.00000000, -0.92097563, -0.52455813, 0.50429690, 0.00000000, 0.00000000, 0.00000000, 0.00000000
1, 2.5799, 258, 0.71435171, -0.58670050, 0.68514228, 127.70957947, -74.61206818, -140.85614014, 0.00000000, 0.00000000, 0.00000000, 113.36962128, 2.95152569, 56.87472534, 1.00000000, 0.00000000, 0.00000000, 0.00000000, -0.67242479, -0.33410126, -0.29750308, 0.00000000, 0.00000000, 0.00000000, 0.00000000
1, 2.5899, 259, 0.62830460, -0.81311065, 0.50635445, 95.32403564, -53.66633987, -105.73949432, 0.00000000, 0.00000000, 0.00000000, 114.31858063, 4.13602638, 56.81243515, 1.00000000, 0.00000000, 0.00000000, 0.00000000, -0.56370240, -0.09826602, -0.09994287, 0.00000000, 0.00000000, 0.00000000, 0.00000000
1, 2.5999, 260, 0.74391413, -1.18712175, 0.58017528, 37.19946671, -57.65291214, -74.48654175, 0.00000000, 0.00000000, 0.00000000, 114.67331696, 5.05289459, 56.59605026, 1.00000000, 0.00000000, 0.00000000, 0.00000000, -0.66129357, 0.28070343, -0.16597798, 0.00000000, 0.00000000, 0.00000000, 0.00000000
1, 2.6099, 261, 0.57241505, -1.65979719, 0.44053537, 39.51580429, -30.71236420, -59.67298126, 0.00000000, 0.00000000, 0.00000000, 115.06594086, 5.72336912, 56.56799698, 1.00000000, 0.00000000, 0.00000000, 0.00000000, -0.47691470, 0.75691736, -0.02140133, 0.00000000, 0.00000000, 0.00000000, 0.00000000
1, 2.6199, 262, 0.46884063, -1.65929592, 0.75183016, 40.01146698, -13.76021099, -62.76903152, 0.00000000, 0.00000000, 0.00000000, 115.49038696, 6.37517118, 56.75522995, 1.00000000, 0.00000000, 0.00000000, 0.00000000, -0.36233974, 0.76084745, -0.32587963, 0.00000000, 0.00000000, 0.00000000, 0.00000000
1, 2.6299, 263, 0.40010196, -0.98674393, 0.55721271, -20.21442413, -24.40572548, -78.72908783, 0.00000000, 0.00000000, 0.00000000, 115.30220032, 7.19102955, 56.87341309, 1.00000000, 0.00000000, 0.00000000, 0.00000000, -0.28009579, 0.08981727, -0.13164945, 0.00000000, 0.00000000, 0.00000000, 0.00000000
1, 2.6399, 264, 0.56174374, -1.01965213, 0.55577260, 21.70339203, 0.53415543, -68.83361053, 0.00000000, 0.00000000, 0.00000000, 115.55889130, 7.81058025, 57.17587280, 1.00000000, 0.00000000, 0.00000000, 0.00000000, -0.42966133, 0.12435493, -0.13034824, 0.00000000, 0.00000000, 0.00000000, 0.00000000
1, 2.6499, 265, 0.71051598, -1.24697590, 0.43510643, 43.22707367, -9.47996521, -55.05829239, 0.00000000, 0.00000000, 0.00000000, 116.01293182, 8.34762096, 57.33184814, 1.00000000, 0.00000000, 0.00000000, 0.00000000, -0.56878209, 0.35632935, -0.00307696, 0.00000000, 0.00000000, 0.00000000, 0.00000000
1, 2.6599, 266, 0.66723537, -1.16047502, 0.43179187, 2.14341927, -22.61595345, -42.14591599, 0.00000000, 0.00000000, 0.00000000, 116.03153992, 8.82557964, 57.31348419, 1.00000000, 0.00000000, 0.00000000, 0.00000000, -0.51681352, 0.27226683, 0.00232134, 0.00000000, 0.00000000, 0.00000000, 0.00000000
1, 2.6699, 267, 0.67220771, -0.92971796, 0.48348126, -6.90889883, -32.49684525, -29.79720879, 0.00000000, 0.00000000, 0.00000000, 115.94741821, 9.53654099, 57.65573502, 1.00000000, 0.00000000, 0.00000000, 0.00000000, -0.51296926, 0.04220828, -0.05109976, 0.00000000, 0.00000000, 0.00000000, 0.00000000
1, 2.6799, 268, 0.64402670, -0.81142980, 0.45526260, -1.09107733, -48.80697250, -17.16382599, 0.00000000, 0.00000000, 0.00000000, 115.87403870, 9.90416908, 57.28640366, 1.00000000, 0.00000000, 0.00000000, 0.00000000, -0.47435576, -0.07507919, -0.02478564, 0.00000000, 0.00000000, 0.00000000, 0.00000000
1, 2.6899, 269, 0.61158603, -0.86498672, 0.37053677, 4.90389681, -69.09319305, -7.78183317, 0.00000000, 0.00000000, 0.00000000, 115.81836700, 10.27538109, 56.68925095, 1.00000000, 0.00000000, 0.00000000, 0.00000000, -0.43562326, -0.02101071, 0.05846480, 0.00000000, 0.00000000, 0.00000000, 0.00000000
1, 2.6999, 270, 0.39208522, -1.07882714, 0.31234980, 9.79123116, -86.85095978, -0.80635613, 0.00000000, 0.00000000, 0.00000000, 115.77234650, 10.66061592, 55.89762115, 1.00000000, 0.00000000, 0.00000000, 0.00000000, -0.20959780, 0.19357616, 0.11546486, 0.00000000, 0.00000000, 0.00000000, 0.00000000
1, 2.7099, 271, 0.05072048, -1.26145554, 0.47698855, 1.47051406, -87.89497375, 3.16799092, 0.00000000, 0.00000000, 0.00000000, 115.63278198, 11.01344109, 55.07734680, 1.00000000, 0.00000000, 0.00000000, 0.00000000, 0.13816580, 0.37656444, -0.05121133, 0.00000000, 0.00000000, 0.00000000, 0.00000000
1, 2.7199, 272, 0.03433614, -1.27594388, 0.62467480, -6.09192371, -66.10929871, -3.69225979, 0.00000000, 0.00000000, 0.00000000, 115.45968628, 11.27413750, 54.38377380, 1.00000000, 0.00000000, 0.00000000, 0.00000000, 0.15982643, 0.39068997, -0.20203537, 0.00000000, 0.00000000, 0.00000000, 0.00000000
1, 2.7299, 273, 0.01756861, -1.19527829, 0.51171792, -11.65017319, -48.57584763, -25.78144073, 0.00000000, 0.00000000, 0.00000000, 115.27655792, 11.71529961, 54.04865265, 1.00000000, 0.00000000, 0.00000000, 0.00000000, 0.18255708, 0.30985481, -0.09223107, 0.00000000, 0.00000000, 0.00000000, 0.00000000
1, 2.7399, 274, -0.08647218, -1.00965309, 0.43238610, -22.38704872, -35.08788300, -34.52057266, 0.00000000, 0.00000000, 0.00000000, 115.01658630, 12.17694759, 53.87399292, 1.00000000, 0.00000000, 0.00000000, 0.00000000, 0.29449293, 0.12403317, -0.01717777, 0.00000000, 0.00000000, 0.00000000, 0.00000000
1, 2.7499, 275, 0.02954097, -0.81275570, 0.37986121, -23.91930199, -17.28078842, -37.19674301, 0.00000000, 0.00000000, 0.00000000, 114.77745819, 12.58716202, 53.87381363, 1.00000000, 0.00000000, 0.00000000, 0.00000000, 0.18582806, -0.07328673, 0.03067481, 0.00000000, 0.00000000, 0.00000000, 0.00000000
1, 2.7599, 276, 0.15074745, -0.76382810, 0.33073655, -15.17255688, -1.88951480, -43.54453659, 0.00000000, 0.00000000, 0.00000000, 114.66323090, 12.99065495, 54.04288483, 1.00000000, 0.00000000, 0.00000000, 0.00000000, 0.07144038, -0.12200005, 0.07661726, 0.00000000, 0.00000000, 0.00000000, 0.00000000
1, 2.7699, 277, 0.17433071, -0.81513214, 0.28051895, -9.99811649, 0.73156083, -48.23174286, 0.00000000, 0.00000000, 0.00000000, 114.53151703, 13.39744854, 54.21571350, 1.00000000, 0.00000000, 0.00000000, 0.00000000, 0.05489498, -0.06979890, 0.12487952, 0.00000000, 0.00000000, 0.00000000, 0.00000000
1, 2.7799, 278, 0.20573695, -0.81374824, 0.29249591, -12.00961304, -2.87588334, -52.01197052, 0.00000000, 0.00000000, 0.00000000, 114.45734406, 13.88267899, 54.41065979, 1.00000000, 0.00000000, 0.00000000, 0.00000000, 0.03104348, -0.07044451, 0.11016048, 0.00000000, 0.00000000, 0.00000000, 0.00000000
1, 2.7899, 279, 0.24465740, -0.78859335, 0.28169829, -5.95312834, -6.05449009, -55.48340988, 0.00000000, 0.00000000, 0.00000000, 114.44177246, 14.41284466, 54.59058380, 1.00000000, 0.00000000, 0.00000000, 0.00000000, 0.00082684, -0.09393072, 0.11940265, 0.00000000, 0.00000000, 0.00000000, 0.00000000
1, 2.7999, 280, 0.24114503, -0.78123027, 0.26986659, 0.15636507, -11.92301464, -60.45714569, 0.00000000, 0.00000000, 0.00000000, 114.48049164, 15.01253223, 54.73716736, 1.00000000, 0.00000000, 0.00000000, 0.00000000, 0.01396590, -0.09886770, 0.13055462, 0.00000000, 0.00000000, 0.00000000, 0.00000000
1, 2.8099, 281, 0.18329391, -0.76006246, 0.28440005, 4.76226187, -20.32397842, -65.49481964, 0.00000000, 0.00000000, 0.00000000, 114.55192566, 15.69277287, 54.82717514, 1.00000000, 0.00000000, 0.00000000, 0.00000000, 0.08280092, -0.11694923, 0.11564079, 0.00000000, 0.00000000, 0.00000000, 0.00000000
1, 2.8199, 282, 0.18709897, -0.75446802, 0.26846936, 9.48588467, -22.16427040, -71.92652893, 0.00000000, 0.00000000, 0.00000000, 114.63063812, 16.40056038, 54.86362076, 1.00000000, 0.00000000, 0.00000000, 0.00000000, 0.09095410, -0.11879855, 0.13163021, 0.00000000, 0.00000000, 0.00000000, 0.00000000
1, 2.8299, 283, 0.16713133, -0.75970578, 0.25138146, 7.97441483, -25.40561104, -77.12599182, 0.00000000, 0.00000000, 0.00000000, 114.73788452, 17.20744514, 54.95895767, 1.00000000, 0.00000000, 0.00000000, 0.00000000, 0.12357434, -0.10956429, 0.14842327, 0.00000000, 0.00000000, 0.00000000, 0.00000000
1, 2.8399, 284, 0.21635620, -0.78842217, 0.23358622, 9.99177837, -24.14477539, -83.01554871, 0.00000000, 0.00000000, 0.00000000, 114.87895966, 18.06229210, 55.09446716, 1.00000000, 0.00000000, 0.00000000, 0.00000000, 0.08832891, -0.07603122, 0.16625044, 0.00000000, 0.00000000, 0.00000000, 0.00000000
1, 2.8499, 285, 0.27532330, -0.84821099, 0.21445867, 10.63495636, -20.50516319, -89.47269440, 0.00000000, 0.00000000, 0.00000000, 115.04955292, 18.95995712, 55.29666519, 1.00000000, 0.00000000, 0.00000000, 0.00000000, 0.04395331, -0.01076140, 0.18580228, 0.00000000, 0.00000000, 0.00000000, 0.00000000
1, 2.8599, 286, 0.32868135, -0.93208450, 0.15420765, 7.61592865, -18.13760376, -96.84495544, 0.00000000, 0.00000000, 0.00000000, 115.21295166, 19.91375160, 55.55871964, 1.00000000, 0.00000000, 0.00000000, 0.00000000, 0.00596964, 0.07910217, 0.24630126, 0.00000000, 0.00000000, 0.00000000, 0.00000000
1, 2.8699, 287, 0.25026947, -1.04843497, 0.12827148, 2.23565960, -23.36802673, -102.86048889, 0.00000000, 0.00000000, 0.00000000, 115.20271301, 20.88099289, 55.67859650, 1.00000000, 0.00000000, 0.00000000, 0.00000000, 0.10049684, 0.20151396, 0.27130958, 0.00000000, 0.00000000, 0.00000000, 0.00000000
1, 2.8799, 288, 0.18932478, -1.16222632, 0.08846894, -2.00761962, -32.97483826, -108.41653442, 0.00000000, 0.00000000, 0.00000000, 115.24680328, 22.00231361, 55.85451508, 1.00000000, 0.00000000, 0.00000000, 0.00000000, 0.17838180, 0.32102734, 0.30794716, 0.00000000, 0.00000000, 0.00000000, 0.00000000
1, 2.8899, 289, 0.11947908, -1.31814885, 0.05494595, 1.22686267, -40.46209717, -116.71649933, 0.00000000, 0.00000000, 0.00000000, 115.31421661, 23.23048973, 55.99806595, 1.00000000, 0.00000000, 0.00000000, 0.00000000, 0.26736519, 0.48438072, 0.33893886, 0.00000000, 0.00000000, 0.00000000, 0.00000000
1, 2.8999, 290, 0.03736520, -1.43886745, -0.03883534, 1.57264340, -57.34973907, -128.29428101, 0.00000000, 0.00000000, 0.00000000, 115.34307098, 24.63545227, 56.03139877, 1.00000000, 0.00000000, 0.00000000, 0.00000000, 0.37078199, 0.61379981, 0.42951381, 0.00000000, 0.00000000, 0.00000000, 0.00000000
1, 2.9099, 291, -0.01243562, -1.48827887, -0.11334377, 8.42795086, -79.01742554, -138.55566406, 0.00000000, 0.00000000, 0.00000000, 115.36962891, 26.22590256, 55.89757156, 1.00000000, 0.00000000, 0.00000000, 0.00000000, 0.44475424, 0.67346865, 0.49950850, 0.00000000, 0.00000000, 0.00000000, 0.00000000
1, 2.9199, 292, -0.00362712, -1.48875225, -0.18816625, 16.44381714, -101.80526733, -149.19441223, 0.00000000, 0.00000000, 0.00000000, 115.32014465, 27.95191765, 55.45703125, 1.00000000, 0.00000000, 0.00000000, 0.00000000, 0.46243042, 0.68592077, 0.56880921, 0.00000000, 0.00000000, 0.00000000, 0.00000000
1, 2.9299, 293, -0.10520518, -1.46888256, -0.20306119, 23.97255898, -124.26882172, -159.17593384, 0.00000000, 0.00000000, 0.00000000, 115.31471252, 29.92220879, 54.95107269, 1.00000000, 0.00000000, 0.00000000, 0.00000000, 0.59257466, 0.67961287, 0.57646459, 0.00000000, 0.00000000, 0.00000000, 0.00000000
1, 2.9399, 294, -0.36059880, -1.47343779, -0.25297001, 33.21358109, -148.30911255, -166.76463318, 0.00000000, 0.00000000, 0.00000000, 115.26893616, 32.06362152, 54.21780014, 1.00000000, 0.00000000, 0.00000000, 0.00000000, 0.87935126, 0.70050651, 0.61815792, 0.00000000, 0.00000000, 0.00000000, 0.00000000
1, 2.9499, 295, -0.59201366, -1.48280191, -0.25448659, 41.06590271, -162.37434387, -171.22634888, 0.00000000, 0.00000000, 0.00000000, 115.19585419, 34.30471420, 53.33470535, 1.00000000, 0.00000000, 0.00000000, 0.00000000, 1.14328098, 0.72810930, 0.61004591, 0.00000000, 0.00000000, 0.00000000, 0.00000000
1, 2.9599, 296, -0.57905567, -1.60992277, -0.10297145, 50.25058746, -176.00167847, -172.44439697, 0.00000000, 0.00000000, 0.00000000, 115.08525848, 36.61347961, 52.27787781, 1.00000000, 0.00000000, 0.00000000, 0.00000000, 1.16320038, 0.87514198, 0.44756517, 0.00000000, 0.00000000, 0.00000000, 0.00000000
1, 2.9699, 297, -0.27637258, -1.76360822, 0.15135279, 58.67376328, -174.33912659, -184.95225525, 0.00000000, 0.00000000, 0.00000000, 115.03434753, 38.98156738, 51.18038940, 1.00000000, 0.00000000, 0.00000000, 0.00000000, 0.89333045, 1.05072045, 0.18184251, 0.00000000, 0.00000000, 0.00000000, 0.00000000
1, 2.9799, 298, -0.04075868, -2.18262863, 0.27921054, 76.67669678, -153.12194824, -205.69396973, 0.00000000, 0.00000000, 0.00000000, 115.37078857, 41.49401093, 50.51163101, 1.00000000, 0.00000000, 0.00000000, 0.00000000, 0.69092274, 1.49519634, 0.04416299, 0.00000000, 0.00000000, 0.00000000, 0.00000000
1, 2.9899, 299, -0.05910283, -2.64819217, 0.47961754, 97.73433685, -109.99790955, -211.83049011, 0.00000000, 0.00000000, 0.00000000, 116.28663635, 43.87960815, 50.41982269, 1.00000000, 0.00000000, 0.00000000, 0.00000000, 0.74093300, 1.99035072, -0.15991977, 0.00000000, 0.00000000, 0.00000000, 0.00000000
1, 2.9999, 300, -0.00062723, -2.66829515, 0.76235074, 75.62686157, -105.09985352, -214.51202393, 0.00000000, 0.00000000, 0.00000000, 117.06877136, 46.26814651, 50.45603943, 1.00000000, 0.00000000, 0.00000000, 0.00000000, 0.71231550, 2.04138637, -0.44558114, 0.00000000, 0.00000000, 0.00000000, 0.00000000
1, 3.0099, 301, -0.03291724, -2.35976434, 0.90676594, 27.52256393, -94.01384735, -210.03021240, 0.00000000, 0.00000000, 0.00000000, 117.48345947, 48.56566238, 50.64505386, 1.00000000, 0.00000000, 0.00000000, 0.00000000, 0.77257818, 1.76205957, -0.59769654, 0.00000000, 0.00000000, 0.00000000, 0.00000000
1, 3.0199, 302, 0.07860377, -2.29137397, 0.87697005, 11.07949257, -83.07811737, -207.44262695, 0.00000000, 0.00000000, 0.00000000, 117.85862732, 50.75783157, 50.93848419, 1.00000000, 0.00000000, 0.00000000, 0.00000000, 0.68693841, 1.72187066, -0.57780814, 0.00000000, 0.00000000, 0.00000000, 0.00000000
1, 3.0299, 303, 0.32189929, -2.27842474, 0.76622176, -0.09008067, -68.48368073, -198.90927124, 0.00000000, 0.00000000, 0.00000000, 118.27989960, 52.83516693, 51.47518539, 1.00000000, 0.00000000, 0.00000000, 0.00000000, 0.46682906, 1.73629093, -0.47657347, 0.00000000, 0.00000000, 0.00000000, 0.00000000
1, 3.0399, 304, 0.38591376, -2.03468657, 0.71835691, -13.94801044, -45.45336533, -191.74847412, 0.00000000, 0.00000000, 0.00000000, 118.84821320, 54.73651886, 52.35206223, 1.00000000, 0.00000000, 0.00000000, 0.00000000, 0.42337859, 1.51918530, -0.43690181, 0.00000000, 0.00000000, 0.00000000, 0.00000000
1, 3.0499, 305, 0.58113664, -1.90085709, 0.45021716, -26.26057434, -49.56823730, -177.83946228, 0.00000000, 0.00000000, 0.00000000, 119.21414948, 56.53202057, 53.11343765, 1.00000000, 0.00000000, 0.00000000, 0.00000000, 0.24668880, 1.41064382, -0.17759937, 0.00000000, 0.00000000, 0.00000000, 0.00000000
1, 3.0599, 306, 0.37908196, -1.74435031, 0.39960593, -8.39330864, -37.35046387, -149.53048706, 0.00000000, 0.00000000, 0.00000000, 119.76891327, 58.01762009, 53.87271118, 1.00000000, 0.00000000, 0.00000000, 0.00000000, 0.46406639, 1.27663732, -0.13447803, 0.00000000, 0.00000000, 0.00000000, 0.00000000
1, 3.0699, 307, -0.11216117, -1.39768064, 0.44527990, -23.89847946, -35.80873871, -94.98765564, 0.00000000, 0.00000000, 0.00000000, 119.73658752, 58.70381546, 53.53554916, 1.00000000, 0.00000000, 0.00000000, 0.00000000, 0.96578407, 0.94574016, -0.18630841, 0.00000000, 0.00000000, 0.00000000, 0.00000000
1, 3.0799, 308, -0.15013686, -0.89227521, 0.32019794, -34.19711304, 6.79439688, -48.63404846, 0.00000000, 0.00000000, 0.00000000, 119.89380646, 59.09226990, 54.11807251, 1.00000000, 0.00000000, 0.00000000, 0.00000000, 1.00729358, 0.44521573, -0.06442971, 0.00000000, 0.00000000, 0.00000000, 0.00000000
1, 3.0899, 309, 0.16637364, -0.68368584, 0.29604024, 5.28879595, 65.25300598, -1.39041972, 0.00000000, 0.00000000, 0.00000000, 120.89329529, 58.77443314, 55.22268295, 1.00000000, 0.00000000, 0.00000000, 0.00000000, 0.69029963, 0.23904917, -0.03451108, 0.00000000, 0.00000000, 0.00000000, 0.00000000
1, 3.0999, 310, 0.37781391, -0.69953179, 0.30504856, 29.71061134, 92.44203949, 42.48408508, 0.00000000, 0.00000000, 0.00000000, 122.10929108, 57.92922592, 56.30147934, 1.00000000, 0.00000000, 0.00000000, 0.00000000, 0.47279519, 0.25209755, -0.02893599, 0.00000000, 0.00000000, 0.00000000, 0.00000000
1, 3.1099, 311, 0.40140632, -0.68905813, 0.25051349, 18.74262810, 93.94529724, 84.03905487, 0.00000000, 0.00000000, 0.00000000, 122.82900238, 56.71581650, 56.93320847, 1.00000000, 0.00000000, 0.00000000, 0.00000000, 0.43912649, 0.23269930, 0.04137806, 0.00000000, 0.00000000, 0.00000000, 0.00000000
1, 3.1199, 312, 0.32286927, -0.59710115, 0.16264266, 2.24277711, 102.01907349, 123.72678375, 0.00000000, 0.00000000, 0.00000000, 123.03838348, 55.04376602, 57.06180191, 1.00000000, 0.00000000, 0.00000000, 0.00000000, 0.50350940, 0.12496902, 0.14414236, 0.00000000, 0.00000000, 0.00000000, 0.00000000
1, 3.1299, 313, 0.25700200, -0.47931650, 0.05985657, -8.80518532, 113.08666229, 160.82821655, 0.00000000, 0.00000000, 0.00000000, 123.04860687, 53.07897186, 57.18267059, 1.00000000, 0.00000000, 0.00000000, 0.00000000, 0.55036366, -0.01511969, 0.26200897, 0.00000000, 0.00000000, 0.00000000, 0.00000000
1, 3.1399, 314, 0.19675465, -0.41898751, 0.01146920, -7.88897705, 114.06114960, 196.10678101, 0.00000000, 0.00000000, 0.00000000, 122.83109283, 50.81293869, 57.00580597, 1.00000000, 0.00000000, 0.00000000, 0.00000000, 0.58779597, -0.10135301, 0.32557619, 0.00000000, 0.00000000, 0.00000000, 0.00000000
1, 3.1499, 315, 0.13896765, -0.41766304, -0.00507700, -10.48401260, 107.87369537, 233.11131287, 0.00000000, 0.00000000, 0.00000000, 122.32070160, 48.26777649, 56.47205734, 1.00000000, 0.00000000, 0.00000000, 0.00000000, 0.61838657, -0.13277082, 0.35618550, 0.00000000, 0.00000000, 0.00000000, 0.00000000
1, 3.1599, 316, 0.18160866, -0.40771589, -0.02328071, -25.58210754, 96.00217438, 267.61199951, 0.00000000, 0.00000000, 0.00000000, 121.42666626, 45.48822403, 55.59690094, 1.00000000, 0.00000000, 0.00000000, 0.00000000, 0.54425776, -0.17686994, 0.38546887, 0.00000000, 0.00000000, 0.00000000, 0.00000000
1, 3.1699, 317, 0.26437953, -0.38208959, 0.02061909, -37.85541534, 89.30973053, 295.03448486, 0.00000000, 0.00000000, 0.00000000, 120.29058838, 42.49400330, 54.53699112, 1.00000000, 0.00000000, 0.00000000, 0.00000000, 0.42559946, -0.23990713, 0.34926593, 0.00000000, 0.00000000, 0.00000000, 0.00000000
1, 3.1799, 318, 0.31577376, -0.37278631, 0.02310538, -52.00990677, 81.75247192, 319.79241943, 0.00000000, 0.00000000, 0.00000000, 119.01551056, 39.31032181, 53.38335800, 1.00000000, 0.00000000, 0.00000000, 0.00000000, 0.33384195, -0.28874460, 0.35120517, 0.00000000, 0.00000000, 0.00000000, 0.00000000
1, 3.1899, 319, 0.30883604, -0.38644540, 0.04203098, -58.39437485, 69.45357513, 345.88684082, 0.00000000, 0.00000000, 0.00000000, 117.63780975, 35.93592072, 52.08330536, 1.00000000, 0.00000000, 0.00000000, 0.00000000, 0.29593772, -0.31558880, 0.33359230, 0.00000000, 0.00000000, 0.00000000, 0.00000000
1, 3.1999, 320, 0.24923010, -0.43965182, -0.02111444, -59.93756104, 60.29140854, 369.40405273, 0.00000000, 0.00000000, 0.00000000, 116.26806641, 32.36946487, 50.70999908, 1.00000000, 0.00000000, 0.00000000, 0.00000000, 0.30579102, -0.30280340, 0.39578110, 0.00000000, 0.00000000, 0.00000000, 0.00000000
1, 3.2099, 321, 0.20668857, -0.49188289, 0.01401364, -52.44799805, 42.18767548, 389.88793945, 0.00000000, 0.00000000, 0.00000000, 114.97438812, 28.67110443, 49.19541931, 1.00000000, 0.00000000, 0.00000000, 0.00000000, 0.29426882, -0.28946418, 0.35771376, 0.00000000, 0.00000000, 0.00000000, 0.00000000
1, 3.2199, 322, 0.19084640, -0.56921810, 0.04164458, -43.07086182, 40.11756516, 405.02554321, 0.00000000, 0.00000000, 0.00000000, 113.85285950, 24.80947113, 47.72030640, 1.00000000, 0.00000000, 0.00000000, 0.00000000, 0.25172347, -0.24810484, 0.32677531, 0.00000000, 0.00000000, 0.00000000, 0.00000000
1, 3.2299, 323, 0.20865232, -0.65600550, 0.08862629, -34.69106293, 46.22863388, 418.57437134, 0.00000000, 0.00000000, 0.00000000, 112.98435974, 20.78465652, 46.37654877, 1.00000000, 0.00000000, 0.00000000, 0.00000000, 0.17084675, -0.19357482, 0.27714568, 0.00000000, 0.00000000, 0.00000000, 0.00000000
1, 3.2399, 324, 0.23160453, -0.73595172, 0.13503172, -28.25154877, 70.35599518, 431.48434448, 0.00000000, 0.00000000, 0.00000000, 112.35840607, 16.53198051, 45.30720901, 1.00000000, 0.00000000, 0.00000000, 0.00000000, 0.07967563, -0.14133844, 0.22969331, 0.00000000, 0.00000000, 0.00000000, 0.00000000
1, 3.2499, 325, 0.28334662, -0.85421336, 0.17915976, -18.84299278, 86.55149078, 442.46212769, 0.00000000, 0.00000000, 0.00000000, 111.94805145, 12.10756683, 44.41347122, 1.00000000, 0.00000000, 0.00000000, 0.00000000, -0.04521886, -0.04552510, 0.18593249, 0.00000000, 0.00000000, 0.00000000, 0.00000000
1, 3.2599, 326, 0.30308849, -1.01283872, 0.24080667, -16.50969124, 104.00835419, 450.26901245, 0.00000000, 0.00000000, 0.00000000, 111.65911865, 7.54084301, 43.69625854, 1.00000000, 0.00000000, 0.00000000, 0.00000000, -0.14217672, 0.09644669, 0.12502339, 0.00000000, 0.00000000, 0.00000000, 0.00000000
1, 3.2699, 327, 0.31236285, -1.17195761, 0.25231785, -16.95929337, 122.11138916, 447.70556641, 0.00000000, 0.00000000, 0.00000000, 111.42678833, 2.95001531, 43.23074341, 1.00000000, 0.00000000, 0.00000000, 0.00000000, -0.23112637, 0.24493426, 0.11309565, 0.00000000, 0.00000000, 0.00000000, 0.00000000
1, 3.2799, 328, 0.48420587, -1.33836246, 0.22414057, -15.82187557, 137.73944092, 430.56921387, 0.00000000, 0.00000000, 0.00000000, 111.26373291, -1.56150675, 42.94663239, 1.00000000, 0.00000000, 0.00000000, 0.00000000, -0.48212904, 0.40702963, 0.13936141, 0.00000000, 0.00000000, 0.00000000, 0.00000000
1, 3.2899, 329, 0.84914392, -1.47085547, 0.26674083, -11.84969902, 147.80856323, 406.10546875, 0.00000000, 0.00000000, 0.00000000, 111.15016174, -5.88207388, 42.85557938, 1.00000000, 0.00000000, 0.00000000, 0.00000000, -0.92378032, 0.54127687, 0.09364050, 0.00000000, 0.00000000, 0.00000000, 0.00000000
1, 3.2999, 330, 1.32119930, -1.60181606, 0.42119238, -14.65797329, 158.64714050, 371.58435059, 0.00000000, 0.00000000, 0.00000000, 110.98201752, -9.91968250, 43.00128174, 1.00000000, 0.00000000, 0.00000000, 0.00000000, -1.46781576, 0.67884135, -0.06588975, 0.00000000, 0.00000000, 0.00000000, 0.00000000
1, 3.3099, 331, 1.86974788, -1.91165102, 0.68632233, -13.22227669, 158.80940247, 318.42373657, 0.00000000, 0.00000000, 0.00000000, 110.77642059, -13.46064568, 43.35826874, 1.00000000, 0.00000000, 0.00000000, 0.00000000, -2.08074450, 0.99827921, -0.33854932, 0.00000000, 0.00000000, 0.00000000, 0.00000000
1, 3.3199, 332, 2.22840977, -2.19721937, 1.06823289, -8.38501644, 153.04319763, 248.38743591, 0.00000000, 0.00000000, 0.00000000, 110.54440308, -16.30910492, 43.95463943, 1.00000000, 0.00000000, 0.00000000, 0.00000000, -2.49257350, 1.29494905, -0.72772020, 0.00000000, 0.00000000, 0.00000000, 0.00000000
1, 3.3299, 333, 2.34327769, -1.31959093, 0.96944386, -131.46733093, 115.59033203, 191.40768433, 0.00000000, 0.00000000, 0.00000000, 109.09390259, -18.50278473, 44.41011810, 1.00000000, 0.00000000, 0.00000000, 0.00000000, -2.64759922, 0.42292061, -0.64818335, 0.00000000, 0.00000000, 0.00000000, 0.00000000
1, 3.3399, 334, 2.43238187, -0.33273154, 0.77571654, -128.53668213, 88.88980865, 150.07400513, 0.00000000, 0.00000000, 0.00000000, 107.67772675, -20.20677757, 44.80355453, 1.00000000, 0.00000000, 0.00000000, 0.00000000, -2.76801896, -0.56237137, -0.48239487, 0.00000000, 0.00000000, 0.00000000, 0.00000000
1, 3.3499, 335, 2.50291061, -0.12579918, 0.88204437, -26.23446274, 74.35685730, 90.08084106, 0.00000000, 0.00000000, 0.00000000, 107.24815369, -21.28866386, 45.27407837, 1.00000000, 0.00000000, 0.00000000, 0.00000000, -2.86017919, -0.76571071, -0.60357881, 0.00000000, 0.00000000, 0.00000000, 0.00000000
1, 3.3599, 336, 2.59789610, -0.24785571, 0.89391565, 6.97073126, 64.20135498, 31.91248703, 0.00000000, 0.00000000, 0.00000000, 107.11257935, -21.78323555, 45.83214569, 1.00000000, 0.00000000, 0.00000000, 0.00000000, -2.96666193, -0.64023435, -0.61950171, 0.00000000, 0.00000000, 0.00000000, 0.00000000
1, 3.3699, 337, 2.46937227, -0.44684672, 1.05166459, 24.85569572, 50.36814499, -32.09642792, 0.00000000, 0.00000000, 0.00000000, 107.13981628, -21.59298706, 46.48839569, 1.00000000, 0.00000000, 0.00000000, 0.00000000, -2.83965492, -0.44098008, -0.77844018, 0.00000000, 0.00000000, 0.00000000, 0.00000000
1, 3.3799, 338, 2.28852582, -0.33677265, 1.08900535, 3.95917988, 26.59865379, -88.15319061, 0.00000000, 0.00000000, 0.00000000, 106.98005676, -20.82843971, 47.03884125, 1.00000000, 0.00000000, 0.00000000, 0.00000000, -2.64934850, -0.55480802, -0.81537491, 0.00000000, 0.00000000, 0.00000000, 0.00000000
1, 3.3899, 339, 2.67455482, -0.08417293, 1.29905820, 28.90974236, 34.39780045, -150.31362915, 0.00000000, 0.00000000, 0.00000000, 106.98819733, -19.49059677, 47.85542679, 1.00000000, 0.00000000, 0.00000000, 0.00000000, -3.01760006, -0.81441975, -1.02556157, 0.00000000, 0.00000000, 0.00000000, 0.00000000
1, 3.3999, 340, 0.70499176, -2.68236327, 0.18684129, 174.73210144, -31.63754272, -243.10260010, 0.00000000, 0.00000000, 0.00000000, 108.57744598, -17.06998825, 48.32030106, 1.00000000, 0.00000000, 0.00000000, 0.00000000, -1.01556361, 1.77749753, 0.10390653, 0.00000000, 0.00000000, 0.00000000, 0.00000000
1, 3.4099, 341, -0.45856497, -4.03495359, 0.74692565, 163.13291931, -123.38349152, -139.13481140, 0.00000000, 0.00000000, 0.00000000, 110.41384888, -15.34889889, 47.58507538, 1.00000000, 0.00000000, 0.00000000, 0.00000000, 0.18831486, 3.12911654, -0.42084587, 0.00000000, 0.00000000, 0.00000000, 0.00000000
1, 3.4199, 342, -1.10066438, -2.50380230, 0.18122378, -139.73815918, -56.22203827, -252.16029358, 0.00000000, 0.00000000, 0.00000000, 108.89611053, -12.76825428, 47.98225784, 1.00000000, 0.00000000, 0.00000000, 0.00000000, 0.85902894, 1.59132254, 0.14838290, 0.00000000, 0.00000000, 0.00000000, 0.00000000
1, 3.4299, 343, 0.96074355, 0.04210293, -0.33112857, -107.25308228, 79.79273987, -325.60580444, 0.00000000, 0.00000000, 0.00000000, 107.47814178, -9.91208076, 49.77743530, 1.00000000, 0.00000000, 0.00000000, 0.00000000, -1.15066397, -0.97715896, 0.63010854, 0.00000000, 0.00000000, 0.00000000, 0.00000000
1, 3.4399, 344, 1.94538295, 0.13881549, 0.82183564, 222.96289062, 239.95597839, -316.52484131, 0.00000000, 0.00000000, 0.00000000, 109.20590210, -7.65377426, 53.08223343, 1.00000000, 0.00000000, 0.00000000, 0.00000000, -2.09247589, -1.07726264, -0.50963062, 0.00000000, 0.00000000, 0.00000000, 0.00000000
1, 3.4499, 345, 2.14463997, -0.42562079, 1.48426580, 182.36779785, -64.73807526, -259.31805420, 0.00000000, 0.00000000, 0.00000000, 110.98337555, -4.98716021, 53.37503052, 1.00000000, 0.00000000, 0.00000000, 0.00000000, -2.25010347, -0.50625139, -1.13750410, 0.00000000, 0.00000000, 0.00000000, 0.00000000
1, 3.4599, 346, 0.87476623, -0.56701046, -0.36309040, 56.34445572, -164.76744080, -217.86682129, 0.00000000, 0.00000000, 0.00000000, 111.59706116, -2.35852981, 52.63270569, 1.00000000, 0.00000000, 0.00000000, 0.00000000, -0.93211293, -0.36206573, 0.72828746, 0.00000000, 0.00000000, 0.00000000, 0.00000000
1, 3.4699, 347, 0.77430373, -0.61653930, -0.78935367, -29.16939735, -13.71293926, -189.63053894, 0.00000000, 0.00000000, 0.00000000, 111.16782379, -0.35221812, 53.54870987, 1.00000000, 0.00000000, 0.00000000, 0.00000000, -0.79376847, -0.31436831, 1.15395761, 0.00000000, 0.00000000, 0.00000000, 0.00000000
1, 3.4799, 348, 0.96841782, -0.53288436, 0.36838645, 63.86019135, -33.14013672, -141.30062866, 0.00000000, 0.00000000, 0.00000000, 111.80467224, 1.08576667, 53.75489807, 1.00000000, 0.00000000, 0.00000000, 0.00000000, -0.95873308, -0.39776701, -0.00269766, 0.00000000, 0.00000000, 0.00000000, 0.00000000
1, 3.4899, 349, 0.81306857, -0.65216869, 0.70514953, 90.32552338, -64.26376343, -92.38138580, 0.00000000, 0.00000000, 0.00000000, 112.70096588, 2.18423295, 53.51034164, 1.00000000, 0.00000000, 0.00000000, 0.00000000, -0.78140587, -0.27171940, -0.32385162, 0.00000000, 0.00000000, 0.00000000, 0.00000000
1, 3.4999, 350, 0.61004281, -0.95806777, 0.51677102, 32.50540924, -79.52368164, -63.13748169, 0.00000000, 0.00000000, 0.00000000, 113.00325012, 3.07509255, 53.02233124, 1.00000000, 0.00000000, 0.00000000, 0.00000000, -0.56197345, 0.03798394, -0.12803587, 0.00000000, 0.00000000, 0.00000000, 0.00000000
1, 3.5099, 351, 0.50350648, -1.54692137, 0.39987841, 39.17299271, -51.49943542, -38.10990143, 0.00000000, 0.00000000, 0.00000000, 113.37607574, 3.62795901, 52.69812012, 1.00000000, 0.00000000, 0.00000000, 0.00000000, -0.44338283, 0.62957919, -0.00635763, 0.00000000, 0.00000000, 0.00000000, 0.00000000
1, 3.5199, 352, 0.38073716, -2.01893687, 0.60347623, 61.81405640, -24.38979530, -33.20265198, 0.00000000, 0.00000000, 0.00000000, 113.98796082, 4.04109955, 52.62761307, 1.00000000, 0.00000000, 0.00000000, 0.00000000, -0.31295499, 1.10576224, -0.20160034, 0.00000000, 0.00000000, 0.00000000, 0.00000000
1, 3.5299, 353, 0.48857039, -1.31571651, 0.64455223, -8.15966129, -12.33236217, -58.73276520, 0.00000000, 0.00000000, 0.00000000, 113.91576385, 4.62772036, 52.75447083, 1.00000000, 0.00000000, 0.00000000, 0.00000000, -0.41218430, 0.40499255, -0.23867574, 0.00000000, 0.00000000, 0.00000000, 0.00000000
1, 3.5399, 354, 0.46147951, -1.01305115, 0.45009243, -12.58061600, -9.58602715, -60.69367599, 0.00000000, 0.00000000, 0.00000000, 113.80366516, 5.22176552, 52.91226959, 1.00000000, 0.00000000, 0.00000000, 0.00000000, -0.37411952, 0.10146639, -0.04837943, 0.00000000, 0.00000000, 0.00000000, 0.00000000
1, 3.5499, 355, 0.51236075, -1.17812872, 0.46885169, 46.41967392, -8.84347057, -47.19775009, 0.00000000, 0.00000000, 0.00000000, 114.27839661, 5.68897867, 53.02416229, 1.00000000, 0.00000000, 0.00000000, 0.00000000, -0.41615921, 0.26948923, -0.06251629, 0.00000000, 0.00000000, 0.00000000, 0.00000000
1, 3.5599, 356, 0.51579124, -1.22109878, 0.46507135, 16.45259857, -21.75945473, -35.17130661, 0.00000000, 0.00000000, 0.00000000, 114.43738556, 6.09919119, 52.97098541, 1.00000000, 0.00000000, 0.00000000, 0.00000000, -0.41214782, 0.31545308, -0.05390262, 0.00000000, 0.00000000, 0.00000000, 0.00000000
1, 3.5699, 357, 0.60458440, -0.98365003, 0.43569654, -17.75476265, -34.40357971, -23.92971802, 0.00000000, 0.00000000, 0.00000000, 114.24063110, 6.71768999, 53.18767929, 1.00000000, 0.00000000, 0.00000000, 0.00000000, -0.49327797, 0.07807624, -0.02638767, 0.00000000, 0.00000000, 0.00000000, 0.00000000
1, 3.5799, 358, 0.58043122, -0.85340238, 0.45568758, -12.52809620, -59.33510971, -12.37069321, 0.00000000, 0.00000000, 0.00000000, 114.05587769, 7.07319880, 52.69322586, 1.00000000, 0.00000000, 0.00000000, 0.00000000, -0.45963725, -0.05260724, -0.05003788, 0.00000000, 0.00000000, 0.00000000, 0.00000000
1, 3.5899, 359, 0.38415554, -0.90272945, 0.40438664, -5.47457170, -83.20208740, -5.51125193, 0.00000000, 0.00000000, 0.00000000, 113.90692139, 7.46167946, 51.94943619, 1.00000000, 0.00000000, 0.00000000, 0.00000000, -0.25680146, -0.00364123, -0.00156034, 0.00000000, 0.00000000, 0.00000000, 0.00000000
1, 3.5999, 360, 0.22250527, -1.05993140, 0.37474063, 0.72284007, -95.28839874, 0.65759534, 0.00000000, 0.00000000, 0.00000000, 113.79663086, 7.84090805, 51.06738663, 1.00000000, 0.00000000, 0.00000000, 0.00000000, -0.08851805, 0.15346332, 0.02570826, 0.00000000, 0.00000000, 0.00000000, 0.00000000
1, 3.6099, 361, -0.15056367, -1.31646264, 0.43000597, 6.16315603, -97.11549377, -0.11299939, 0.00000000, 0.00000000, 0.00000000, 113.73290253, 8.23329830, 50.17022705, 1.00000000, 0.00000000, 0.00000000, 0.00000000, 0.29122335, 0.41029182, -0.03117578, 0.00000000, 0.00000000, 0.00000000, 0.00000000
1, 3.6199, 362, -0.33278972, -1.38760424, 0.58618021, -3.97992325, -70.46585083, -8.75672913, 0.00000000, 0.00000000, 0.00000000, 113.61570740, 8.50603008, 49.38988876, 1.00000000, 0.00000000, 0.00000000, 0.00000000, 0.47950575, 0.48159629, -0.18916401, 0.00000000, 0.00000000, 0.00000000, 0.00000000
1, 3.6299, 363, -0.08496644, -1.19874120, 0.54653710, -14.69972229, -51.74830627, -27.18144989, 0.00000000, 0.00000000, 0.00000000, 113.41263580, 8.96182537, 49.01956177, 1.00000000, 0.00000000, 0.00000000, 0.00000000, 0.23767790, 0.29239339, -0.15257412, 0.00000000, 0.00000000, 0.00000000, 0.00000000
1, 3.6399, 364, -0.05189095, -1.04062152, 0.33978128, -18.07622337, -38.92339325, -39.11583710, 0.00000000, 0.00000000, 0.00000000, 113.19904327, 9.47509289, 48.81417084, 1.00000000, 0.00000000, 0.00000000, 0.00000000, 0.21311915, 0.13404226, 0.05023430, 0.00000000, 0.00000000, 0.00000000, 0.00000000
1, 3.6499, 365, -0.12260105, -0.88426214, 0.29145288, -20.89701653, -27.34825325, -47.51942825, 0.00000000, 0.00000000, 0.00000000, 112.97896576, 10.01951313, 48.74801636, 1.00000000, 0.00000000, 0.00000000, 0.00000000, 0.29307872, -0.02234206, 0.09454974, 0.00000000, 0.00000000, 0.00000000, 0.00000000
1, 3.6599, 366, -0.00691678, -0.73963034, 0.24254772, -20.55943680, -2.52604294, -56.85545731, 0.00000000, 0.00000000, 0.00000000, 112.80940247, 10.55318737, 48.94908142, 1.00000000, 0.00000000, 0.00000000, 0.00000000, 0.18662474, -0.16681458, 0.13962403, 0.00000000, 0.00000000, 0.00000000, 0.00000000
1, 3.6699, 367, 0.12250535, -0.72659808, 0.20067659, -7.09121466, 6.96538544, -62.82312393, 0.00000000, 0.00000000, 0.00000000, 112.73209381, 11.12391663, 49.31389236, 1.00000000, 0.00000000, 0.00000000, 0.00000000, 0.06658340, -0.17879289, 0.17946070, 0.00000000, 0.00000000, 0.00000000, 0.00000000
1, 3.6799, 368, 0.24123743, -0.76498199, 0.18419032, 0.56711107, 3.15043592, -69.80400848, 0.00000000, 0.00000000, 0.00000000, 112.79820251, 11.75539494, 49.61909866, 1.00000000, 0.00000000, 0.00000000, 0.00000000, -0.04169476, -0.13852331, 0.19508643, 0.00000000, 0.00000000, 0.00000000, 0.00000000
1, 3.6899, 369, 0.22460620, -0.77964491, 0.18269336, 2.55156589, -7.75690460, -74.62916565, 0.00000000, 0.00000000, 0.00000000, 112.87049103, 12.47330952, 49.84215546, 1.00000000, 0.00000000, 0.00000000, 0.00000000, -0.01327560, -0.12111610, 0.19672239, 0.00000000, 0.00000000, 0.00000000, 0.00000000
1, 3.6999, 370, 0.22692679, -0.74009269, 0.22904983, 5.05559826, -12.10531998, -79.10336304, 0.00000000, 0.00000000, 0.00000000, 112.96584320, 13.24905968, 50.04372787, 1.00000000, 0.00000000, 0.00000000, 0.00000000, -0.00279009, -0.15746780, 0.15059882, 0.00000000, 0.00000000, 0.00000000, 0.00000000
1, 3.7099, 371, 0.23889910, -0.71554875, 0.27263698, 10.46817589, -14.81211853, -85.01123810, 0.00000000, 0.00000000, 0.00000000, 113.11830902, 14.08932877, 50.24586105, 1.00000000, 0.00000000, 0.00000000, 0.00000000, -0.00088643, -0.17811254, 0.10776000, 0.00000000, 0.00000000, 0.00000000, 0.00000000
1, 3.7199, 372, 0.19467531, -0.73575574, 0.24086535, 10.41545868, -12.09103107, -91.22572327, 0.00000000, 0.00000000, 0.00000000, 113.25995636, 14.94993877, 50.46394730, 1.00000000, 0.00000000, 0.00000000, 0.00000000, 0.05796681, -0.15343773, 0.14056462, 0.00000000, 0.00000000, 0.00000000, 0.00000000
1, 3.7299, 373, 0.18360229, -0.72498304, 0.26784584, 5.72994900, -9.63463306, -97.00162506, 0.00000000, 0.00000000, 0.00000000, 113.39883423, 15.87878323, 50.77070618, 1.00000000, 0.00000000, 0.00000000, 0.00000000, 0.08407836, -0.15961367, 0.11401089, 0.00000000, 0.00000000, 0.00000000, 0.00000000
1, 3.7399, 374, 0.21641633, -0.74927622, 0.24565890, 5.14006901, -8.46206665, -103.49026489, 0.00000000, 0.00000000, 0.00000000, 113.54856873, 16.86175346, 51.11944580, 1.00000000, 0.00000000, 0.00000000, 0.00000000, 0.06743941, -0.13011625, 0.13653354, 0.00000000, 0.00000000, 0.00000000, 0.00000000
1, 3.7499, 375, 0.22798516, -0.83079582, 0.28585020, 3.07635498, -4.81532574, -111.59412384, 0.00000000, 0.00000000, 0.00000000, 113.70552826, 17.90342712, 51.54191971, 1.00000000, 0.00000000, 0.00000000, 0.00000000, 0.07283063, -0.04278858, 0.09668542, 0.00000000, 0.00000000, 0.00000000, 0.00000000
1, 3.7599, 376, 0.19005221, -0.94263113, 0.21521804, 0.76202732, -11.13784027, -117.52004242, 0.00000000, 0.00000000, 0.00000000, 113.83723450, 19.02381897, 51.93389893, 1.00000000, 0.00000000, 0.00000000, 0.00000000, 0.12887344, 0.07539043, 0.16707680, 0.00000000, 0.00000000, 0.00000000, 0.00000000
1, 3.7699, 377, 0.19578241, -1.06537938, 0.13913578, 0.54488617, -15.40702915, -124.05990601, 0.00000000, 0.00000000, 0.00000000, 113.86784363, 20.16218567, 52.21720505, 1.00000000, 0.00000000, 0.00000000, 0.00000000, 0.14213231, 0.20488304, 0.24208397, 0.00000000, 0.00000000, 0.00000000, 0.00000000
1, 3.7799, 378, 0.18388489, -1.19282305, 0.12071607, -0.46877164, -23.34524155, -130.58076477, 0.00000000, 0.00000000, 0.00000000, 113.98322296, 21.45044899, 52.55551147, 1.00000000, 0.00000000, 0.00000000, 0.00000000, 0.17383380, 0.33937523, 0.25826144, 0.00000000, 0.00000000, 0.00000000, 0.00000000
1, 3.7899, 379, 0.20945406, -1.29358113, 0.09787393, -5.06212044, -36.67586136, -138.25885010, 0.00000000, 0.00000000, 0.00000000, 114.02495575, 22.86264610, 52.80107117, 1.00000000, 0.00000000, 0.00000000, 0.00000000, 0.17033915, 0.44860148, 0.27858019, 0.00000000, 0.00000000, 0.00000000, 0.00000000
1, 3.7999, 380, 0.15495217, -1.41666162, 0.00572468, -1.74120951, -49.76871109, -147.11592102, 0.00000000, 0.00000000, 0.00000000, 114.07067871, 24.40894318, 52.95917892, 1.00000000, 0.00000000, 0.00000000, 0.00000000, 0.24888434, 0.58128238, 0.36710158, 0.00000000, 0.00000000, 0.00000000, 0.00000000
1, 3.8099, 381, 0.06229521, -1.49536097, -0.02740735, 2.37900734, -68.96016693, -153.69230652, 0.00000000, 0.00000000, 0.00000000, 114.09288025, 26.09347343, 52.95640564, 1.00000000, 0.00000000, 0.00000000, 0.00000000, 0.36741069, 0.67106676, 0.39594913, 0.00000000, 0.00000000, 0.00000000, 0.00000000
1, 3.8199, 382, 0.01377538, -1.50357032, -0.09148690, 7.07916546, -91.74015808, -161.29801941, 0.00000000, 0.00000000, 0.00000000, 114.01113129, 27.87986565, 52.63525009, 1.00000000, 0.00000000, 0.00000000, 0.00000000, 0.44362476, 0.69165075, 0.45410877, 0.00000000, 0.00000000, 0.00000000, 0.00000000
1, 3.8299, 383, -0.18913527, -1.52340758, -0.15802875, 13.82975101, -126.82866669, -169.91395569, 0.00000000, 0.00000000, 0.00000000, 113.88954163, 29.94756508, 52.09890366, 1.00000000, 0.00000000, 0.00000000, 0.00000000, 0.67634732, 0.72531009, 0.51237422, 0.00000000, 0.00000000, 0.00000000, 0.00000000
1, 3.8399, 384, -0.45176545, -1.56868112, -0.22692157, 27.81608582, -151.89201355, -175.45535278, 0.00000000, 0.00000000, 0.00000000, 113.75708008, 32.16606140, 51.30367279, 1.00000000, 0.00000000, 0.00000000, 0.00000000, 0.97162545, 0.78716022, 0.57167041, 0.00000000, 0.00000000, 0.00000000, 0.00000000
1, 3.8499, 385, -0.70167857, -1.64955032, -0.25329331, 39.82276917, -170.31703186, -180.98179626, 0.00000000, 0.00000000, 0.00000000, 113.60692596, 34.50758362, 50.30662537, 1.00000000, 0.00000000, 0.00000000, 0.00000000, 1.25531244, 0.88691252, 0.58756900, 0.00000000, 0.00000000, 0.00000000, 0.00000000
1, 3.8599, 386, -0.79833454, -1.82056618, -0.08398104, 46.55446625, -181.48565674, -182.84077454, 0.00000000, 0.00000000, 0.00000000, 113.40029144, 36.90805817, 49.15494156, 1.00000000, 0.00000000, 0.00000000, 0.00000000, 1.38619637, 1.07865489, 0.40623620, 0.00000000, 0.00000000, 0.00000000, 0.00000000
1, 3.8699, 387, -0.57012284, -1.93225491, 0.17892657, 49.88300323, -170.27566528, -195.85624695, 0.00000000, 0.00000000, 0.00000000, 113.26952362, 39.33531189, 48.06762695, 1.00000000, 0.00000000, 0.00000000, 0.00000000, 1.19163811, 1.21287775, 0.13103047, 0.00000000, 0.00000000, 0.00000000, 0.00000000
1, 3.8799, 388, -0.20198371, -2.15196657, 0.31240866, 59.00091171, -131.74389648, -218.97993469, 0.00000000, 0.00000000, 0.00000000, 113.57086945, 41.86779022, 47.62099838, 1.00000000, 0.00000000, 0.00000000, 0.00000000, 0.85693789, 1.45857143, -0.01226900, 0.00000000, 0.00000000, 0.00000000, 0.00000000
1, 3.8899, 389, -0.01786986, -2.68768644, 0.37366506, 82.00077057, -84.85479736, -231.78051758, 0.00000000, 0.00000000, 0.00000000, 114.55044556, 44.32986450, 47.85291290, 1.00000000, 0.00000000, 0.00000000, 0.00000000, 0.70508313, 2.02485442, -0.07662172, 0.00000000, 0.00000000, 0.00000000, 0.00000000
1, 3.8999, 390, 0.02506726, -2.89162922, 0.77096915, 79.83565521, -71.94557190, -228.87196350, 0.00000000, 0.00000000, 0.00000000, 115.67575836, 46.70738220, 48.31067276, 1.00000000, 0.00000000, 0.00000000, 0.00000000, 0.69209486, 2.26148176, -0.47357145, 0.00000000, 0.00000000, 0.00000000, 0.00000000
1, 3.9099, 391, -0.13336219, -2.54654551, 0.96860975, 16.02744865, -65.40262604, -220.48921204, 0.00000000, 0.00000000, 0.00000000, 116.25643158, 48.97552490, 48.87742615, 1.00000000, 0.00000000, 0.00000000, 0.00000000, 0.87803936, 1.94729757, -0.67495066, 0.00000000, 0.00000000, 0.00000000, 0.00000000
1, 3.9199, 392, -0.02547776, -2.29756451, 0.73585111, -21.50007439, -56.29427338, -215.23269653, 0.00000000, 0.00000000, 0.00000000, 116.57572937, 51.12040329, 49.51959610, 1.00000000, 0.00000000, 0.00000000, 0.00000000, 0.79523301, 1.72611308, -0.45157850, 0.00000000, 0.00000000, 0.00000000, 0.00000000
1, 3.9299, 393, 0.29053080, -2.20348048, 0.70706892, -6.21505404, -40.07347107, -200.12678528, 0.00000000, 0.00000000, 0.00000000, 117.21780396, 53.08665848, 50.41084671, 1.00000000, 0.00000000, 0.00000000, 0.00000000, 0.50142282, 1.65917897, -0.43056926, 0.00000000, 0.00000000, 0.00000000, 0.00000000
