SensorId, TimeStamp (s), FrameNumber, AccX (g), AccY (g), AccZ (g), GyroX (deg/s), GyroY (deg/s), GyroZ (deg/s), MagX (uT), MagY (uT), MagZ (uT), EulerX (deg), EulerY (deg), EulerZ (deg), QuatW, QuatX, QuatY, QuatZ, LinAccX (g), LinAccY (g), LinAccZ (g), Pressure (kPa), Altitude (m), Temperature (degC), HeaveMotion (m)
1, -0.0000, 0, 0.23747385, -0.45112887, 0.24495733, 4.18946028, 37.73765945, 8.86868477, 0.00000000, 0.00000000, 0.00000000, 77.52552795, 45.40430450, 44.55690765, 1.00000000, 0.00000000, 0.00000000, 0.00000000, 0.47494560, -0.23355472, -0.39878899, 0.00000000, 0.00000000, 0.00000000, 0.00000000
1, 0.0100, 1, 0.13747509, -0.28337735, 0.26977420, 28.69996071, 33.96377563, 45.55240631, 0.00000000, 0.00000000, 0.00000000, 78.24364471, 45.03031921, 45.16400528, 1.00000000, 0.00000000, 0.00000000, 0.00000000, 0.57209522, -0.40573794, -0.41680887, 0.00000000, 0.00000000, 0.00000000, 0.00000000
1, 0.0200, 2, 0.13617104, -0.20990697, 0.17623700, 42.23892593, 32.02872086, 86.20690155, 0.00000000, 0.00000000, 0.00000000, 79.14315796, 44.24779892, 45.84282684, 1.00000000, 0.00000000, 0.00000000, 0.00000000, 0.56552625, -0.48897648, -0.31464469, 0.00000000, 0.00000000, 0.00000000, 0.00000000
1, 0.0300, 3, 0.12422233, -0.19402008, 0.09378515, 43.42204285, 37.55839539, 126.50566864, 0.00000000, 0.00000000, 0.00000000, 80.19268799, 43.05231857, 46.73036575, 1.00000000, 0.00000000, 0.00000000, 0.00000000, 0.56455874, -0.51940727, -0.22243568, 0.00000000, 0.00000000, 0.00000000, 0.00000000
1, 0.0400, 4, 0.00835318, -0.18980701, 0.04544334, 46.93449020, 42.67267609, 162.58871460, 0.00000000, 0.00000000, 0.00000000, 81.28324127, 41.51631927, 47.65330887, 1.00000000, 0.00000000, 0.00000000, 0.00000000, 0.66230440, -0.54250944, -0.16315371, 0.00000000, 0.00000000, 0.00000000, 0.00000000
1, 0.0500, 5, -0.13981217, -0.18061009, 0.03146534, 58.01915741, 54.26239014, 194.40315247, 0.00000000, 0.00000000, 0.00000000, 82.55771637, 39.66773605, 48.72070694, 1.00000000, 0.00000000, 0.00000000, 0.00000000, 0.78768420, -0.57376707, -0.13667366, 0.00000000, 0.00000000, 0.00000000, 0.00000000
1, 0.0600, 6, -0.29754600, -0.11407789, -0.00150722, 68.38369751, 77.49140930, 223.87873840, 0.00000000, 0.00000000, 0.00000000, 84.06390381, 37.53422546, 50.03906250, 1.00000000, 0.00000000, 0.00000000, 0.00000000, 0.91805559, -0.66497147, -0.08739604, 0.00000000, 0.00000000, 0.00000000, 0.00000000
1, 0.0700, 7, -0.33884078, -0.05983072, 0.05987198, 72.16436768, 97.78360748, 250.56541443, 0.00000000, 0.00000000, 0.00000000, 85.66658020, 35.12591553, 51.52613068, 1.00000000, 0.00000000, 0.00000000, 0.00000000, 0.92729080, -0.74559051, -0.12944999, 0.00000000, 0.00000000, 0.00000000, 0.00000000
1, 0.0800, 8, -0.27769163, -0.15160449, 0.20282149, 86.88314819, 112.17582703, 274.26629639, 0.00000000, 0.00000000, 0.00000000, 87.44100952, 32.40465164, 53.15872574, 1.00000000, 0.00000000, 0.00000000, 0.00000000, 0.82903063, -0.68119669, -0.25006559, 0.00000000, 0.00000000, 0.00000000, 0.00000000
1, 0.0900, 9, -0.18804747, -0.37867865, 0.19689494, 97.39189148, 125.22640228, 287.74838257, 0.00000000, 0.00000000, 0.00000000, 89.21704865, 29.56466103, 54.71637344, 1.00000000, 0.00000000, 0.00000000, 0.00000000, 0.69764864, -0.48131543, -0.21851037, 0.00000000, 0.00000000, 0.00000000, 0.00000000
1, 0.1000, 10, -0.07304879, -0.55104744, 0.18629965, 100.30944824, 131.25294495, 299.63064575, 0.00000000, 0.00000000, 0.00000000, 90.91867828, 26.56682396, 56.19976044, 1.00000000, 0.00000000, 0.00000000, 0.00000000, 0.53791165, -0.33417082, -0.18186635, 0.00000000, 0.00000000, 0.00000000, 0.00000000
1, 0.1100, 11, -0.01793795, -0.69365966, 0.14729063, 124.41431427, 151.70138550, 313.89099121, 0.00000000, 0.00000000, 0.00000000, 92.82153320, 23.37996864, 57.75946808, 1.00000000, 0.00000000, 0.00000000, 0.00000000, 0.43398729, -0.21489336, -0.11386096, 0.00000000, 0.00000000, 0.00000000, 0.00000000
1, 0.1200, 12, 0.02305616, -0.76248294, 0.21588916, 135.59204102, 159.95840454, 327.16842651, 0.00000000, 0.00000000, 0.00000000, 94.72779083, 20.01028633, 59.24547577, 1.00000000, 0.00000000, 0.00000000, 0.00000000, 0.33993635, -0.16683088, -0.15059225, 0.00000000, 0.00000000, 0.00000000, 0.00000000
1, 0.1300, 13, 0.11701538, -0.82889497, 0.26872265, 138.01754761, 145.52189636, 338.69290161, 0.00000000, 0.00000000, 0.00000000, 96.49502563, 16.49170303, 60.43373871, 1.00000000, 0.00000000, 0.00000000, 0.00000000, 0.18901145, -0.11798474, -0.17174970, 0.00000000, 0.00000000, 0.00000000, 0.00000000
1, 0.1400, 14, 0.33103791, -0.89234084, 0.28373316, 139.36282349, 116.08380890, 349.86132812, 0.00000000, 0.00000000, 0.00000000, 98.07636261, 12.87494659, 61.16542435, 1.00000000, 0.00000000, 0.00000000, 0.00000000, -0.08512491, -0.06848519, -0.15735224, 0.00000000, 0.00000000, 0.00000000, 0.00000000
1, 0.1500, 15, 0.62651801, -1.02848136, 0.22183052, 140.95031738, 91.20707703, 359.29565430, 0.00000000, 0.00000000, 0.00000000, 99.55549622, 9.18512917, 61.52241135, 1.00000000, 0.00000000, 0.00000000, 0.00000000, -0.44303182, 0.05777270, -0.06793870, 0.00000000, 0.00000000, 0.00000000, 0.00000000
1, 0.1600, 16, 0.80951416, -1.20349085, 0.22623184, 150.46478271, 74.23812103, 372.61102295, 0.00000000, 0.00000000, 0.00000000, 101.07019043, 5.38707733, 61.58698273, 1.00000000, 0.00000000, 0.00000000, 0.00000000, -0.69075960, 0.22736728, -0.04545855, 0.00000000, 0.00000000, 0.00000000, 0.00000000
1, 0.1700, 17, 0.74018151, -1.37171221, 0.29525009, 163.52453613, 57.63256836, 389.26455688, 0.00000000, 0.00000000, 0.00000000, 102.69240570, 1.45967388, 61.34906006, 1.00000000, 0.00000000, 0.00000000, 0.00000000, -0.68886304, 0.39536151, -0.08626968, 0.00000000, 0.00000000, 0.00000000, 0.00000000
1, 0.1800, 18, 0.58937132, -1.49479616, 0.19677423, 163.83175659, 47.62655640, 399.15237427, 0.00000000, 0.00000000, 0.00000000, 104.32916260, -2.51240325, 60.85429382, 1.00000000, 0.00000000, 0.00000000, 0.00000000, -0.60737765, 0.52367455, 0.04020655, 0.00000000, 0.00000000, 0.00000000, 0.00000000
1, 0.1900, 19, 0.64257079, -1.68714786, 0.12475532, 171.53852844, 41.52601242, 389.37908936, 0.00000000, 0.00000000, 0.00000000, 106.09325409, -6.37870693, 60.23247528, 1.00000000, 0.00000000, 0.00000000, 0.00000000, -0.72874767, 0.72694480, 0.14011633, 0.00000000, 0.00000000, 0.00000000, 0.00000000
1, 0.2000, 20, 0.70699966, -1.95774055, 0.14633328, 179.12022400, 51.25664520, 368.26202393, 0.00000000, 0.00000000, 0.00000000, 107.96879578, -10.05042553, 59.63887024, 1.00000000, 0.00000000, 0.00000000, 0.00000000, -0.85801744, 1.01389277, 0.14683074, 0.00000000, 0.00000000, 0.00000000, 0.00000000
1, 0.2100, 21, 0.68315655, -2.23407865, 0.15057862, 184.79463196, 74.94429779, 343.15057373, 0.00000000, 0.00000000, 0.00000000, 109.90024567, -13.54002380, 59.22611237, 1.00000000, 0.00000000, 0.00000000, 0.00000000, -0.89525163, 1.31122935, 0.17034909, 0.00000000, 0.00000000, 0.00000000, 0.00000000
1, 0.2200, 22, 0.81452620, -2.27515984, 0.09912106, 186.58178711, 97.05689240, 312.78332520, 0.00000000, 0.00000000, 0.00000000, 111.82107544, -16.80906105, 59.01263809, 1.00000000, 0.00000000, 0.00000000, 0.00000000, -1.08341670, 1.37671125, 0.24751544, 0.00000000, 0.00000000, 0.00000000, 0.00000000
1, 0.2300, 23, 1.03041482, -2.14752507, 0.07893533, 188.72460938, 126.80330658, 287.29653931, 0.00000000, 0.00000000, 0.00000000, 113.67844391, -19.92984581, 59.04975128, 1.00000000, 0.00000000, 0.00000000, 0.00000000, -1.35210633, 1.27605402, 0.29086214, 0.00000000, 0.00000000, 0.00000000, 0.00000000
1, 0.2400, 24, 1.18936670, -1.86536467, 0.02495803, 180.13333130, 161.66921997, 267.86373901, 0.00000000, 0.00000000, 0.00000000, 115.33748627, -23.03836250, 59.43590927, 1.00000000, 0.00000000, 0.00000000, 0.00000000, -1.56203902, 1.02267957, 0.36326230, 0.00000000, 0.00000000, 0.00000000, 0.00000000
1, 0.2500, 25, 1.03667879, -1.74069452, -0.05828695, 158.98077393, 174.96592712, 239.63327026, 0.00000000, 0.00000000, 0.00000000, 116.68881226, -25.95983696, 60.00875854, 1.00000000, 0.00000000, 0.00000000, 0.00000000, -1.45733654, 0.92679161, 0.45875597, 0.00000000, 0.00000000, 0.00000000, 0.00000000
1, 0.2600, 26, 1.00215614, -2.22954059, -0.01076750, 147.44532776, 186.08250427, 204.92469788, 0.00000000, 0.00000000, 0.00000000, 117.79267883, -28.63408089, 60.81486511, 1.00000000, 0.00000000, 0.00000000, 0.00000000, -1.46633077, 1.44327164, 0.41836566, 0.00000000, 0.00000000, 0.00000000, 0.00000000
1, 0.2700, 27, 1.62099361, -2.48620152, 0.15771490, 101.36164093, 172.03660583, 161.64526367, 0.00000000, 0.00000000, 0.00000000, 118.37458038, -30.87088776, 61.68429947, 1.00000000, 0.00000000, 0.00000000, 0.00000000, -2.12209296, 1.72375965, 0.25150681, 0.00000000, 0.00000000, 0.00000000, 0.00000000
1, 0.2800, 28, 2.20703506, -1.70821965, 0.01947249, 30.39282227, 127.61815643, 117.73487854, 0.00000000, 0.00000000, 0.00000000, 118.32347870, -32.49156570, 62.31962204, 1.00000000, 0.00000000, 0.00000000, 0.00000000, -2.73622894, 0.96158355, 0.38355777, 0.00000000, 0.00000000, 0.00000000, 0.00000000
1, 0.2900, 29, 2.37295651, -1.41392100, -0.15856840, 23.97467613, 51.90971756, 64.61590576, 0.00000000, 0.00000000, 0.00000000, 118.46677399, -33.30670166, 62.49776077, 1.00000000, 0.00000000, 0.00000000, 0.00000000, -2.91868591, 0.67680573, 0.55710077, 0.00000000, 0.00000000, 0.00000000, 0.00000000
1, 0.3000, 30, 2.26858592, -1.34982634, 0.00422589, 0.03688797, -14.65967751, -4.70009279, 0.00000000, 0.00000000, 0.00000000, 118.53700256, -33.19539642, 62.37058258, 1.00000000, 0.00000000, 0.00000000, 0.00000000, -2.81761265, 0.61554283, 0.39501840, 0.00000000, 0.00000000, 0.00000000, 0.00000000
1, 0.3100, 31, 1.73986125, -1.49403143, 0.05387668, -16.88460732, -29.53690910, -69.45024872, 0.00000000, 0.00000000, 0.00000000, 118.32256317, -32.44400406, 62.45493698, 1.00000000, 0.00000000, 0.00000000, 0.00000000, -2.28118968, 0.75457293, 0.34630737, 0.00000000, 0.00000000, 0.00000000, 0.00000000
1, 0.3200, 32, 1.40685105, -1.73496830, 0.22549590, -42.65777206, -35.62501907, -131.55607605, 0.00000000, 0.00000000, 0.00000000, 117.70840454, -31.11512566, 62.81192398, 1.00000000, 0.00000000, 0.00000000, 0.00000000, -1.93162799, 0.98319006, 0.17373390, 0.00000000, 0.00000000, 0.00000000, 0.00000000
1, 0.3300, 33, 1.33308852, -1.39977181, 1.08424175, -55.02125168, 0.49848029, -193.99330139, 0.00000000, 0.00000000, 0.00000000, 116.65850830, -29.34382439, 63.76970673, 1.00000000, 0.00000000, 0.00000000, 0.00000000, -1.83367026, 0.62907720, -0.69010043, 0.00000000, 0.00000000, 0.00000000, 0.00000000
1, 0.3400, 34, 0.08684231, -0.95928496, 1.38486969, -38.19190598, -0.77384698, -203.19134521, 0.00000000, 0.00000000, 0.00000000, 115.79376984, -27.51724625, 64.78147888, 1.00000000, 0.00000000, 0.00000000, 0.00000000, -0.55945981, 0.16765328, -0.99775088, 0.00000000, 0.00000000, 0.00000000, 0.00000000
1, 0.3500, 35, -1.24498248, -0.96243495, 1.23250544, -39.13430023, -52.62371445, -160.06071472, 0.00000000, 0.00000000, 0.00000000, 115.29252625, -25.84657288, 65.02346802, 1.00000000, 0.00000000, 0.00000000, 0.00000000, 0.79980308, 0.15409833, -0.84735686, 0.00000000, 0.00000000, 0.00000000, 0.00000000
1, 0.3600, 36, -1.04601991, -1.04071951, 0.80971730, -20.70933914, -67.94972229, -113.11420441, 0.00000000, 0.00000000, 0.00000000, 115.14739990, -24.53392220, 64.87583923, 1.00000000, 0.00000000, 0.00000000, 0.00000000, 0.62320304, 0.22040223, -0.42466256, 0.00000000, 0.00000000, 0.00000000, 0.00000000
1, 0.3700, 37, -0.22300121, -1.50729036, 0.45668572, -34.42430115, -103.39063263, -120.29382324, 0.00000000, 0.00000000, 0.00000000, 114.99139404, -23.00581932, 64.41040802, 1.00000000, 0.00000000, 0.00000000, 0.00000000, -0.17738195, 0.67747390, -0.06804963, 0.00000000, 0.00000000, 0.00000000, 0.00000000
1, 0.3800, 38, -0.19996777, -1.62007165, 0.43179995, -47.19038010, -67.73643494, -149.06330872, 0.00000000, 0.00000000, 0.00000000, 114.49312592, -21.35076523, 64.40679169, 1.00000000, 0.00000000, 0.00000000, 0.00000000, -0.17416841, 0.77753162, -0.04440065, 0.00000000, 0.00000000, 0.00000000, 0.00000000
1, 0.3900, 39, -0.20121601, -1.72530019, -0.08742083, -49.97950363, -11.66534233, -159.13009644, 0.00000000, 0.00000000, 0.00000000, 113.78955841, -19.85074806, 64.98883057, 1.00000000, 0.00000000, 0.00000000, 0.00000000, -0.14739525, 0.86962068, 0.46980658, 0.00000000, 0.00000000, 0.00000000, 0.00000000
1, 0.4000, 40, -0.17767769, -2.03819203, -0.40822223, -62.03525543, 19.86999702, -174.93750000, 0.00000000, 0.00000000, 0.00000000, 112.86673737, -18.32285500, 65.91487122, 1.00000000, 0.00000000, 0.00000000, 0.00000000, -0.14635789, 1.16881919, 0.78120458, 0.00000000, 0.00000000, 0.00000000, 0.00000000
1, 0.4100, 41, -0.09051291, -1.82898629, -0.53947514, -65.10588837, 38.94272614, -189.91680908, 0.00000000, 0.00000000, 0.00000000, 111.87425995, -16.71455765, 67.05037689, 1.00000000, 0.00000000, 0.00000000, 0.00000000, -0.20710872, 0.94539094, 0.90085787, 0.00000000, 0.00000000, 0.00000000, 0.00000000
1, 0.4200, 42, 0.21227629, -1.25495195, -0.40881810, -40.99661255, 47.06471252, -180.17663574, 0.00000000, 0.00000000, 0.00000000, 111.15022278, -15.21035004, 68.19227600, 1.00000000, 0.00000000, 0.00000000, 0.00000000, -0.48394239, 0.35886896, 0.75977492, 0.00000000, 0.00000000, 0.00000000, 0.00000000
1, 0.4300, 43, 0.28282553, -0.87601304, -0.17832187, -10.13438416, 58.21928406, -171.07830811, 0.00000000, 0.00000000, 0.00000000, 110.67411041, -13.71877003, 69.28309631, 1.00000000, 0.00000000, 0.00000000, 0.00000000, -0.52993929, -0.02941865, 0.52338672, 0.00000000, 0.00000000, 0.00000000, 0.00000000
1, 0.4400, 44, 0.38545570, -0.68295050, 0.04582105, 7.27568340, 74.02854919, -164.43785095, 0.00000000, 0.00000000, 0.00000000, 110.45192719, -12.43904877, 70.58750153, 1.00000000, 0.00000000, 0.00000000, 0.00000000, -0.60889947, -0.22984113, 0.29600468, 0.00000000, 0.00000000, 0.00000000, 0.00000000
1, 0.4500, 45, 0.57913488, -0.77639788, 0.35585415, 6.46697140, 84.22949982, -156.36305237, 0.00000000, 0.00000000, 0.00000000, 110.23693848, -11.26576233, 71.94989014, 1.00000000, 0.00000000, 0.00000000, 0.00000000, -0.78188694, -0.14190122, -0.01587608, 0.00000000, 0.00000000, 0.00000000, 0.00000000
1, 0.4600, 46, 0.64549893, -0.93363452, 0.61664099, 8.96932697, 83.72081757, -141.70040894, 0.00000000, 0.00000000, 0.00000000, 110.08492279, -10.22395992, 73.24677277, 1.00000000, 0.00000000, 0.00000000, 0.00000000, -0.82947636, 0.01077388, -0.27832836, 0.00000000, 0.00000000, 0.00000000, 0.00000000
1, 0.4700, 47, 0.58881432, -1.04138887, 0.45878035, 4.70752144, 49.17791748, -116.78670502, 0.00000000, 0.00000000, 0.00000000, 109.98296356, -9.29541302, 74.12178802, 1.00000000, 0.00000000, 0.00000000, 0.00000000, -0.75626606, 0.11513874, -0.12114166, 0.00000000, 0.00000000, 0.00000000, 0.00000000
1, 0.4800, 48, 0.62104154, -0.93293327, 0.49027079, -10.95478630, -3.98655748, -94.70037079, 0.00000000, 0.00000000, 0.00000000, 109.88797760, -8.20769882, 74.17955017, 1.00000000, 0.00000000, 0.00000000, 0.00000000, -0.77201283, 0.00340778, -0.15387985, 0.00000000, 0.00000000, 0.00000000, 0.00000000
1, 0.4900, 49, 0.49722293, -0.87300968, 0.67485547, -9.35727119, -50.22996902, -76.45351410, 0.00000000, 0.00000000, 0.00000000, 109.82286072, -7.31805086, 73.96486664, 1.00000000, 0.00000000, 0.00000000, 0.00000000, -0.63033766, -0.05921446, -0.33837399, 0.00000000, 0.00000000, 0.00000000, 0.00000000
1, 0.5000, 50, 0.44231671, -0.82632208, 0.63267207, -15.20324135, -86.73452759, -62.35802078, 0.00000000, 0.00000000, 0.00000000, 109.74342346, -6.43779469, 73.35536194, 1.00000000, 0.00000000, 0.00000000, 0.00000000, -0.56017458, -0.10817547, -0.29680735, 0.00000000, 0.00000000, 0.00000000, 0.00000000
1, 0.5100, 51, 0.27489659, -0.94237924, 0.56991303, -6.32444143, -100.93416595, -54.19950867, 0.00000000, 0.00000000, 0.00000000, 109.76082611, -5.58663177, 72.58427429, 1.00000000, 0.00000000, 0.00000000, 0.00000000, -0.37771761, 0.00620192, -0.23378383, 0.00000000, 0.00000000, 0.00000000, 0.00000000
1, 0.5200, 52, 0.14486714, -1.01175976, 0.42463621, -12.32269192, -108.84311676, -48.12963104, 0.00000000, 0.00000000, 0.00000000, 109.71557617, -4.76592541, 71.71892548, 1.00000000, 0.00000000, 0.00000000, 0.00000000, -0.23328964, 0.07421826, -0.08821164, 0.00000000, 0.00000000, 0.00000000, 0.00000000
1, 0.5300, 53, 0.03155126, -0.99877399, 0.43876371, -7.65007019, -96.89321899, -41.08127594, 0.00000000, 0.00000000, 0.00000000, 109.71467590, -4.05062199, 70.94045258, 1.00000000, 0.00000000, 0.00000000, 0.00000000, -0.10666810, 0.05999099, -0.10256098, 0.00000000, 0.00000000, 0.00000000, 0.00000000
1, 0.5400, 54, -0.15617798, -0.94874138, 0.36768773, -8.20480537, -81.88066864, -36.03273392, 0.00000000, 0.00000000, 0.00000000, 109.67512512, -3.43539500, 70.28962708, 1.00000000, 0.00000000, 0.00000000, 0.00000000, 0.09229769, 0.00915325, -0.03140728, 0.00000000, 0.00000000, 0.00000000, 0.00000000
1, 0.5500, 55, -0.09475587, -0.87748659, 0.37926143, -7.93579435, -74.35079193, -36.94470215, 0.00000000, 0.00000000, 0.00000000, 109.62745667, -2.83740640, 69.71279907, 1.00000000, 0.00000000, 0.00000000, 0.00000000, 0.04136032, -0.06295031, -0.04352493, 0.00000000, 0.00000000, 0.00000000, 0.00000000
1, 0.5600, 56, -0.03847502, -0.89070147, 0.42979059, 0.10699073, -52.17282867, -40.10651779, 0.00000000, 0.00000000, 0.00000000, 109.64460754, -2.28439403, 69.35575104, 1.00000000, 0.00000000, 0.00000000, 0.00000000, -0.00491725, -0.05029336, -0.09417366, 0.00000000, 0.00000000, 0.00000000, 0.00000000
1, 0.5700, 57, -0.02431160, -0.91318923, 0.40742493, 3.12286830, -36.66848373, -42.86550522, 0.00000000, 0.00000000, 0.00000000, 109.68299866, -1.75735092, 69.15457153, 1.00000000, 0.00000000, 0.00000000, 0.00000000, -0.00981437, -0.02790773, -0.07102444, 0.00000000, 0.00000000, 0.00000000, 0.00000000
1, 0.5800, 58, 0.03366354, -0.91631448, 0.40935236, 5.95402861, -32.16625214, -46.76688766, 0.00000000, 0.00000000, 0.00000000, 109.77278900, -1.15329432, 68.94534302, 1.00000000, 0.00000000, 0.00000000, 0.00000000, -0.05813012, -0.02469136, -0.07186151, 0.00000000, 0.00000000, 0.00000000, 0.00000000
1, 0.5900, 59, 0.20930277, -0.96282595, 0.32780823, 1.06507039, -33.05313492, -49.28988647, 0.00000000, 0.00000000, 0.00000000, 109.78562927, -0.57762021, 68.80110168, 1.00000000, 0.00000000, 0.00000000, 0.00000000, -0.22316889, 0.02193041, 0.01059302, 0.00000000, 0.00000000, 0.00000000, 0.00000000
1, 0.6000, 60, 0.28730541, -1.08984780, 0.25345954, 1.53633428, -25.01391792, -50.00583267, 0.00000000, 0.00000000, 0.00000000, 109.80140686, -0.02240473, 68.73506927, 1.00000000, 0.00000000, 0.00000000, 0.00000000, -0.29127172, 0.14896020, 0.08522543, 0.00000000, 0.00000000, 0.00000000, 0.00000000
1, 0.6100, 61, 0.33553594, -1.15329564, 0.21680714, -1.10503888, -23.78314400, -48.80404663, 0.00000000, 0.00000000, 0.00000000, 109.79005432, 0.51735306, 68.67660522, 1.00000000, 0.00000000, 0.00000000, 0.00000000, -0.33004910, 0.21241397, 0.12187362, 0.00000000, 0.00000000, 0.00000000, 0.00000000
1, 0.6200, 62, 0.33173561, -1.13584125, 0.26609719, -1.71281290, -36.57787704, -43.75020218, 0.00000000, 0.00000000, 0.00000000, 109.77008057, 1.05281019, 68.48040771, 1.00000000, 0.00000000, 0.00000000, 0.00000000, -0.31687668, 0.19491617, 0.07218163, 0.00000000, 0.00000000, 0.00000000, 0.00000000
1, 0.6300, 63, 0.11094474, -1.10416913, 0.22187726, -1.19653296, -50.76304626, -39.42647171, 0.00000000, 0.00000000, 0.00000000, 109.68147278, 1.60430038, 68.11399841, 1.00000000, 0.00000000, 0.00000000, 0.00000000, -0.08666585, 0.16326964, 0.11592582, 0.00000000, 0.00000000, 0.00000000, 0.00000000
1, 0.6400, 64, 0.15393491, -0.95164502, 0.31501228, -7.05290318, -69.93508148, -40.42078018, 0.00000000, 0.00000000, 0.00000000, 109.59345245, 2.21993375, 67.59076691, 1.00000000, 0.00000000, 0.00000000, 0.00000000, -0.11933206, 0.01026176, 0.02053327, 0.00000000, 0.00000000, 0.00000000, 0.00000000
1, 0.6500, 65, 0.06883364, -1.02432084, 0.41483355, 1.61027586, -72.30033875, -42.07712173, 0.00000000, 0.00000000, 0.00000000, 109.58556366, 2.85881495, 67.05022430, 1.00000000, 0.00000000, 0.00000000, 0.00000000, -0.02317005, 0.08321770, -0.07982613, 0.00000000, 0.00000000, 0.00000000, 0.00000000
1, 0.6600, 66, -0.00811328, -1.05539131, 0.34849903, -0.20680591, -71.25875092, -45.76992798, 0.00000000, 0.00000000, 0.00000000, 109.55467224, 3.52875018, 66.53128052, 1.00000000, 0.00000000, 0.00000000, 0.00000000, 0.06526048, 0.11466983, -0.01418400, 0.00000000, 0.00000000, 0.00000000, 0.00000000
1, 0.6700, 67, -0.07323945, -1.09031546, 0.38619906, -0.57261437, -70.98262787, -49.66450119, 0.00000000, 0.00000000, 0.00000000, 109.51483154, 4.23417664, 66.02725983, 1.00000000, 0.00000000, 0.00000000, 0.00000000, 0.14237215, 0.15012723, -0.05265038, 0.00000000, 0.00000000, 0.00000000, 0.00000000
1, 0.6800, 68, -0.06354935, -1.09615374, 0.51818979, -3.51145482, -72.59093475, -54.14477539, 0.00000000, 0.00000000, 0.00000000, 109.47637939, 4.95666456, 65.56874847, 1.00000000, 0.00000000, 0.00000000, 0.00000000, 0.14542082, 0.15655546, -0.18586493, 0.00000000, 0.00000000, 0.00000000, 0.00000000
1, 0.6900, 69, 0.03358405, -1.05752492, 0.54479796, -6.61331129, -67.88950348, -56.30877304, 0.00000000, 0.00000000, 0.00000000, 109.36795044, 5.71348715, 65.11378479, 1.00000000, 0.00000000, 0.00000000, 0.00000000, 0.06101972, 0.11860867, -0.21393174, 0.00000000, 0.00000000, 0.00000000, 0.00000000
1, 0.7000, 70, -0.08191889, -1.09416711, 0.52435327, -13.66113091, -72.11631012, -61.71457672, 0.00000000, 0.00000000, 0.00000000, 109.18016815, 6.53414679, 64.63410950, 1.00000000, 0.00000000, 0.00000000, 0.00000000, 0.19025764, 0.15569249, -0.19646510, 0.00000000, 0.00000000, 0.00000000, 0.00000000
1, 0.7100, 71, -0.07759953, -1.17449272, 0.52554095, -19.15250778, -70.98008728, -70.17356110, 0.00000000, 0.00000000, 0.00000000, 108.93472290, 7.42923069, 64.18907166, 1.00000000, 0.00000000, 0.00000000, 0.00000000, 0.20101778, 0.23637617, -0.20199105, 0.00000000, 0.00000000, 0.00000000, 0.00000000
1, 0.7200, 72, -0.29209584, -1.25119054, 0.47645727, -30.84220505, -70.47555542, -81.45148468, 0.00000000, 0.00000000, 0.00000000, 108.56991577, 8.42714119, 63.77977371, 1.00000000, 0.00000000, 0.00000000, 0.00000000, 0.43201256, 0.31340009, -0.15874046, 0.00000000, 0.00000000, 0.00000000, 0.00000000
1, 0.7300, 73, -0.24959433, -1.18484116, 0.54406691, -35.63349152, -67.85422516, -92.43890381, 0.00000000, 0.00000000, 0.00000000, 108.17583466, 9.46288300, 63.49696350, 1.00000000, 0.00000000, 0.00000000, 0.00000000, 0.40756166, 0.24746808, -0.23366547, 0.00000000, 0.00000000, 0.00000000, 0.00000000
1, 0.7400, 74, -0.22069991, -1.20915723, 0.55023903, -41.14222336, -61.14570999, -102.54688263, 0.00000000, 0.00000000, 0.00000000, 107.71761322, 10.62698460, 63.22715759, 1.00000000, 0.00000000, 0.00000000, 0.00000000, 0.39753085, 0.27253670, -0.24785689, 0.00000000, 0.00000000, 0.00000000, 0.00000000
1, 0.7500, 75, -0.14290158, -1.31888115, 0.46131659, -47.19314957, -56.91996384, -113.67496490, 0.00000000, 0.00000000, 0.00000000, 107.20545959, 11.88213825, 63.02140045, 1.00000000, 0.00000000, 0.00000000, 0.00000000, 0.34060520, 0.38352311, -0.16810375, 0.00000000, 0.00000000, 0.00000000, 0.00000000
1, 0.7600, 76, -0.07811930, -1.44988060, 0.38769457, -52.40267563, -63.67752457, -123.33290863, 0.00000000, 0.00000000, 0.00000000, 106.62558746, 13.24736977, 62.76482773, 1.00000000, 0.00000000, 0.00000000, 0.00000000, 0.29840744, 0.51632845, -0.10502795, 0.00000000, 0.00000000, 0.00000000, 0.00000000
1, 0.7700, 77, -0.20837447, -1.51094580, 0.43185359, -56.19833374, -73.28708649, -131.11688232, 0.00000000, 0.00000000, 0.00000000, 105.97991180, 14.71148491, 62.41937256, 1.00000000, 0.00000000, 0.00000000, 0.00000000, 0.45293954, 0.57999557, -0.16082197, 0.00000000, 0.00000000, 0.00000000, 0.00000000
1, 0.7800, 78, -0.21792123, -1.47334671, 0.42549285, -66.36527252, -78.53929901, -134.90415955, 0.00000000, 0.00000000, 0.00000000, 105.20535278, 16.18075562, 62.06010437, 1.00000000, 0.00000000, 0.00000000, 0.00000000, 0.48753688, 0.54546344, -0.16805410, 0.00000000, 0.00000000, 0.00000000, 0.00000000
1, 0.7900, 79, -0.39689714, -1.50646472, 0.38978732, -73.86987305, -82.88305664, -142.10816956, 0.00000000, 0.00000000, 0.00000000, 104.33253479, 17.76616287, 61.60102081, 1.00000000, 0.00000000, 0.00000000, 0.00000000, 0.69197810, 0.58218133, -0.14781715, 0.00000000, 0.00000000, 0.00000000, 0.00000000
1, 0.8000, 80, -0.61433941, -1.50283778, 0.46970811, -83.60379791, -85.31351471, -154.47708130, 0.00000000, 0.00000000, 0.00000000, 103.34195709, 19.47021866, 61.11690903, 1.00000000, 0.00000000, 0.00000000, 0.00000000, 0.93696898, 0.58338439, -0.24515577, 0.00000000, 0.00000000, 0.00000000, 0.00000000
1, 0.8100, 81, -0.72027147, -1.47315204, 0.49353403, -94.98618317, -84.86582184, -163.44953918, 0.00000000, 0.00000000, 0.00000000, 102.21922302, 21.25204849, 60.61993790, 1.00000000, 0.00000000, 0.00000000, 0.00000000, 1.07175541, 0.55973309, -0.28854203, 0.00000000, 0.00000000, 0.00000000, 0.00000000
1, 0.8200, 82, -0.77741295, -1.44808626, 0.55602473, -98.76285553, -87.02966309, -169.99101257, 0.00000000, 0.00000000, 0.00000000, 101.02362061, 23.09237289, 60.06915665, 1.00000000, 0.00000000, 0.00000000, 0.00000000, 1.15843117, 0.54206634, -0.37206218, 0.00000000, 0.00000000, 0.00000000, 0.00000000
1, 0.8300, 83, -0.75033236, -1.48790836, 0.54693782, -103.07000732, -91.70543671, -174.12321472, 0.00000000, 0.00000000, 0.00000000, 99.74098206, 24.92285538, 59.48977280, 1.00000000, 0.00000000, 0.00000000, 0.00000000, 1.16107714, 0.59071416, -0.38501674, 0.00000000, 0.00000000, 0.00000000, 0.00000000
1, 0.8400, 84, -0.80733085, -1.56928658, 0.52559024, -103.67297363, -112.28898621, -174.25350952, 0.00000000, 0.00000000, 0.00000000, 98.29804230, 26.81946945, 58.56082535, 1.00000000, 0.00000000, 0.00000000, 0.00000000, 1.24736619, 0.68207991, -0.38736570, 0.00000000, 0.00000000, 0.00000000, 0.00000000
1, 0.8500, 85, -0.69801885, -1.60297775, 0.54543668, -105.21920776, -137.27841187, -169.97940063, 0.00000000, 0.00000000, 0.00000000, 96.64496613, 28.68294907, 57.27273560, 1.00000000, 0.00000000, 0.00000000, 0.00000000, 1.16729677, 0.72713816, -0.43341649, 0.00000000, 0.00000000, 0.00000000, 0.00000000
1, 0.8600, 86, -0.49776247, -1.72981143, 0.53731757, -108.16417694, -171.49034119, -165.51695251, 0.00000000, 0.00000000, 0.00000000, 94.68608093, 30.49911118, 55.49840546, 1.00000000, 0.00000000, 0.00000000, 0.00000000, 0.99499786, 0.86620742, -0.45488161, 0.00000000, 0.00000000, 0.00000000, 0.00000000
1, 0.8700, 87, -0.50343663, -1.94844472, 0.67952013, -118.27912903, -201.74345398, -169.61712646, 0.00000000, 0.00000000, 0.00000000, 92.33632660, 32.31560135, 53.26104355, 1.00000000, 0.00000000, 0.00000000, 0.00000000, 1.02791190, 1.09849668, -0.63119757, 0.00000000, 0.00000000, 0.00000000, 0.00000000
1, 0.8800, 88, -0.72881126, -2.09765840, 1.02195263, -123.41201019, -201.82495117, -172.04013062, 0.00000000, 0.00000000, 0.00000000, 89.81681061, 34.05646515, 50.92125702, 1.00000000, 0.00000000, 0.00000000, 0.00000000, 1.27954304, 1.26315522, -1.01086152, 0.00000000, 0.00000000, 0.00000000, 0.00000000
1, 0.8900, 89, -0.83302724, -2.12940526, 1.20473504, -141.19073486, -156.22628784, -163.49781799, 0.00000000, 0.00000000, 0.00000000, 87.28964233, 35.65316391, 48.96873474, 1.00000000, 0.00000000, 0.00000000, 0.00000000, 1.40758204, 1.31142473, -1.22992229, 0.00000000, 0.00000000, 0.00000000, 0.00000000
1, 0.9000, 90, -0.87095749, -2.07778645, 1.08120978, -160.32858276, -99.03557587, -150.95242310, 0.00000000, 0.00000000, 0.00000000, 84.88398743, 37.09315109, 47.61421585, 1.00000000, 0.00000000, 0.00000000, 0.00000000, 1.46657538, 1.27678382, -1.14035559, 0.00000000, 0.00000000, 0.00000000, 0.00000000
1, 0.9100, 91, -0.46750388, -1.77487898, 0.94148326, -175.12091064, -41.33665085, -159.17317200, 0.00000000, 0.00000000, 0.00000000, 82.68037415, 38.63224792, 46.87498093, 1.00000000, 0.00000000, 0.00000000, 0.00000000, 1.08365822, 0.99241400, -1.03078330, 0.00000000, 0.00000000, 0.00000000, 0.00000000
1, 0.9200, 92, 0.12189287, -1.33728671, 0.79842520, -156.71405029, -5.55925179, -171.06860352, 0.00000000, 0.00000000, 0.00000000, 80.86479950, 40.31689072, 46.48467636, 1.00000000, 0.00000000, 0.00000000, 0.00000000, 0.51668471, 0.57624018, -0.91207302, 0.00000000, 0.00000000, 0.00000000, 0.00000000
1, 0.9300, 93, 0.76629883, -0.91751301, 1.03334093, -55.55236053, -36.04393387, -167.64392090, 0.00000000, 0.00000000, 0.00000000, 79.83061981, 41.92100525, 45.70420074, 1.00000000, 0.00000000, 0.00000000, 0.00000000, -0.10604727, 0.17764255, -1.16213310, 0.00000000, 0.00000000, 0.00000000, 0.00000000
1, 0.9400, 94, 0.48191410, -1.09945750, 1.21159184, 8.75374508, -8.65492058, -142.50683594, 0.00000000, 0.00000000, 0.00000000, 79.60616302, 43.30747986, 45.24179840, 1.00000000, 0.00000000, 0.00000000, 0.00000000, 0.19786137, 0.37808800, -1.34383583, 0.00000000, 0.00000000, 0.00000000, 0.00000000
1, 0.9500, 95, -0.74119455, -1.35339129, 0.90240371, 11.51864433, 20.37751770, -80.42639160, 0.00000000, 0.00000000, 0.00000000, 79.77606964, 44.13514709, 45.32072449, 1.00000000, 0.00000000, 0.00000000, 0.00000000, 1.43440402, 0.64416105, -1.03062296, 0.00000000, 0.00000000, 0.00000000, 0.00000000
1, 0.9600, 96, -0.85661936, -0.86865205, 0.23578966, -86.47423553, -17.98345947, -39.99115753, 0.00000000, 0.00000000, 0.00000000, 78.66616058, 44.49423599, 44.97012329, 1.00000000, 0.00000000, 0.00000000, 0.00000000, 1.55598950, 0.16666134, -0.37020847, 0.00000000, 0.00000000, 0.00000000, 0.00000000
1, 0.9700, 97, -0.15218642, -0.51497138, 0.06564177, -70.66439056, 1.08475375, -28.53291321, 0.00000000, 0.00000000, 0.00000000, 77.91281128, 44.77645874, 44.90324783, 1.00000000, 0.00000000, 0.00000000, 0.00000000, 0.85519463, -0.18088411, -0.21246918, 0.00000000, 0.00000000, 0.00000000, 0.00000000
1, 0.9800, 98, 0.25322303, -0.52242386, 0.15362868, -14.70116234, 68.26865387, -9.42174721, 0.00000000, 0.00000000, 0.00000000, 78.59339142, 44.96466827, 46.06025696, 1.00000000, 0.00000000, 0.00000000, 0.00000000, 0.45293623, -0.17066656, -0.29838687, 0.00000000, 0.00000000, 0.00000000, 0.00000000
1, 0.9900, 99, 0.27367997, -0.42332786, 0.28048244, 20.52956009, 83.00663757, 21.64427948, 0.00000000, 0.00000000, 0.00000000, 79.65317535, 44.90909576, 47.26939011, 1.00000000, 0.00000000, 0.00000000, 0.00000000, 0.43293291, -0.27178875, -0.41275576, 0.00000000, 0.00000000, 0.00000000, 0.00000000
1, 1.0000, 100, 0.14932013, -0.29787704, 0.28419581, 43.34627533, 80.98628235, 61.29176331, 0.00000000, 0.00000000, 0.00000000, 80.97831726, 44.44131470, 48.53683853, 1.00000000, 0.00000000, 0.00000000, 0.00000000, 0.55345464, -0.40370393, -0.40193945, 0.00000000, 0.00000000, 0.00000000, 0.00000000
1, 1.0100, 101, 0.16743582, -0.23257513, 0.22493829, 52.97189331, 69.70889282, 101.11405945, 0.00000000, 0.00000000, 0.00000000, 82.31601715, 43.54221725, 49.69927979, 1.00000000, 0.00000000, 0.00000000, 0.00000000, 0.52612698, -0.48046416, -0.32741815, 0.00000000, 0.00000000, 0.00000000, 0.00000000
1, 1.0200, 102, 0.16969557, -0.24898733, 0.13334571, 53.61419678, 56.26750183, 142.64820862, 0.00000000, 0.00000000, 0.00000000, 83.53388214, 42.19591522, 50.70039368, 1.00000000, 0.00000000, 0.00000000, 0.00000000, 0.50891387, -0.48013318, -0.22170398, 0.00000000, 0.00000000, 0.00000000, 0.00000000
1, 1.0300, 103, 0.04911288, -0.27667373, 0.05264237, 54.76945496, 45.54422379, 189.75537109, 0.00000000, 0.00000000, 0.00000000, 84.66778564, 40.30720901, 51.63750076, 1.00000000, 0.00000000, 0.00000000, 0.00000000, 0.60787141, -0.47335783, -0.12824132, 0.00000000, 0.00000000, 0.00000000, 0.00000000
1, 1.0400, 104, -0.05431370, -0.29096469, -0.05900835, 62.62158966, 38.32128525, 229.52467346, 0.00000000, 0.00000000, 0.00000000, 85.76152802, 38.05195618, 52.37702942, 1.00000000, 0.00000000, 0.00000000, 0.00000000, 0.68253851, -0.48441833, -0.00401701, 0.00000000, 0.00000000, 0.00000000, 0.00000000
1, 1.0500, 105, -0.19496909, -0.23630601, -0.04568142, 69.04180145, 39.89017487, 258.72317505, 0.00000000, 0.00000000, 0.00000000, 86.87377167, 35.49567795, 53.08137894, 1.00000000, 0.00000000, 0.00000000, 0.00000000, 0.78942442, -0.56617278, -0.00403256, 0.00000000, 0.00000000, 0.00000000, 0.00000000
1, 1.0600, 106, -0.31926399, -0.18771097, 0.12182525, 74.99586487, 47.75845718, 289.80404663, 0.00000000, 0.00000000, 0.00000000, 88.03331757, 32.62166214, 53.81232452, 1.00000000, 0.00000000, 0.00000000, 0.00000000, 0.87441409, -0.64317596, -0.15662149, 0.00000000, 0.00000000, 0.00000000, 0.00000000
1, 1.0700, 107, -0.30077022, -0.26674813, 0.12864882, 78.45198059, 47.76125336, 315.62557983, 0.00000000, 0.00000000, 0.00000000, 89.15293121, 29.47830772, 54.46020508, 1.00000000, 0.00000000, 0.00000000, 0.00000000, 0.81084263, -0.59302366, -0.14755833, 0.00000000, 0.00000000, 0.00000000, 0.00000000
1, 1.0800, 108, -0.20469113, -0.43397221, 0.11635600, 88.20401001, 35.89286041, 326.14575195, 0.00000000, 0.00000000, 0.00000000, 90.25334167, 26.16524506, 54.96509552, 1.00000000, 0.00000000, 0.00000000, 0.00000000, 0.66532415, -0.45345289, -0.11894853, 0.00000000, 0.00000000, 0.00000000, 0.00000000
1, 1.0900, 109, -0.10702407, -0.63334191, 0.09346112, 106.94749451, 52.45438385, 331.22134399, 0.00000000, 0.00000000, 0.00000000, 91.53792572, 22.84510422, 55.48575592, 1.00000000, 0.00000000, 0.00000000, 0.00000000, 0.51524329, -0.27923015, -0.07700984, 0.00000000, 0.00000000, 0.00000000, 0.00000000
1, 1.1000, 110, 0.02415594, -0.81247360, 0.04273822, 130.21942139, 79.63837433, 338.71163940, 0.00000000, 0.00000000, 0.00000000, 93.09461212, 19.42846680, 56.19259644, 1.00000000, 0.00000000, 0.00000000, 0.00000000, 0.32955602, -0.12181225, -0.00191856, 0.00000000, 0.00000000, 0.00000000, 0.00000000
1, 1.1100, 111, 0.10226914, -0.89321595, 0.20316111, 145.39817810, 90.38933563, 347.55966187, 0.00000000, 0.00000000, 0.00000000, 94.76054382, 15.89930916, 56.88947296, 1.00000000, 0.00000000, 0.00000000, 0.00000000, 0.19391081, -0.05924369, -0.13432889, 0.00000000, 0.00000000, 0.00000000, 0.00000000
1, 1.1200, 112, 0.17819883, -0.98859841, 0.24506436, 157.43510437, 80.58914185, 361.54110718, 0.00000000, 0.00000000, 0.00000000, 96.44866943, 12.22298431, 57.35214996, 1.00000000, 0.00000000, 0.00000000, 0.00000000, 0.05702794, 0.02187206, -0.14646339, 0.00000000, 0.00000000, 0.00000000, 0.00000000
1, 1.1300, 113, 0.45374483, -1.15439200, 0.11469691, 164.59486389, 72.73636627, 365.45565796, 0.00000000, 0.00000000, 0.00000000, 98.13691711, 8.52383232, 57.58917618, 1.00000000, 0.00000000, 0.00000000, 0.00000000, -0.28176114, 0.17791988, 0.01388112, 0.00000000, 0.00000000, 0.00000000, 0.00000000
1, 1.1400, 114, 0.71013850, -1.38642442, 0.08885676, 176.77870178, 77.58554077, 365.95867920, 0.00000000, 0.00000000, 0.00000000, 99.92767334, 4.78807068, 57.78284073, 1.00000000, 0.00000000, 0.00000000, 0.00000000, -0.60229260, 0.40537962, 0.07086407, 0.00000000, 0.00000000, 0.00000000, 0.00000000
1, 1.1500, 115, 0.77865279, -1.58226693, 0.24485125, 192.85066223, 64.90016937, 372.50711060, 0.00000000, 0.00000000, 0.00000000, 101.85454559, 1.00831127, 57.71663284, 1.00000000, 0.00000000, 0.00000000, 0.00000000, -0.73628533, 0.60215461, -0.05209636, 0.00000000, 0.00000000, 0.00000000, 0.00000000
1, 1.1600, 116, 0.58584189, -1.69538283, 0.26443103, 187.83432007, 56.81205750, 374.32806396, 0.00000000, 0.00000000, 0.00000000, 103.73764038, -2.76759744, 57.44118118, 1.00000000, 0.00000000, 0.00000000, 0.00000000, -0.60951632, 0.72164309, -0.03893350, 0.00000000, 0.00000000, 0.00000000, 0.00000000
1, 1.1700, 117, 0.54739273, -1.78646624, 0.06883751, 181.05267334, 58.85989380, 358.72094727, 0.00000000, 0.00000000, 0.00000000, 105.57550812, -6.38694143, 57.10237503, 1.00000000, 0.00000000, 0.00000000, 0.00000000, -0.63537502, 0.82396352, 0.18701629, 0.00000000, 0.00000000, 0.00000000, 0.00000000
1, 1.1800, 118, 0.79063463, -1.94767392, 0.04050025, 179.28524780, 61.61779404, 330.02401733, 0.00000000, 0.00000000, 0.00000000, 107.40898895, -9.70849228, 56.72930527, 1.00000000, 0.00000000, 0.00000000, 0.00000000, -0.93829608, 1.00063109, 0.24405508, 0.00000000, 0.00000000, 0.00000000, 0.00000000
1, 1.1900, 119, 0.94125891, -2.00339413, 0.02835066, 174.57812500, 81.53016663, 300.65527344, 0.00000000, 0.00000000, 0.00000000, 109.18760681, -12.81959057, 56.55627441, 1.00000000, 0.00000000, 0.00000000, 0.00000000, -1.14344239, 1.07494390, 0.28278142, 0.00000000, 0.00000000, 0.00000000, 0.00000000
1, 1.2000, 120, 0.88017821, -1.84205139, 0.03143040, 175.00280762, 105.22824097, 274.52328491, 0.00000000, 0.00000000, 0.00000000, 110.92445374, -15.75986958, 56.60544968, 1.00000000, 0.00000000, 0.00000000, 0.00000000, -1.13333845, 0.93466747, 0.30367082, 0.00000000, 0.00000000, 0.00000000, 0.00000000
1, 1.2100, 121, 0.85067326, -1.72231388, -0.04671637, 179.23924255, 128.33761597, 250.75253296, 0.00000000, 0.00000000, 0.00000000, 112.63522339, -18.56511879, 56.87926483, 1.00000000, 0.00000000, 0.00000000, 0.00000000, -1.15176797, 0.83827496, 0.40388566, 0.00000000, 0.00000000, 0.00000000, 0.00000000
1, 1.2200, 122, 0.85780126, -1.62738860, -0.10535409, 179.01333618, 159.20169067, 223.34799194, 0.00000000, 0.00000000, 0.00000000, 114.21617889, -21.24851036, 57.48874664, 1.00000000, 0.00000000, 0.00000000, 0.00000000, -1.20386338, 0.76797956, 0.48143390, 0.00000000, 0.00000000, 0.00000000, 0.00000000
1, 1.2300, 123, 0.67764926, -1.74651515, -0.12474106, 165.09150696, 198.66999817, 195.91503906, 0.00000000, 0.00000000, 0.00000000, 115.43788910, -23.83533669, 58.51865005, 1.00000000, 0.00000000, 0.00000000, 0.00000000, -1.06642795, 0.91175807, 0.51441652, 0.00000000, 0.00000000, 0.00000000, 0.00000000
1, 1.2400, 124, 0.70959544, -2.13185692, -0.05445169, 139.48912048, 226.98600769, 168.51109314, 0.00000000, 0.00000000, 0.00000000, 116.21875763, -26.34217644, 59.96329117, 1.00000000, 0.00000000, 0.00000000, 0.00000000, -1.13873529, 1.31983638, 0.44980446, 0.00000000, 0.00000000, 0.00000000, 0.00000000
1, 1.2500, 125, 1.09760308, -2.42844200, 0.08234222, 95.95120239, 244.89190674, 135.69172668, 0.00000000, 0.00000000, 0.00000000, 116.34798431, -28.64503479, 61.75916672, 1.00000000, 0.00000000, 0.00000000, 0.00000000, -1.56394827, 1.63590944, 0.31045663, 0.00000000, 0.00000000, 0.00000000, 0.00000000
1, 1.2600, 126, 1.79141366, -1.92710114, 0.16030978, 38.37264252, 238.57420349, 108.37582397, 0.00000000, 0.00000000, 0.00000000, 115.78256226, -30.66795921, 63.67607880, 1.00000000, 0.00000000, 0.00000000, 0.00000000, -2.29044580, 1.14848113, 0.21997595, 0.00000000, 0.00000000, 0.00000000, 0.00000000
1, 1.2700, 127, 2.39835191, -1.35430861, 0.09958188, 17.07526016, 188.01252747, 70.18972778, 0.00000000, 0.00000000, 0.00000000, 115.10073090, -32.10952377, 65.31182098, 1.00000000, 0.00000000, 0.00000000, 0.00000000, -2.92278767, 0.58481598, 0.26483124, 0.00000000, 0.00000000, 0.00000000, 0.00000000
1, 1.2800, 128, 2.52855062, -1.41091526, 0.10491482, 17.93234253, 105.03925323, 7.97149563, 0.00000000, 0.00000000, 0.00000000, 114.69234467, -32.60378265, 66.37490845, 1.00000000, 0.00000000, 0.00000000, 0.00000000, -3.06584859, 0.64551389, 0.24929738, 0.00000000, 0.00000000, 0.00000000, 0.00000000
1, 1.2900, 129, 2.26332045, -1.39697635, 0.18280163, -13.10999584, 10.46978569, -62.46260452, 0.00000000, 0.00000000, 0.00000000, 114.33649445, -32.07901382, 66.79448700, 1.00000000, 0.00000000, 0.00000000, 0.00000000, -2.79794073, 0.62788552, 0.16744059, 0.00000000, 0.00000000, 0.00000000, 0.00000000
1, 1.3000, 130, 1.87937987, -1.60983396, 0.42584866, -27.81739998, -29.32077599, -112.18681335, 0.00000000, 0.00000000, 0.00000000, 113.94086456, -30.93538857, 67.01865387, 1.00000000, 0.00000000, 0.00000000, 0.00000000, -2.40059638, 0.83077061, -0.07748790, 0.00000000, 0.00000000, 0.00000000, 0.00000000
1, 1.3100, 131, 1.81835985, -1.34419966, 0.84834152, -48.58531189, -29.20146370, -162.03128052, 0.00000000, 0.00000000, 0.00000000, 113.23399353, -29.33362961, 67.45942688, 1.00000000, 0.00000000, 0.00000000, 0.00000000, -2.31769395, 0.54986769, -0.50246894, 0.00000000, 0.00000000, 0.00000000, 0.00000000
1, 1.3200, 132, 1.21473956, -1.13991809, 1.30887556, -34.54980850, -35.58191299, -196.78663635, 0.00000000, 0.00000000, 0.00000000, 112.65192413, -27.38234138, 67.95643616, 1.00000000, 0.00000000, 0.00000000, 0.00000000, -1.68629801, 0.32708296, -0.96706849, 0.00000000, 0.00000000, 0.00000000, 0.00000000
1, 1.3300, 133, -0.68271410, -1.57289958, 0.69648123, -25.93171883, -89.38694763, -182.58215332, 0.00000000, 0.00000000, 0.00000000, 112.44880676, -25.36431885, 67.83391571, 1.00000000, 0.00000000, 0.00000000, 0.00000000, 0.24271964, 0.74362725, -0.35207504, 0.00000000, 0.00000000, 0.00000000, 0.00000000
1, 1.3400, 134, -1.58821690, -1.36012185, 0.52125400, -61.86840439, -129.85998535, -132.46688843, 0.00000000, 0.00000000, 0.00000000, 112.14773560, -23.64661980, 67.06532288, 1.00000000, 0.00000000, 0.00000000, 0.00000000, 1.17744184, 0.51612824, -0.17647681, 0.00000000, 0.00000000, 0.00000000, 0.00000000
1, 1.3500, 135, -0.93100816, -1.26464427, 0.56613690, -42.18985748, -113.72692871, -102.15650940, 0.00000000, 0.00000000, 0.00000000, 112.00993347, -22.27202797, 66.33844757, 1.00000000, 0.00000000, 0.00000000, 0.00000000, 0.54379213, 0.41039586, -0.21932414, 0.00000000, 0.00000000, 0.00000000, 0.00000000
1, 1.3600, 136, -0.43583754, -1.40503716, 0.28719768, -47.35315704, -70.38135529, -127.35855865, 0.00000000, 0.00000000, 0.00000000, 111.60924530, -20.82774544, 66.14392853, 1.00000000, 0.00000000, 0.00000000, 0.00000000, 0.07140611, 0.54016799, 0.05796533, 0.00000000, 0.00000000, 0.00000000, 0.00000000
1, 1.3700, 137, -0.34184584, -1.76795447, -0.10281806, -43.92367935, -7.54722929, -163.93296814, 0.00000000, 0.00000000, 0.00000000, 110.98023987, -19.27239227, 66.70283508, 1.00000000, 0.00000000, 0.00000000, 0.00000000, 0.00190870, 0.89147079, 0.44362414, 0.00000000, 0.00000000, 0.00000000, 0.00000000
1, 1.3800, 138, -0.05673894, -1.95543385, -0.19318756, -41.61215210, 32.85872650, -194.24839783, 0.00000000, 0.00000000, 0.00000000, 110.20447540, -17.55381584, 67.73718262, 1.00000000, 0.00000000, 0.00000000, 0.00000000, -0.25575083, 1.06584275, 0.52619237, 0.00000000, 0.00000000, 0.00000000, 0.00000000
1, 1.3900, 139, 0.18234371, -1.57350576, -0.42965665, -65.78282928, 47.36949158, -190.59661865, 0.00000000, 0.00000000, 0.00000000, 109.21927643, -15.91934109, 68.87432098, 1.00000000, 0.00000000, 0.00000000, 0.00000000, -0.46670642, 0.67030752, 0.75103951, 0.00000000, 0.00000000, 0.00000000, 0.00000000
1, 1.4000, 140, 0.46799782, -0.99351025, -0.08907895, -40.92095566, 58.72489166, -177.85270691, 0.00000000, 0.00000000, 0.00000000, 108.50412750, -14.42541599, 70.04505157, 1.00000000, 0.00000000, 0.00000000, 0.00000000, -0.72640008, 0.07872267, 0.39944986, 0.00000000, 0.00000000, 0.00000000, 0.00000000
1, 1.4100, 141, 0.41139764, -0.69962913, 0.20092486, -3.03358316, 74.47687531, -164.67384338, 0.00000000, 0.00000000, 0.00000000, 108.17428589, -13.09607410, 71.30572510, 1.00000000, 0.00000000, 0.00000000, 0.00000000, -0.64621222, -0.22337967, 0.10382812, 0.00000000, 0.00000000, 0.00000000, 0.00000000
1, 1.4200, 142, 0.47814861, -0.63281739, 0.22783725, 11.65443325, 80.24655151, -152.67622375, 0.00000000, 0.00000000, 0.00000000, 108.01685333, -11.89402103, 72.57266998, 1.00000000, 0.00000000, 0.00000000, 0.00000000, -0.69183165, -0.29587060, 0.07522032, 0.00000000, 0.00000000, 0.00000000, 0.00000000
1, 1.4300, 143, 0.57603776, -0.89527160, 0.36229676, 12.15789604, 85.52346039, -144.30805969, 0.00000000, 0.00000000, 0.00000000, 107.89166260, -10.67996597, 73.72171783, 1.00000000, 0.00000000, 0.00000000, 0.00000000, -0.76969743, -0.03811584, -0.06022449, 0.00000000, 0.00000000, 0.00000000, 0.00000000
1, 1.4400, 144, 0.62059331, -1.11813247, 0.37036824, 6.14327431, 77.63642883, -130.71307373, 0.00000000, 0.00000000, 0.00000000, 107.74840546, -9.67330456, 74.87923431, 1.00000000, 0.00000000, 0.00000000, 0.00000000, -0.79496592, 0.18064454, -0.06922615, 0.00000000, 0.00000000, 0.00000000, 0.00000000
1, 1.4500, 145, 0.58018810, -1.06994247, 0.37539098, -4.85344744, 43.92284012, -106.82712555, 0.00000000, 0.00000000, 0.00000000, 107.57849121, -8.78875446, 75.63169861, 1.00000000, 0.00000000, 0.00000000, 0.00000000, -0.73860061, 0.12899116, -0.07622935, 0.00000000, 0.00000000, 0.00000000, 0.00000000
1, 1.4600, 146, 0.43451154, -1.02249885, 0.40574276, -10.20009136, -17.04272652, -86.65643311, 0.00000000, 0.00000000, 0.00000000, 107.46119690, -7.91119480, 75.73117065, 1.00000000, 0.00000000, 0.00000000, 0.00000000, -0.57784122, 0.07864682, -0.10811643, 0.00000000, 0.00000000, 0.00000000, 0.00000000
1, 1.4700, 147, 0.32990095, -0.94471085, 0.49344888, -16.04314995, -67.98228455, -72.45117188, 0.00000000, 0.00000000, 0.00000000, 107.35680389, -7.01650143, 75.29570007, 1.00000000, 0.00000000, 0.00000000, 0.00000000, -0.45788801, -0.00167067, -0.19686529, 0.00000000, 0.00000000, 0.00000000, 0.00000000
1, 1.4800, 148, 0.38097548, -0.89345765, 0.47570077, -16.28742981, -90.53524780, -62.59955597, 0.00000000, 0.00000000, 0.00000000, 107.30851746, -6.02619362, 74.45246124, 1.00000000, 0.00000000, 0.00000000, 0.00000000, -0.49311119, -0.05525064, -0.18014434, 0.00000000, 0.00000000, 0.00000000, 0.00000000
1, 1.4900, 149, 0.26066026, -0.99023056, 0.38179481, -4.81897116, -87.36273956, -55.10788345, 0.00000000, 0.00000000, 0.00000000, 107.32636261, -5.24006987, 73.77919769, 1.00000000, 0.00000000, 0.00000000, 0.00000000, -0.35699373, 0.04001014, -0.08550651, 0.00000000, 0.00000000, 0.00000000, 0.00000000
1, 1.5000, 150, 0.27237651, -1.05792391, 0.23861203, -7.48380756, -88.07624817, -48.45149994, 0.00000000, 0.00000000, 0.00000000, 107.31091309, -4.51532888, 73.08006287, 1.00000000, 0.00000000, 0.00000000, 0.00000000, -0.35578483, 0.10658470, 0.05801013, 0.00000000, 0.00000000, 0.00000000, 0.00000000
1, 1.5100, 151, 0.36680615, -1.09345090, 0.18879649, -4.26739550, -80.53596497, -46.03958511, 0.00000000, 0.00000000, 0.00000000, 107.31445312, -3.83615327, 72.44647980, 1.00000000, 0.00000000, 0.00000000, 0.00000000, -0.43806127, 0.14117625, 0.10799488, 0.00000000, 0.00000000, 0.00000000, 0.00000000
1, 1.5200, 152, 0.16688873, -1.10537934, 0.15846890, -0.13068521, -67.68877411, -43.33138275, 0.00000000, 0.00000000, 0.00000000, 107.34506226, -3.22088194, 71.92841339, 1.00000000, 0.00000000, 0.00000000, 0.00000000, -0.22700852, 0.15253131, 0.13894901, 0.00000000, 0.00000000, 0.00000000, 0.00000000
1, 1.5300, 153, 0.04960025, -1.02473700, 0.17748529, -1.88781476, -62.30313492, -41.05899048, 0.00000000, 0.00000000, 0.00000000, 107.32440186, -2.58938718, 71.38844299, 1.00000000, 0.00000000, 0.00000000, 0.00000000, -0.09920726, 0.07138830, 0.12026554, 0.00000000, 0.00000000, 0.00000000, 0.00000000
1, 1.5400, 154, 0.12448744, -0.97307742, 0.25480381, 1.68586516, -52.53725433, -37.33027649, 0.00000000, 0.00000000, 0.00000000, 107.35722351, -2.07653713, 70.99779510, 1.00000000, 0.00000000, 0.00000000, 0.00000000, -0.16394302, 0.01924458, 0.04292138, 0.00000000, 0.00000000, 0.00000000, 0.00000000
1, 1.5500, 155, 0.09401889, -1.03689480, 0.25308612, 8.33476067, -45.77651215, -37.83942795, 0.00000000, 0.00000000, 0.00000000, 107.45091248, -1.57853544, 70.67403412, 1.00000000, 0.00000000, 0.00000000, 0.00000000, -0.12486686, 0.08320796, 0.04611912, 0.00000000, 0.00000000, 0.00000000, 0.00000000
1, 1.5600, 156, 0.05218922, -1.01307642, 0.32086760, 5.67884827, -47.19588470, -38.71611023, 0.00000000, 0.00000000, 0.00000000, 107.51541901, -1.06747043, 70.34009552, 1.00000000, 0.00000000, 0.00000000, 0.00000000, -0.07415889, 0.05954652, -0.02038189, 0.00000000, 0.00000000, 0.00000000, 0.00000000
1, 1.5700, 157, 0.06041342, -0.97487009, 0.27263480, 5.19942188, -48.06541824, -38.45800018, 0.00000000, 0.00000000, 0.00000000, 107.57220459, -0.55587184, 69.99771118, 1.00000000, 0.00000000, 0.00000000, 0.00000000, -0.07349011, 0.02151369, 0.02891833, 0.00000000, 0.00000000, 0.00000000, 0.00000000
1, 1.5800, 158, 0.03937512, -0.97355491, 0.30534959, 6.07931423, -49.02206039, -39.63499069, 0.00000000, 0.00000000, 0.00000000, 107.64183807, -0.01367917, 69.63101959, 1.00000000, 0.00000000, 0.00000000, 0.00000000, -0.04326549, 0.02044767, -0.00275372, 0.00000000, 0.00000000, 0.00000000, 0.00000000
1, 1.5900, 159, 0.04552042, -0.97204101, 0.34595498, 2.33948827, -44.23925781, -40.54779053, 0.00000000, 0.00000000, 0.00000000, 107.66390991, 0.50687337, 69.33245087, 1.00000000, 0.00000000, 0.00000000, 0.00000000, -0.04010203, 0.01917282, -0.04262928, 0.00000000, 0.00000000, 0.00000000, 0.00000000
1, 1.6000, 160, 0.13535418, -0.98151582, 0.40927073, 5.09183693, -42.55534744, -42.74901962, 0.00000000, 0.00000000, 0.00000000, 107.71116638, 1.04341722, 69.05683899, 1.00000000, 0.00000000, 0.00000000, 0.00000000, -0.12067403, 0.02890413, -0.10544766, 0.00000000, 0.00000000, 0.00000000, 0.00000000
1, 1.6100, 161, 0.13884115, -1.00801980, 0.45202634, 4.85487604, -43.45099258, -43.73662949, 0.00000000, 0.00000000, 0.00000000, 107.75322723, 1.59235334, 68.77611542, 1.00000000, 0.00000000, 0.00000000, 0.00000000, -0.11464444, 0.05584912, -0.14743082, 0.00000000, 0.00000000, 0.00000000, 0.00000000
1, 1.6200, 162, 0.12071176, -1.02063227, 0.25702715, 4.41961002, -47.83571625, -42.43555832, 0.00000000, 0.00000000, 0.00000000, 107.78668213, 2.14246774, 68.44993591, 1.00000000, 0.00000000, 0.00000000, 0.00000000, -0.08695511, 0.06891887, 0.04808749, 0.00000000, 0.00000000, 0.00000000, 0.00000000
1, 1.6300, 163, 0.06856357, -1.01340210, 0.26952377, 4.54232550, -59.26583862, -41.87184525, 0.00000000, 0.00000000, 0.00000000, 107.77960205, 2.72956038, 67.99773407, 1.00000000, 0.00000000, 0.00000000, 0.00000000, -0.02484085, 0.06215118, 0.03576580, 0.00000000, 0.00000000, 0.00000000, 0.00000000
1, 1.6400, 164, 0.05820762, -1.00521266, 0.32121593, 5.67554808, -61.11798096, -44.63742447, 0.00000000, 0.00000000, 0.00000000, 107.81267548, 3.34139085, 67.55162048, 1.00000000, 0.00000000, 0.00000000, 0.00000000, -0.00401597, 0.05450138, -0.01592543, 0.00000000, 0.00000000, 0.00000000, 0.00000000
1, 1.6500, 165, 0.04953327, -1.02437198, 0.45575556, 4.53353977, -67.13365173, -47.80921173, 0.00000000, 0.00000000, 0.00000000, 107.82645416, 4.00199938, 67.05780029, 1.00000000, 0.00000000, 0.00000000, 0.00000000, 0.01592780, 0.07441263, -0.15033540, 0.00000000, 0.00000000, 0.00000000, 0.00000000
1, 1.6600, 166, 0.06818890, -1.05436301, 0.44215944, 0.92259717, -67.64535522, -49.71345520, 0.00000000, 0.00000000, 0.00000000, 107.79829407, 4.68227196, 66.56447601, 1.00000000, 0.00000000, 0.00000000, 0.00000000, 0.00897111, 0.10514525, -0.13716608, 0.00000000, 0.00000000, 0.00000000, 0.00000000
1, 1.6700, 167, 0.03281577, -1.08700085, 0.40306309, -0.20591021, -76.05558777, -50.84874725, 0.00000000, 0.00000000, 0.00000000, 107.74599457, 5.39864016, 65.99320984, 1.00000000, 0.00000000, 0.00000000, 0.00000000, 0.05653676, 0.13850662, -0.09915183, 0.00000000, 0.00000000, 0.00000000, 0.00000000
1, 1.6800, 168, -0.01522121, -1.08650112, 0.44712257, -5.17512894, -81.60217285, -54.35315323, 0.00000000, 0.00000000, 0.00000000, 107.66284180, 6.14207983, 65.41533661, 1.00000000, 0.00000000, 0.00000000, 0.00000000, 0.11744136, 0.13879524, -0.14481291, 0.00000000, 0.00000000, 0.00000000, 0.00000000
1, 1.6900, 169, -0.02155473, -1.14170241, 0.49464750, -15.94667244, -87.80139160, -60.69908142, 0.00000000, 0.00000000, 0.00000000, 107.42819214, 6.98559523, 64.75689697, 1.00000000, 0.00000000, 0.00000000, 0.00000000, 0.13758895, 0.19454919, -0.19561873, 0.00000000, 0.00000000, 0.00000000, 0.00000000
1, 1.7000, 170, -0.26402026, -1.20780396, 0.53874218, -22.84782600, -83.77455139, -71.55661011, 0.00000000, 0.00000000, 0.00000000, 107.12303925, 7.91775608, 64.16450500, 1.00000000, 0.00000000, 0.00000000, 0.00000000, 0.39556947, 0.26106539, -0.24487649, 0.00000000, 0.00000000, 0.00000000, 0.00000000
1, 1.7100, 171, -0.16946092, -1.25213718, 0.60633808, -29.79880333, -75.66075897, -84.32524109, 0.00000000, 0.00000000, 0.00000000, 106.75427246, 8.94489670, 63.68119431, 1.00000000, 0.00000000, 0.00000000, 0.00000000, 0.31815225, 0.30595294, -0.31894082, 0.00000000, 0.00000000, 0.00000000, 0.00000000
1, 1.7200, 172, -0.25208139, -1.30448210, 0.56227052, -38.99339294, -72.63208771, -95.74394226, 0.00000000, 0.00000000, 0.00000000, 106.29341125, 10.06947327, 63.25146103, 1.00000000, 0.00000000, 0.00000000, 0.00000000, 0.41953546, 0.35911661, -0.28261530, 0.00000000, 0.00000000, 0.00000000, 0.00000000
1, 1.7300, 173, -0.19997373, -1.35234153, 0.47710350, -47.46987915, -76.16326904, -106.86378479, 0.00000000, 0.00000000, 0.00000000, 105.74213409, 11.26772976, 62.85780334, 1.00000000, 0.00000000, 0.00000000, 0.00000000, 0.38775182, 0.40794656, -0.20725948, 0.00000000, 0.00000000, 0.00000000, 0.00000000
1, 1.7400, 174, -0.24749717, -1.48750150, 0.52147961, -50.14094925, -78.97820282, -120.63611603, 0.00000000, 0.00000000, 0.00000000, 105.14765167, 12.64092159, 62.40819931, 1.00000000, 0.00000000, 0.00000000, 0.00000000, 0.45738351, 0.54482156, -0.26215810, 0.00000000, 0.00000000, 0.00000000, 0.00000000
1, 1.7500, 175, -0.24725866, -1.55692255, 0.44658098, -59.85906982, -79.21734619, -129.25205994, 0.00000000, 0.00000000, 0.00000000, 104.44558716, 14.09295368, 61.96038437, 1.00000000, 0.00000000, 0.00000000, 0.00000000, 0.48145610, 0.61665356, -0.19963202, 0.00000000, 0.00000000, 0.00000000, 0.00000000
1, 1.7600, 176, -0.30571747, -1.60111272, 0.45497069, -64.35509491, -81.00179291, -135.30778503, 0.00000000, 0.00000000, 0.00000000, 103.68087006, 15.60230064, 61.48765182, 1.00000000, 0.00000000, 0.00000000, 0.00000000, 0.56504393, 0.66393054, -0.22179422, 0.00000000, 0.00000000, 0.00000000, 0.00000000
1, 1.7700, 177, -0.41767818, -1.55114532, 0.48027617, -75.07321167, -84.57688904, -142.60337830, 0.00000000, 0.00000000, 0.00000000, 102.78408051, 17.18419075, 60.97000504, 1.00000000, 0.00000000, 0.00000000, 0.00000000, 0.70312905, 0.61786395, -0.26250333, 0.00000000, 0.00000000, 0.00000000, 0.00000000
1, 1.7800, 178, -0.53448319, -1.44350421, 0.54002047, -87.32133484, -85.49418640, -150.91638184, 0.00000000, 0.00000000, 0.00000000, 101.75711060, 18.78818321, 60.50337219, 1.00000000, 0.00000000, 0.00000000, 0.00000000, 0.84679335, 0.51485014, -0.34007242, 0.00000000, 0.00000000, 0.00000000, 0.00000000
1, 1.7900, 179, -0.64367366, -1.38407326, 0.61300272, -97.54253387, -90.12461853, -161.41535950, 0.00000000, 0.00000000, 0.00000000, 100.57752991, 20.54642868, 59.89646912, 1.00000000, 0.00000000, 0.00000000, 0.00000000, 0.98371655, 0.46108049, -0.43313897, 0.00000000, 0.00000000, 0.00000000, 0.00000000
1, 1.8000, 180, -0.66276002, -1.44238365, 0.65320218, -102.56673431, -97.01737213, -169.46722412, 0.00000000, 0.00000000, 0.00000000, 99.29089355, 22.38303566, 59.18388367, 1.00000000, 0.00000000, 0.00000000, 0.00000000, 1.03232503, 0.52675748, -0.49529597, 0.00000000, 0.00000000, 0.00000000, 0.00000000
1, 1.8100, 181, -0.74385750, -1.57205677, 0.67156446, -104.93125916, -107.33189392, -174.47715759, 0.00000000, 0.00000000, 0.00000000, 97.89576721, 24.26831055, 58.31201553, 1.00000000, 0.00000000, 0.00000000, 0.00000000, 1.14352906, 0.66537106, -0.53718174, 0.00000000, 0.00000000, 0.00000000, 0.00000000
1, 1.8200, 182, -0.83935851, -1.68129790, 0.70900601, -104.26296234, -127.86894989, -173.53749084, 0.00000000, 0.00000000, 0.00000000, 96.35659027, 26.14870262, 57.14769745, 1.00000000, 0.00000000, 0.00000000, 0.00000000, 1.26901150, 0.78500623, -0.59978825, 0.00000000, 0.00000000, 0.00000000, 0.00000000
1, 1.8300, 183, -0.77716821, -1.63919663, 0.72325218, -103.17610931, -142.25209045, -168.73312378, 0.00000000, 0.00000000, 0.00000000, 94.70153046, 27.92652321, 55.80165863, 1.00000000, 0.00000000, 0.00000000, 0.00000000, 1.23548174, 0.75431967, -0.64069843, 0.00000000, 0.00000000, 0.00000000, 0.00000000
1, 1.8400, 184, -0.57998735, -1.62877119, 0.71258217, -109.38285065, -158.28202820, -168.75865173, 0.00000000, 0.00000000, 0.00000000, 92.79885101, 29.71398735, 54.12512970, 1.00000000, 0.00000000, 0.00000000, 0.00000000, 1.06542897, 0.75624990, -0.65865034, 0.00000000, 0.00000000, 0.00000000, 0.00000000
1, 1.8500, 185, -0.50208735, -1.82254767, 0.78117526, -116.72596741, -175.84664917, -176.03298950, 0.00000000, 0.00000000, 0.00000000, 90.62180328, 31.52599525, 52.14379120, 1.00000000, 0.00000000, 0.00000000, 0.00000000, 1.01478589, 0.96435416, -0.75927013, 0.00000000, 0.00000000, 0.00000000, 0.00000000
1, 1.8600, 186, -0.64336926, -2.01700425, 1.00392282, -120.57047272, -176.16516113, -180.27697754, 0.00000000, 0.00000000, 0.00000000, 88.28670502, 33.31258011, 50.03695679, 1.00000000, 0.00000000, 0.00000000, 0.00000000, 1.18283534, 1.17518497, -1.01611865, 0.00000000, 0.00000000, 0.00000000, 0.00000000
1, 1.8700, 187, -0.76940924, -2.09124899, 1.21762013, -134.08500671, -147.66366577, -167.29867554, 0.00000000, 0.00000000, 0.00000000, 85.88990021, 34.90945816, 48.15419769, 1.00000000, 0.00000000, 0.00000000, 0.00000000, 1.33337545, 1.26683068, -1.26370919, 0.00000000, 0.00000000, 0.00000000, 0.00000000
1, 1.8800, 188, -0.87849879, -1.88045216, 1.14441466, -150.79141235, -97.44845581, -147.81307983, 0.00000000, 0.00000000, 0.00000000, 83.61791229, 36.26532745, 46.85451508, 1.00000000, 0.00000000, 0.00000000, 0.00000000, 1.46302903, 1.07294893, -1.22277474, 0.00000000, 0.00000000, 0.00000000, 0.00000000
1, 1.8900, 189, -0.49388739, -1.48621452, 0.84719944, -166.63388062, -47.43183517, -154.36164856, 0.00000000, 0.00000000, 0.00000000, 81.44649506, 37.73502350, 46.01402664, 1.00000000, 0.00000000, 0.00000000, 0.00000000, 1.09811497, 0.69676471, -0.95469785, 0.00000000, 0.00000000, 0.00000000, 0.00000000
1, 1.9000, 190, -0.00587424, -1.12544644, 0.60492647, -135.04682922, -24.51931953, -153.23570251, 0.00000000, 0.00000000, 0.00000000, 79.70350647, 39.20614624, 45.38327408, 1.00000000, 0.00000000, 0.00000000, 0.00000000, 0.63059825, 0.35578656, -0.73627400, 0.00000000, 0.00000000, 0.00000000, 0.00000000
1, 1.9100, 191, 0.62595171, -0.80022907, 0.77195805, -59.54624557, -47.59785461, -147.55471802, 0.00000000, 0.00000000, 0.00000000, 78.48239899, 40.56400299, 44.40851593, 1.00000000, 0.00000000, 0.00000000, 0.00000000, 0.01761407, 0.04919262, -0.91928518, 0.00000000, 0.00000000, 0.00000000, 0.00000000
1, 1.9200, 192, 0.56896108, -0.96714485, 1.02228856, 2.29537320, -49.19676208, -129.55389404, 0.00000000, 0.00000000, 0.00000000, 77.85179138, 41.73054123, 43.41504669, 1.00000000, 0.00000000, 0.00000000, 0.00000000, 0.09135796, 0.23253502, -1.17815125, 0.00000000, 0.00000000, 0.00000000, 0.00000000
1, 1.9300, 193, -0.59637403, -1.31096494, 1.03482497, 28.86238289, 4.97427750, -69.49830627, 0.00000000, 0.00000000, 0.00000000, 78.12596893, 42.34832382, 43.44636154, 1.00000000, 0.00000000, 0.00000000, 0.00000000, 1.26790452, 0.58624816, -1.18917477, 0.00000000, 0.00000000, 0.00000000, 0.00000000
1, 1.9400, 194, -1.05814612, -1.11106265, 0.33564702, -50.72162247, 0.73098874, -20.67906761, 0.00000000, 0.00000000, 0.00000000, 77.58585358, 42.55179977, 43.39778519, 1.00000000, 0.00000000, 0.00000000, 0.00000000, 1.73379183, 0.39025891, -0.49036494, 0.00000000, 0.00000000, 0.00000000, 0.00000000
1, 1.9500, 195, -0.48091665, -0.69561988, -0.02146083, -68.98818970, -13.78597832, -3.21498013, 0.00000000, 0.00000000, 0.00000000, 76.76606750, 42.55278778, 43.20569992, 1.00000000, 0.00000000, 0.00000000, 0.00000000, 1.15724921, -0.02212091, -0.14411475, 0.00000000, 0.00000000, 0.00000000, 0.00000000
1, 1.9600, 196, -0.02008820, -0.67866951, 0.01991404, -19.60525894, 42.75814056, 15.95628548, 0.00000000, 0.00000000, 0.00000000, 76.98521423, 42.49505234, 43.81997681, 1.00000000, 0.00000000, 0.00000000, 0.00000000, 0.69600075, -0.03884132, -0.18819293, 0.00000000, 0.00000000, 0.00000000, 0.00000000
1, 1.9700, 197, 0.11493044, -0.59304726, 0.11398511, 14.99381447, 70.78379822, 39.76705551, 0.00000000, 0.00000000, 0.00000000, 77.84480286, 42.26144791, 44.87252808, 1.00000000, 0.00000000, 0.00000000, 0.00000000, 0.55893898, -0.12826383, -0.27397934, 0.00000000, 0.00000000, 0.00000000, 0.00000000
1, 1.9800, 198, 0.01986512, -0.51998949, 0.17231226, 41.69896698, 79.15521240, 67.43254089, 0.00000000, 0.00000000, 0.00000000, 79.17605591, 41.68186951, 46.27994537, 1.00000000, 0.00000000, 0.00000000, 0.00000000, 0.64864528, -0.20906070, -0.31909108, 0.00000000, 0.00000000, 0.00000000, 0.00000000
1, 1.9900, 199, 0.02513254, -0.47487754, 0.20782144, 50.77752686, 87.77591705, 100.84643555, 0.00000000, 0.00000000, 0.00000000, 80.59757233, 40.84310913, 47.66479874, 1.00000000, 0.00000000, 0.00000000, 0.00000000, 0.63337243, -0.26636869, -0.33774048, 0.00000000, 0.00000000, 0.00000000, 0.00000000
1, 2.0000, 200, -0.01083206, -0.48791263, 0.19364563, 51.50091553, 94.04125214, 143.67939758, 0.00000000, 0.00000000, 0.00000000, 82.08153534, 39.56412506, 49.16483307, 1.00000000, 0.00000000, 0.00000000, 0.00000000, 0.65471977, -0.26880753, -0.30638212, 0.00000000, 0.00000000, 0.00000000, 0.00000000
1, 2.0100, 201, -0.14536858, -0.50935364, 0.13263965, 52.47418213, 96.77236176, 191.57736206, 0.00000000, 0.00000000, 0.00000000, 83.56680298, 37.78411865, 50.70079041, 1.00000000, 0.00000000, 0.00000000, 0.00000000, 0.76769125, -0.26752436, -0.22783631, 0.00000000, 0.00000000, 0.00000000, 0.00000000
1, 2.0200, 202, -0.21779120, -0.54484731, -0.00952097, 55.28190994, 101.62052155, 227.61340332, 0.00000000, 0.00000000, 0.00000000, 85.04220581, 35.61997604, 52.24354553, 1.00000000, 0.00000000, 0.00000000, 0.00000000, 0.81197208, -0.25567985, -0.06765471, 0.00000000, 0.00000000, 0.00000000, 0.00000000
1, 2.0300, 203, -0.21930516, -0.53204298, -0.09567335, 62.93354416, 102.85282898, 252.68057251, 0.00000000, 0.00000000, 0.00000000, 86.48965454, 33.10769272, 53.78525925, 1.00000000, 0.00000000, 0.00000000, 0.00000000, 0.77982092, -0.29392448, 0.03727850, 0.00000000, 0.00000000, 0.00000000, 0.00000000
1, 2.0400, 204, -0.12734951, -0.45361662, -0.04238721, 65.38195801, 103.85446167, 274.85134888, 0.00000000, 0.00000000, 0.00000000, 87.86991119, 30.41352081, 55.16388321, 1.00000000, 0.00000000, 0.00000000, 0.00000000, 0.64898050, -0.39852977, 0.00316317, 0.00000000, 0.00000000, 0.00000000, 0.00000000
1, 2.0500, 205, -0.04498320, -0.44076654, 0.12668796, 76.23017120, 106.82677460, 298.63995361, 0.00000000, 0.00000000, 0.00000000, 89.26424408, 27.45483208, 56.46984482, 1.00000000, 0.00000000, 0.00000000, 0.00000000, 0.52335608, -0.43703434, -0.14607817, 0.00000000, 0.00000000, 0.00000000, 0.00000000
1, 2.0600, 206, -0.00494856, -0.58639878, 0.10396768, 88.49126434, 119.53710175, 315.87637329, 0.00000000, 0.00000000, 0.00000000, 90.72941589, 24.29607773, 57.79847336, 1.00000000, 0.00000000, 0.00000000, 0.00000000, 0.43531364, -0.31609499, -0.10104468, 0.00000000, 0.00000000, 0.00000000, 0.00000000
1, 2.0700, 207, 0.10790256, -0.72827327, 0.05875279, 94.50664520, 117.28692627, 330.03802490, 0.00000000, 0.00000000, 0.00000000, 92.12999725, 20.96767998, 58.97977066, 1.00000000, 0.00000000, 0.00000000, 0.00000000, 0.27036265, -0.19689374, -0.03277930, 0.00000000, 0.00000000, 0.00000000, 0.00000000
1, 2.0800, 208, 0.14095959, -0.85754657, 0.15726921, 110.47991943, 123.16104126, 346.34350586, 0.00000000, 0.00000000, 0.00000000, 93.61655426, 17.43561172, 60.11769104, 1.00000000, 0.00000000, 0.00000000, 0.00000000, 0.18093282, -0.08770500, -0.10691891, 0.00000000, 0.00000000, 0.00000000, 0.00000000
1, 2.0900, 209, 0.13382846, -0.92703170, 0.23708399, 121.94787598, 125.28016663, 365.12719727, 0.00000000, 0.00000000, 0.00000000, 95.10826874, 13.70005417, 61.12593842, 1.00000000, 0.00000000, 0.00000000, 0.00000000, 0.12692058, -0.03512432, -0.16040339, 0.00000000, 0.00000000, 0.00000000, 0.00000000
1, 2.1000, 210, 0.26941934, -0.95313197, 0.24558094, 129.11767578, 100.95981598, 382.96936035, 0.00000000, 0.00000000, 0.00000000, 96.52983856, 9.78849888, 61.75543594, 1.00000000, 0.00000000, 0.00000000, 0.00000000, -0.07406519, -0.02201928, -0.14309776, 0.00000000, 0.00000000, 0.00000000, 0.00000000
1, 2.1100, 211, 0.47291213, -1.01595831, 0.25190628, 141.07733154, 67.23630524, 398.78710938, 0.00000000, 0.00000000, 0.00000000, 97.96594238, 5.74872923, 61.92116547, 1.00000000, 0.00000000, 0.00000000, 0.00000000, -0.34636319, 0.03253961, -0.12371326, 0.00000000, 0.00000000, 0.00000000, 0.00000000
1, 2.1200, 212, 0.65118581, -1.10294235, 0.17685242, 152.57461548, 26.55210686, 413.16348267, 0.00000000, 0.00000000, 0.00000000, 99.47105408, 1.62554872, 61.55742264, 1.00000000, 0.00000000, 0.00000000, 0.00000000, -0.59574282, 0.11671537, -0.02251072, 0.00000000, 0.00000000, 0.00000000, 0.00000000
1, 2.1300, 213, 0.73865449, -1.20251346, 0.16790868, 172.43074036, -11.51636314, 425.73602295, 0.00000000, 0.00000000, 0.00000000, 101.20303345, -2.50912142, 60.63980103, 1.00000000, 0.00000000, 0.00000000, 0.00000000, -0.75557566, 0.21972007, 0.01470979, 0.00000000, 0.00000000, 0.00000000, 0.00000000
1, 2.1400, 214, 0.66037965, -1.44490874, 0.15023017, 192.59919739, -60.86102295, 432.58953857, 0.00000000, 0.00000000, 0.00000000, 103.25321960, -6.60682154, 59.12526703, 1.00000000, 0.00000000, 0.00000000, 0.00000000, -0.74894440, 0.47255281, 0.06466913, 0.00000000, 0.00000000, 0.00000000, 0.00000000
1, 2.1500, 215, 0.60639888, -1.69149649, 0.18348943, 203.17602539, -85.01168823, 424.31826782, 0.00000000, 0.00000000, 0.00000000, 105.56864929, -10.50543499, 57.22639847, 1.00000000, 0.00000000, 0.00000000, 0.00000000, -0.76385772, 0.73642987, 0.06665055, 0.00000000, 0.00000000, 0.00000000, 0.00000000
1, 2.1600, 216, 0.51723897, -1.90848565, 0.08606401, 207.67778015, -76.52246857, 404.02926636, 0.00000000, 0.00000000, 0.00000000, 108.06128693, -14.15218353, 55.28112793, 1.00000000, 0.00000000, 0.00000000, 0.00000000, -0.73888141, 0.97677696, 0.20088851, 0.00000000, 0.00000000, 0.00000000, 0.00000000
1, 2.1700, 217, 0.48614633, -2.07082319, 0.00268262, 212.89306641, -48.62278366, 368.78857422, 0.00000000, 0.00000000, 0.00000000, 110.66529846, -17.47192955, 53.53539276, 1.00000000, 0.00000000, 0.00000000, 0.00000000, -0.76601970, 1.16702843, 0.32045797, 0.00000000, 0.00000000, 0.00000000, 0.00000000
1, 2.1800, 218, 0.65914971, -2.25078321, 0.04322400, 221.34165955, -9.13027859, 321.88549805, 0.00000000, 0.00000000, 0.00000000, 113.30976868, -20.40800858, 52.15275574, 1.00000000, 0.00000000, 0.00000000, 0.00000000, -0.99029690, 1.37809253, 0.31511486, 0.00000000, 0.00000000, 0.00000000, 0.00000000
1, 2.1900, 219, 0.91461945, -2.38901830, 0.05194328, 218.63877869, 37.96464920, 275.10357666, 0.00000000, 0.00000000, 0.00000000, 115.81269836, -23.06951714, 51.29394150, 1.00000000, 0.00000000, 0.00000000, 0.00000000, -1.29064322, 1.54860151, 0.33794847, 0.00000000, 0.00000000, 0.00000000, 0.00000000
1, 2.2000, 220, 0.96205479, -2.45512342, -0.12728649, 198.10842896, 84.93616486, 233.89320374, 0.00000000, 0.00000000, 0.00000000, 117.92778015, -25.54109001, 50.96453857, 1.00000000, 0.00000000, 0.00000000, 0.00000000, -1.37875319, 1.64654279, 0.54241812, 0.00000000, 0.00000000, 0.00000000, 0.00000000
1, 2.2100, 221, 0.83410776, -2.37005806, -0.31608450, 160.79006958, 129.27967834, 189.84738159, 0.00000000, 0.00000000, 0.00000000, 119.42155457, -27.82873535, 51.21361160, 1.00000000, 0.00000000, 0.00000000, 0.00000000, -1.28787827, 1.59012532, 0.74694240, 0.00000000, 0.00000000, 0.00000000, 0.00000000
1, 2.2200, 222, 0.92809367, -2.27708983, -0.29192981, 112.86249542, 199.56042480, 122.89338684, 0.00000000, 0.00000000, 0.00000000, 119.92808533, -29.88646317, 52.49738693, 1.00000000, 0.00000000, 0.00000000, 0.00000000, -1.41491354, 1.51924348, 0.72618109, 0.00000000, 0.00000000, 0.00000000, 0.00000000
1, 2.2300, 223, 1.42079353, -2.09221935, -0.29951447, 66.73892975, 238.22702026, 65.02910614, 0.00000000, 0.00000000, 0.00000000, 119.54260254, -31.61558723, 54.50693893, 1.00000000, 0.00000000, 0.00000000, 0.00000000, -1.93587959, 1.34806204, 0.72477305, 0.00000000, 0.00000000, 0.00000000, 0.00000000
1, 2.2400, 224, 2.27814484, -1.79366255, 0.00715619, 30.15844154, 227.84111023, 12.40195847, 0.00000000, 0.00000000, 0.00000000, 118.62578583, -32.83351517, 56.78826904, 1.00000000, 0.00000000, 0.00000000, 0.00000000, -2.81436062, 1.05569434, 0.40251249, 0.00000000, 0.00000000, 0.00000000, 0.00000000
1, 2.2500, 225, 2.53535461, -0.97858477, -0.26378906, -15.72429848, 230.12075806, -26.27768135, 0.00000000, 0.00000000, 0.00000000, 117.05183411, -33.67544174, 59.36846161, 1.00000000, 0.00000000, 0.00000000, 0.00000000, -3.08619189, 0.23897579, 0.65044522, 0.00000000, 0.00000000, 0.00000000, 0.00000000
1, 2.2600, 226, 2.39827299, -1.18152988, 0.03297168, 0.79407388, 124.56437683, -79.94177246, 0.00000000, 0.00000000, 0.00000000, 116.08023834, -33.51791382, 61.13534546, 1.00000000, 0.00000000, 0.00000000, 0.00000000, -2.95232892, 0.43614396, 0.33771017, 0.00000000, 0.00000000, 0.00000000, 0.00000000
1, 2.2700, 227, 1.90622509, -1.49100292, 0.14191389, -23.93916893, 62.42381287, -134.11155701, 0.00000000, 0.00000000, 0.00000000, 115.09652710, -32.57821655, 62.49807739, 1.00000000, 0.00000000, 0.00000000, 0.00000000, -2.45054913, 0.73366928, 0.21880195, 0.00000000, 0.00000000, 0.00000000, 0.00000000
1, 2.2800, 228, 1.41274083, -1.61179519, 0.31823397, -45.04485321, 32.83375168, -177.10998535, 0.00000000, 0.00000000, 0.00000000, 113.99144745, -31.05966759, 63.66238403, 1.00000000, 0.00000000, 0.00000000, 0.00000000, -1.93789816, 0.83698905, 0.03362300, 0.00000000, 0.00000000, 0.00000000, 0.00000000
1, 2.2900, 229, 1.05409741, -1.33813238, 1.22889090, -47.84413147, 25.78463936, -217.80938721, 0.00000000, 0.00000000, 0.00000000, 112.87392426, -29.16337776, 64.93669128, 1.00000000, 0.00000000, 0.00000000, 0.00000000, -1.55254364, 0.54194152, -0.88608122, 0.00000000, 0.00000000, 0.00000000, 0.00000000
1, 2.3000, 230, -0.55795336, -0.91284466, 0.92871678, -37.17346191, 8.70591354, -194.93746948, 0.00000000, 0.00000000, 0.00000000, 112.05638123, -27.39541245, 65.87347412, 1.00000000, 0.00000000, 0.00000000, 0.00000000, 0.08799073, 0.09623323, -0.59375542, 0.00000000, 0.00000000, 0.00000000, 0.00000000
1, 2.3100, 231, -1.25747764, -0.93243867, 0.46013451, -29.01239586, -46.07177734, -140.07081604, 0.00000000, 0.00000000, 0.00000000, 111.71823883, -25.92401505, 65.97947693, 1.00000000, 0.00000000, 0.00000000, 0.00000000, 0.81211632, 0.10133223, -0.12717080, 0.00000000, 0.00000000, 0.00000000, 0.00000000
1, 2.3200, 232, -0.70417321, -1.30463266, -0.07314620, -31.98816490, -70.58184814, -115.98203278, 0.00000000, 0.00000000, 0.00000000, 111.50569153, -24.58585930, 65.72652435, 1.00000000, 0.00000000, 0.00000000, 0.00000000, 0.27991515, 0.46262419, 0.40628591, 0.00000000, 0.00000000, 0.00000000, 0.00000000
1, 2.3300, 233, -0.38839057, -1.61502993, 0.16596307, -52.28232956, -89.45815277, -134.64530945, 0.00000000, 0.00000000, 0.00000000, 111.11599731, -22.99331856, 65.34230804, 1.00000000, 0.00000000, 0.00000000, 0.00000000, -0.01199684, 0.76122057, 0.16665401, 0.00000000, 0.00000000, 0.00000000, 0.00000000
1, 2.3400, 234, -0.46420649, -1.73123705, 0.32732135, -50.01686478, -39.39582825, -156.09674072, 0.00000000, 0.00000000, 0.00000000, 110.54183197, -21.39359856, 65.54360962, 1.00000000, 0.00000000, 0.00000000, 0.00000000, 0.08978496, 0.86426938, 0.00147592, 0.00000000, 0.00000000, 0.00000000, 0.00000000
1, 2.3500, 235, -0.58505976, -1.88719034, 0.14664017, -38.60785294, 31.81754112, -169.81614685, 0.00000000, 0.00000000, 0.00000000, 109.82315826, -19.90942764, 66.48922729, 1.00000000, 0.00000000, 0.00000000, 0.00000000, 0.23548642, 1.00746369, 0.17556532, 0.00000000, 0.00000000, 0.00000000, 0.00000000
1, 2.3600, 236, -0.30076653, -1.98894083, 0.21476921, -55.57849121, 85.73962402, -201.99360657, 0.00000000, 0.00000000, 0.00000000, 108.75766754, -18.28514862, 68.05123901, 1.00000000, 0.00000000, 0.00000000, 0.00000000, -0.02330251, 1.09537566, 0.09576217, 0.00000000, 0.00000000, 0.00000000, 0.00000000
1, 2.3700, 237, -0.11182890, -1.53256178, 0.12833473, -32.74738312, 137.52787781, -221.59403992, 0.00000000, 0.00000000, 0.00000000, 107.80194855, -16.61203766, 70.14856720, 1.00000000, 0.00000000, 0.00000000, 0.00000000, -0.18444598, 0.62506402, 0.16929501, 0.00000000, 0.00000000, 0.00000000, 0.00000000
1, 2.3800, 238, 0.43876839, -0.89948767, -0.11476199, -24.43379402, 141.68875122, -211.93472290, 0.00000000, 0.00000000, 0.00000000, 106.95536804, -14.90663719, 72.09355927, 1.00000000, 0.00000000, 0.00000000, 0.00000000, -0.70742041, -0.02039966, 0.40032837, 0.00000000, 0.00000000, 0.00000000, 0.00000000
1, 2.3900, 239, 0.68813360, -0.78229570, 0.09530601, 6.69356680, 117.46292877, -203.57173157, 0.00000000, 0.00000000, 0.00000000, 106.59193420, -13.29607964, 73.85850525, 1.00000000, 0.00000000, 0.00000000, 0.00000000, -0.92834711, -0.14740054, 0.18379667, 0.00000000, 0.00000000, 0.00000000, 0.00000000
1, 2.4000, 240, 0.51417094, -0.71921277, 0.27742571, 8.73408794, 117.40979767, -191.66293335, 0.00000000, 0.00000000, 0.00000000, 106.30843353, -11.79041004, 75.56811523, 1.00000000, 0.00000000, 0.00000000, 0.00000000, -0.72787821, -0.21783867, -0.00136460, 0.00000000, 0.00000000, 0.00000000, 0.00000000
1, 2.4100, 241, 0.59937930, -0.60773760, 0.39071929, 3.71397972, 116.01590729, -168.50152588, 0.00000000, 0.00000000, 0.00000000, 106.03383636, -10.49518490, 77.18210602, 1.00000000, 0.00000000, 0.00000000, 0.00000000, -0.78955972, -0.33532292, -0.11790385, 0.00000000, 0.00000000, 0.00000000, 0.00000000
1, 2.4200, 242, 0.90846533, -0.65486532, 0.43469578, 3.33112812, 86.75768280, -144.20297241, 0.00000000, 0.00000000, 0.00000000, 105.85115814, -9.34672642, 78.43092346, 1.00000000, 0.00000000, 0.00000000, 0.00000000, -1.07822883, -0.29288316, -0.16465554, 0.00000000, 0.00000000, 0.00000000, 0.00000000
1, 2.4300, 243, 0.91650283, -0.98670232, 0.44729140, 14.16507435, 25.10226822, -124.50095367, 0.00000000, 0.00000000, 0.00000000, 105.91262817, -8.08285332, 78.85739899, 1.00000000, 0.00000000, 0.00000000, 0.00000000, -1.06611085, 0.03568633, -0.17683615, 0.00000000, 0.00000000, 0.00000000, 0.00000000
1, 2.4400, 244, 0.74828196, -1.07608759, 0.29702753, -8.87441444, -38.31151581, -101.06272125, 0.00000000, 0.00000000, 0.00000000, 105.83508301, -7.00600719, 78.76499176, 1.00000000, 0.00000000, 0.00000000, 0.00000000, -0.87720513, 0.12230274, -0.02565008, 0.00000000, 0.00000000, 0.00000000, 0.00000000
1, 2.4500, 245, 0.64550132, -1.03549552, 0.35842779, -20.30900192, -89.44413757, -85.65385437, 0.00000000, 0.00000000, 0.00000000, 105.70263672, -5.93876505, 78.13291168, 1.00000000, 0.00000000, 0.00000000, 0.00000000, -0.75589728, 0.07892190, -0.08870138, 0.00000000, 0.00000000, 0.00000000, 0.00000000
1, 2.4600, 246, 0.42801055, -1.10355639, 0.40182343, -20.77709579, -118.06495667, -73.91111755, 0.00000000, 0.00000000, 0.00000000, 105.58341980, -4.90867853, 77.19116211, 1.00000000, 0.00000000, 0.00000000, 0.00000000, -0.52020681, 0.14465111, -0.13354169, 0.00000000, 0.00000000, 0.00000000, 0.00000000
1, 2.4700, 247, 0.22487865, -1.11098337, 0.34323403, -19.61552238, -128.88442993, -63.90338516, 0.00000000, 0.00000000, 0.00000000, 105.47013092, -3.94807577, 76.11711121, 1.00000000, 0.00000000, 0.00000000, 0.00000000, -0.29986709, 0.15010522, -0.07664777, 0.00000000, 0.00000000, 0.00000000, 0.00000000
1, 2.4800, 248, -0.01878706, -1.06806529, 0.28958389, -12.25652409, -113.03178406, -56.43942261, 0.00000000, 0.00000000, 0.00000000, 105.40347290, -3.10620546, 75.18003082, 1.00000000, 0.00000000, 0.00000000, 0.00000000, -0.04072710, 0.10583940, -0.02394681, 0.00000000, 0.00000000, 0.00000000, 0.00000000
1, 2.4900, 249, -0.04569265, -0.93696868, 0.23792320, -13.23044777, -92.66921997, -52.56511307, 0.00000000, 0.00000000, 0.00000000, 105.30725861, -2.35397363, 74.42469025, 1.00000000, 0.00000000, 0.00000000, 0.00000000, -0.00019849, -0.02639008, 0.02631249, 0.00000000, 0.00000000, 0.00000000, 0.00000000
1, 2.5000, 250, 0.04805845, -0.88611954, 0.20732145, -3.35939384, -73.48664856, -51.54982376, 0.00000000, 0.00000000, 0.00000000, 105.29389954, -1.66286767, 73.85148621, 1.00000000, 0.00000000, 0.00000000, 0.00000000, -0.08153663, -0.07791714, 0.05630977, 0.00000000, 0.00000000, 0.00000000, 0.00000000
1, 2.5100, 251, 0.09590974, -0.96189994, 0.19429830, 1.51190674, -56.37928391, -51.95023727, 0.00000000, 0.00000000, 0.00000000, 105.31861115, -1.01295984, 73.44472504, 1.00000000, 0.00000000, 0.00000000, 0.00000000, -0.11779521, -0.00237706, 0.06967342, 0.00000000, 0.00000000, 0.00000000, 0.00000000
1, 2.5200, 252, 0.26641762, -1.00634217, 0.19788213, -0.92247468, -48.85966492, -52.46175385, 0.00000000, 0.00000000, 0.00000000, 105.31347656, -0.37791553, 73.11201477, 1.00000000, 0.00000000, 0.00000000, 0.00000000, -0.27717146, 0.04191291, 0.06622188, 0.00000000, 0.00000000, 0.00000000, 0.00000000
1, 2.5300, 253, 0.23782896, -1.08032835, 0.27614015, 8.99602604, -35.21836090, -51.47738266, 0.00000000, 0.00000000, 0.00000000, 105.38487244, 0.27156088, 72.83795166, 1.00000000, 0.00000000, 0.00000000, 0.00000000, -0.23762475, 0.11603980, -0.01130570, 0.00000000, 0.00000000, 0.00000000, 0.00000000
1, 2.5400, 254, 0.15501824, -1.05228007, 0.18782267, 4.18669462, -31.91127968, -48.50966644, 0.00000000, 0.00000000, 0.00000000, 105.42497253, 0.82404137, 72.65925598, 1.00000000, 0.00000000, 0.00000000, 0.00000000, -0.14425814, 0.08833720, 0.07805507, 0.00000000, 0.00000000, 0.00000000, 0.00000000
1, 2.5500, 255, 0.21208069, -0.98991001, 0.22922027, 6.46674728, -36.56317902, -47.17498779, 0.00000000, 0.00000000, 0.00000000, 105.48527527, 1.37613058, 72.43243408, 1.00000000, 0.00000000, 0.00000000, 0.00000000, -0.19164714, 0.02626733, 0.03717792, 0.00000000, 0.00000000, 0.00000000, 0.00000000
1, 2.5600, 256, 0.22929949, -0.98960584, 0.19751613, 8.92989063, -29.41700363, -45.79094696, 0.00000000, 0.00000000, 0.00000000, 105.57003021, 1.89606869, 72.27153015, 1.00000000, 0.00000000, 0.00000000, 0.00000000, -0.19958201, 0.02658401, 0.07025105, 0.00000000, 0.00000000, 0.00000000, 0.00000000
1, 2.5700, 257, 0.24196465, -1.00241435, 0.21700035, 12.18414211, -23.76517868, -46.60410690, 0.00000000, 0.00000000, 0.00000000, 105.68801880, 2.40888834, 72.16812134, 1.00000000, 0.00000000, 0.00000000, 0.00000000, -0.20328218, 0.04016581, 0.05239676, 0.00000000, 0.00000000, 0.00000000, 0.00000000
1, 2.5800, 258, 0.20103437, -1.00461733, 0.29408371, 13.56301308, -17.62570953, -46.21612167, 0.00000000, 0.00000000, 0.00000000, 105.83423615, 2.97319937, 72.04165649, 1.00000000, 0.00000000, 0.00000000, 0.00000000, -0.15328921, 0.04337896, -0.02254582, 0.00000000, 0.00000000, 0.00000000, 0.00000000
1, 2.5900, 259, 0.20813812, -0.97823048, 0.32017833, 10.96066570, -23.52044296, -43.75138092, 0.00000000, 0.00000000, 0.00000000, 105.93778992, 3.45839930, 71.93502808, 1.00000000, 0.00000000, 0.00000000, 0.00000000, -0.15098873, 0.01806839, -0.04665157, 0.00000000, 0.00000000, 0.00000000, 0.00000000
1, 2.6000, 260, 0.31085745, -0.96802354, 0.31945014, 9.53343105, -32.91178131, -39.74983215, 0.00000000, 0.00000000, 0.00000000, 106.01971436, 3.93114018, 71.72761536, 1.00000000, 0.00000000, 0.00000000, 0.00000000, -0.24534437, 0.00877972, -0.04457961, 0.00000000, 0.00000000, 0.00000000, 0.00000000
1, 2.6100, 261, 0.42445949, -1.01280129, 0.33080521, 9.95209122, -39.90882492, -35.93513489, 0.00000000, 0.00000000, 0.00000000, 106.09849548, 4.38690662, 71.44278717, 1.00000000, 0.00000000, 0.00000000, 0.00000000, -0.35093325, 0.05449179, -0.05470418, 0.00000000, 0.00000000, 0.00000000, 0.00000000
1, 2.6200, 262, 0.33306757, -1.07991982, 0.28372246, 10.67259598, -52.27807999, -32.22246170, 0.00000000, 0.00000000, 0.00000000, 106.17185211, 4.84168053, 71.02874756, 1.00000000, 0.00000000, 0.00000000, 0.00000000, -0.25164580, 0.12251890, -0.00668668, 0.00000000, 0.00000000, 0.00000000, 0.00000000
1, 2.6300, 263, 0.07471477, -1.02403760, 0.14270271, 10.79188919, -60.44557953, -31.20027161, 0.00000000, 0.00000000, 0.00000000, 106.18848419, 5.31740189, 70.51470947, 1.00000000, 0.00000000, 0.00000000, 0.00000000, 0.01477381, 0.06761213, 0.13521217, 0.00000000, 0.00000000, 0.00000000, 0.00000000
1, 2.6400, 264, 0.03843664, -0.99962837, 0.25215700, 12.94368839, -51.83253479, -37.05727768, 0.00000000, 0.00000000, 0.00000000, 106.27957916, 5.81809807, 70.11879730, 1.00000000, 0.00000000, 0.00000000, 0.00000000, 0.05963606, 0.04418989, 0.02625417, 0.00000000, 0.00000000, 0.00000000, 0.00000000
1, 2.6500, 265, -0.09186490, -1.05711496, 0.38234732, 8.50641823, -50.13508606, -38.33038712, 0.00000000, 0.00000000, 0.00000000, 106.32489014, 6.32676792, 69.74314117, 1.00000000, 0.00000000, 0.00000000, 0.00000000, 0.19873434, 0.10287210, -0.10307497, 0.00000000, 0.00000000, 0.00000000, 0.00000000
1, 2.6600, 266, 0.10366839, -1.03705907, 0.42535102, 3.12794566, -44.90976334, -41.07282257, 0.00000000, 0.00000000, 0.00000000, 106.31980133, 6.84714556, 69.42544556, 1.00000000, 0.00000000, 0.00000000, 0.00000000, 0.01214480, 0.08380097, -0.14628133, 0.00000000, 0.00000000, 0.00000000, 0.00000000
1, 2.6700, 267, 0.11624318, -1.15528679, 0.43782783, 8.50621891, -45.43696976, -43.80473328, 0.00000000, 0.00000000, 0.00000000, 106.36574554, 7.39537191, 69.11026001, 1.00000000, 0.00000000, 0.00000000, 0.00000000, 0.00883517, 0.20326340, -0.15854374, 0.00000000, 0.00000000, 0.00000000, 0.00000000
1, 2.6800, 268, 0.10522926, -1.23007500, 0.40944993, 1.33066773, -56.23166275, -48.97141647, 0.00000000, 0.00000000, 0.00000000, 106.34453583, 8.02729225, 68.70709991, 1.00000000, 0.00000000, 0.00000000, 0.00000000, 0.03016974, 0.27938849, -0.13042983, 0.00000000, 0.00000000, 0.00000000, 0.00000000
1, 2.6900, 269, 0.13649689, -1.20960736, 0.44199628, -2.68559551, -62.88626862, -54.04047012, 0.00000000, 0.00000000, 0.00000000, 106.25115967, 8.72245216, 68.25028992, 1.00000000, 0.00000000, 0.00000000, 0.00000000, 0.01058302, 0.26017869, -0.16461459, 0.00000000, 0.00000000, 0.00000000, 0.00000000
1, 2.7000, 270, -0.16520348, -1.24612522, 0.40691903, -11.60582352, -70.98561859, -60.36147308, 0.00000000, 0.00000000, 0.00000000, 106.05268097, 9.49975872, 67.72988129, 1.00000000, 0.00000000, 0.00000000, 0.00000000, 0.32505476, 0.29787707, -0.13258882, 0.00000000, 0.00000000, 0.00000000, 0.00000000
1, 2.7100, 271, -0.11025959, -1.30475461, 0.50526607, -13.80062962, -77.07152557, -70.13587952, 0.00000000, 0.00000000, 0.00000000, 105.81861115, 10.38580322, 67.17302704, 1.00000000, 0.00000000, 0.00000000, 0.00000000, 0.28473401, 0.35781822, -0.23535937, 0.00000000, 0.00000000, 0.00000000, 0.00000000
1, 2.7200, 272, -0.22322768, -1.39850080, 0.49452272, -22.51978683, -83.61945343, -82.18077850, 0.00000000, 0.00000000, 0.00000000, 105.48113251, 11.40277767, 66.57891083, 1.00000000, 0.00000000, 0.00000000, 0.00000000, 0.41421300, 0.45316166, -0.23026851, 0.00000000, 0.00000000, 0.00000000, 0.00000000
1, 2.7300, 273, -0.27583131, -1.40492499, 0.45645040, -33.18790054, -90.54161072, -94.15374756, 0.00000000, 0.00000000, 0.00000000, 105.02603149, 12.50176144, 65.99998474, 1.00000000, 0.00000000, 0.00000000, 0.00000000, 0.48543370, 0.46134233, -0.20015964, 0.00000000, 0.00000000, 0.00000000, 0.00000000
1, 2.7400, 274, -0.31009585, -1.42162979, 0.49871927, -38.89513016, -88.25826263, -108.56377411, 0.00000000, 0.00000000, 0.00000000, 104.50257111, 13.77656651, 65.40783691, 1.00000000, 0.00000000, 0.00000000, 0.00000000, 0.53993028, 0.48031542, -0.25162137, 0.00000000, 0.00000000, 0.00000000, 0.00000000
1, 2.7500, 275, -0.41638345, -1.43903255, 0.46360260, -48.86739349, -86.82942963, -121.98670959, 0.00000000, 0.00000000, 0.00000000, 103.87397766, 15.17217255, 64.84737396, 1.00000000, 0.00000000, 0.00000000, 0.00000000, 0.66914207, 0.50075346, -0.22761741, 0.00000000, 0.00000000, 0.00000000, 0.00000000
1, 2.7600, 276, -0.43539977, -1.50792718, 0.44963163, -55.24687195, -79.36820221, -135.12001038, 0.00000000, 0.00000000, 0.00000000, 103.19191742, 16.67173767, 64.37390137, 1.00000000, 0.00000000, 0.00000000, 0.00000000, 0.71273100, 0.57355660, -0.22608322, 0.00000000, 0.00000000, 0.00000000, 0.00000000
1, 2.7700, 277, -0.47511742, -1.57703316, 0.43436748, -65.05345917, -72.52188110, -148.28863525, 0.00000000, 0.00000000, 0.00000000, 102.42227936, 18.27852058, 63.97716141, 1.00000000, 0.00000000, 0.00000000, 0.00000000, 0.77858931, 0.64760727, -0.22461434, 0.00000000, 0.00000000, 0.00000000, 0.00000000
1, 2.7800, 278, -0.62968826, -1.59346581, 0.50411797, -74.50514984, -76.70516968, -159.99919128, 0.00000000, 0.00000000, 0.00000000, 101.54022217, 19.95812607, 63.59382248, 1.00000000, 0.00000000, 0.00000000, 0.00000000, 0.96080035, 0.67013884, -0.30983171, 0.00000000, 0.00000000, 0.00000000, 0.00000000
1, 2.7900, 279, -0.74570292, -1.52905858, 0.56960303, -87.79971313, -83.06327057, -168.80099487, 0.00000000, 0.00000000, 0.00000000, 100.47415161, 21.77364731, 63.06633377, 1.00000000, 0.00000000, 0.00000000, 0.00000000, 1.10545659, 0.61285937, -0.39338559, 0.00000000, 0.00000000, 0.00000000, 0.00000000
1, 2.8000, 280, -0.78440821, -1.50824630, 0.62818813, -93.34220886, -91.40244293, -177.09107971, 0.00000000, 0.00000000, 0.00000000, 99.29053497, 23.67502403, 62.41965103, 1.00000000, 0.00000000, 0.00000000, 0.00000000, 1.17439783, 0.60078192, -0.47230265, 0.00000000, 0.00000000, 0.00000000, 0.00000000
1, 2.8100, 281, -0.93700558, -1.64542949, 0.61530232, -93.25882721, -113.80831146, -182.97349548, 0.00000000, 0.00000000, 0.00000000, 97.96644592, 25.65444946, 61.48353195, 1.00000000, 0.00000000, 0.00000000, 0.00000000, 1.35816693, 0.74842727, -0.48158291, 0.00000000, 0.00000000, 0.00000000, 0.00000000
1, 2.8200, 282, -0.92557430, -1.74981713, 0.66796142, -92.60694885, -138.61044312, -181.22647095, 0.00000000, 0.00000000, 0.00000000, 96.46394348, 27.62622261, 60.19981384, 1.00000000, 0.00000000, 0.00000000, 0.00000000, 1.37783325, 0.86473715, -0.55860293, 0.00000000, 0.00000000, 0.00000000, 0.00000000
1, 2.8300, 283, -0.78238726, -1.80521595, 0.70876431, -95.85997772, -164.88285828, -176.89410400, 0.00000000, 0.00000000, 0.00000000, 94.71723175, 29.51731491, 58.57327652, 1.00000000, 0.00000000, 0.00000000, 0.00000000, 1.26448369, 0.93305922, -0.62640142, 0.00000000, 0.00000000, 0.00000000, 0.00000000
1, 2.8400, 284, -0.54745203, -1.90380573, 0.74388880, -108.34033203, -189.77807617, -176.73735046, 0.00000000, 0.00000000, 0.00000000, 92.58567810, 31.40226746, 56.50723648, 1.00000000, 0.00000000, 0.00000000, 0.00000000, 1.05793524, 1.04554701, -0.69260073, 0.00000000, 0.00000000, 0.00000000, 0.00000000
1, 2.8500, 285, -0.58007973, -2.05845475, 0.89536697, -120.92479706, -203.88403320, -178.23706055, 0.00000000, 0.00000000, 0.00000000, 90.11302185, 33.23236847, 54.14527893, 1.00000000, 0.00000000, 0.00000000, 0.00000000, 1.11813521, 1.21579993, -0.87974513, 0.00000000, 0.00000000, 0.00000000, 0.00000000
1, 2.8600, 286, -0.75012153, -2.09078932, 1.13381374, -127.21611023, -185.28665161, -173.63603210, 0.00000000, 0.00000000, 0.00000000, 87.56419373, 34.93200302, 51.86679459, 1.00000000, 0.00000000, 0.00000000, 0.00000000, 1.31375933, 1.26514578, -1.15508389, 0.00000000, 0.00000000, 0.00000000, 0.00000000
1, 2.8700, 287, -0.88814276, -2.08625531, 1.20186973, -147.03562927, -129.73262024, -158.86164856, 0.00000000, 0.00000000, 0.00000000, 85.09251404, 36.43617630, 50.14845276, 1.00000000, 0.00000000, 0.00000000, 0.00000000, 1.47428107, 1.27810156, -1.25829220, 0.00000000, 0.00000000, 0.00000000, 0.00000000
1, 2.8800, 288, -0.75253141, -1.88811207, 0.97597170, -156.99148560, -69.21286011, -156.59135437, 0.00000000, 0.00000000, 0.00000000, 82.90435028, 37.89190292, 49.14044952, 1.00000000, 0.00000000, 0.00000000, 0.00000000, 1.35915959, 1.09799826, -1.06315923, 0.00000000, 0.00000000, 0.00000000, 0.00000000
1, 2.8900, 289, -0.11739334, -1.43023813, 0.66698378, -152.38972473, -9.94501495, -173.30812073, 0.00000000, 0.00000000, 0.00000000, 81.10768127, 39.59437943, 48.70434952, 1.00000000, 0.00000000, 0.00000000, 0.00000000, 0.74596852, 0.66057318, -0.77831084, 0.00000000, 0.00000000, 0.00000000, 0.00000000
1, 2.9000, 290, 0.69602019, -0.89725298, 0.79586297, -86.50321960, -37.53094864, -177.22213745, 0.00000000, 0.00000000, 0.00000000, 79.67191315, 41.27754974, 47.82629013, 1.00000000, 0.00000000, 0.00000000, 0.00000000, -0.04451432, 0.14983238, -0.92552102, 0.00000000, 0.00000000, 0.00000000, 0.00000000
1, 2.9100, 291, 0.91383135, -0.81967592, 1.34451675, 23.18381310, -29.04883194, -152.68841553, 0.00000000, 0.00000000, 0.00000000, 79.39588928, 42.72536850, 47.06602859, 1.00000000, 0.00000000, 0.00000000, 0.00000000, -0.24186486, 0.09179689, -1.48092222, 0.00000000, 0.00000000, 0.00000000, 0.00000000
1, 2.9200, 292, -0.45214435, -1.18030655, 1.19807732, 59.57427597, 36.91241455, -80.95962524, 0.00000000, 0.00000000, 0.00000000, 80.19841003, 43.58702469, 47.36713409, 1.00000000, 0.00000000, 0.00000000, 0.00000000, 1.13817894, 0.46406698, -1.32587886, 0.00000000, 0.00000000, 0.00000000, 0.00000000
1, 2.9300, 293, -1.27079201, -0.99165654, 0.44713122, -22.10093880, -10.38662052, -14.31827545, 0.00000000, 0.00000000, 0.00000000, 79.92550659, 43.50146866, 47.51207733, 1.00000000, 0.00000000, 0.00000000, 0.00000000, 1.96112835, 0.27883410, -0.57088095, 0.00000000, 0.00000000, 0.00000000, 0.00000000
1, 2.9400, 294, -0.65213841, -0.54995537, -0.06348395, -72.21038055, -55.64343262, 5.72803164, 0.00000000, 0.00000000, 0.00000000, 78.69601440, 43.34197998, 46.77404404, 1.00000000, 0.00000000, 0.00000000, 0.00000000, 1.33931994, -0.16347861, -0.07353440, 0.00000000, 0.00000000, 0.00000000, 0.00000000
1, 2.9500, 295, 0.03225814, -0.53068036, -0.08508598, -26.79642868, 4.04691315, 15.57042313, 0.00000000, 0.00000000, 0.00000000, 78.49430084, 43.19769287, 46.87092209, 1.00000000, 0.00000000, 0.00000000, 0.00000000, 0.65290332, -0.18301733, -0.06047734, 0.00000000, 0.00000000, 0.00000000, 0.00000000
1, 2.9600, 296, 0.27230409, -0.50082505, 0.09098180, 16.95947456, 52.51534653, 33.80540085, 0.00000000, 0.00000000, 0.00000000, 79.20708466, 42.96783829, 47.66598129, 1.00000000, 0.00000000, 0.00000000, 0.00000000, 0.41061404, -0.21597227, -0.23174688, 0.00000000, 0.00000000, 0.00000000, 0.00000000
1, 2.9700, 297, 0.13561042, -0.31745678, 0.20650043, 56.04729080, 64.67280579, 78.21564484, 0.00000000, 0.00000000, 0.00000000, 80.48094940, 42.31205750, 48.71864700, 1.00000000, 0.00000000, 0.00000000, 0.00000000, 0.54119879, -0.40743649, -0.33465958, 0.00000000, 0.00000000, 0.00000000, 0.00000000
1, 2.9800, 298, 0.11930199, -0.20394769, 0.13398843, 74.47882843, 64.07997131, 124.16332245, 0.00000000, 0.00000000, 0.00000000, 82.01282501, 41.18236160, 49.86680984, 1.00000000, 0.00000000, 0.00000000, 0.00000000, 0.54515576, -0.53496981, -0.24548465, 0.00000000, 0.00000000, 0.00000000, 0.00000000
1, 2.9900, 299, 0.13551246, -0.25082105, 0.10221653, 83.01176453, 53.74371338, 167.24743652, 0.00000000, 0.00000000, 0.00000000, 83.47627258, 39.59114075, 50.84339142, 1.00000000, 0.00000000, 0.00000000, 0.00000000, 0.51026374, -0.50684357, -0.19614644, 0.00000000, 0.00000000, 0.00000000, 0.00000000
1, 3.0000, 300, -0.02955519, -0.33944467, 0.05721574, 83.92390442, 49.14030838, 214.95469666, 0.00000000, 0.00000000, 0.00000000, 84.87898254, 37.50253677, 51.74658203, 1.00000000, 0.00000000, 0.00000000, 0.00000000, 0.64962626, -0.44121680, -0.13429411, 0.00000000, 0.00000000, 0.00000000, 0.00000000
1, 3.0100, 301, -0.17963266, -0.40247101, -0.10510281, 85.30761719, 49.96511459, 255.23054504, 0.00000000, 0.00000000, 0.00000000, 86.24224854, 34.99650955, 52.60872650, 1.00000000, 0.00000000, 0.00000000, 0.00000000, 0.76684749, -0.40460911, 0.04496233, 0.00000000, 0.00000000, 0.00000000, 0.00000000
1, 3.0200, 302, -0.30372098, -0.35831377, -0.13384762, 88.44309998, 53.81571198, 281.45129395, 0.00000000, 0.00000000, 0.00000000, 87.58449554, 32.21498871, 53.43579102, 1.00000000, 0.00000000, 0.00000000, 0.00000000, 0.85234714, -0.47653842, 0.09126897, 0.00000000, 0.00000000, 0.00000000, 0.00000000
1, 3.0300, 303, -0.32147503, -0.27201566, -0.03909294, 92.08232880, 60.98750687, 302.63024902, 0.00000000, 0.00000000, 0.00000000, 88.93000031, 29.14125061, 54.32876968, 1.00000000, 0.00000000, 0.00000000, 0.00000000, 0.82648408, -0.59062302, 0.01547960, 0.00000000, 0.00000000, 0.00000000, 0.00000000
1, 3.0400, 304, -0.27659959, -0.25916073, 0.14379302, 102.90600586, 56.90495682, 321.43627930, 0.00000000, 0.00000000, 0.00000000, 90.26861572, 25.93129539, 54.99666977, 1.00000000, 0.00000000, 0.00000000, 0.00000000, 0.73284501, -0.63052630, -0.14751914, 0.00000000, 0.00000000, 0.00000000, 0.00000000
1, 3.0500, 305, -0.19685628, -0.50346673, 0.14626549, 122.12561798, 59.63119888, 331.97766113, 0.00000000, 0.00000000, 0.00000000, 91.73210144, 22.60142517, 55.58739090, 1.00000000, 0.00000000, 0.00000000, 0.00000000, 0.60126901, -0.41074878, -0.12750342, 0.00000000, 0.00000000, 0.00000000, 0.00000000
1, 3.0600, 306, -0.03038708, -0.67529035, 0.04714204, 140.39682007, 88.66373444, 339.20095825, 0.00000000, 0.00000000, 0.00000000, 93.41534424, 19.17276001, 56.37371826, 1.00000000, 0.00000000, 0.00000000, 0.00000000, 0.38001317, -0.26033023, -0.00208251, 0.00000000, 0.00000000, 0.00000000, 0.00000000
1, 3.0700, 307, 0.05025842, -0.81802899, 0.12400028, 166.94096375, 111.07020569, 347.53979492, 0.00000000, 0.00000000, 0.00000000, 95.34898376, 15.62278461, 57.25651550, 1.00000000, 0.00000000, 0.00000000, 0.00000000, 0.24149129, -0.13516219, -0.04703983, 0.00000000, 0.00000000, 0.00000000, 0.00000000
1, 3.0800, 308, -0.06080325, -0.93299431, 0.27203754, 180.07066345, 115.92736816, 362.11813354, 0.00000000, 0.00000000, 0.00000000, 97.34288025, 11.87517548, 58.05658722, 1.00000000, 0.00000000, 0.00000000, 0.00000000, 0.29085335, -0.03352059, -0.16024649, 0.00000000, 0.00000000, 0.00000000, 0.00000000
1, 3.0900, 309, -0.09372662, -1.05487847, 0.19573757, 173.76734924, 103.70024109, 371.57070923, 0.00000000, 0.00000000, 0.00000000, 99.16909790, 8.04989052, 58.55616760, 1.00000000, 0.00000000, 0.00000000, 0.00000000, 0.25849536, 0.07959734, -0.04994875, 0.00000000, 0.00000000, 0.00000000, 0.00000000
1, 3.1000, 310, 0.12126990, -1.21397841, 0.12569836, 175.10107422, 82.53121948, 371.61978149, 0.00000000, 0.00000000, 0.00000000, 100.93878174, 4.24712229, 58.72147751, 1.00000000, 0.00000000, 0.00000000, 0.00000000, -0.02248114, 0.23502682, 0.05171881, 0.00000000, 0.00000000, 0.00000000, 0.00000000
1, 3.1100, 311, 0.47617909, -1.42911708, 0.14332196, 183.13284302, 77.16184998, 368.01083374, 0.00000000, 0.00000000, 0.00000000, 102.77117157, 0.48747322, 58.72153473, 1.00000000, 0.00000000, 0.00000000, 0.00000000, -0.44319251, 0.45197546, 0.06570057, 0.00000000, 0.00000000, 0.00000000, 0.00000000
1, 3.1200, 312, 0.58682638, -1.77015197, 0.44002792, 197.07333374, 70.02395630, 366.25112915, 0.00000000, 0.00000000, 0.00000000, 104.74699402, -3.23628020, 58.53073883, 1.00000000, 0.00000000, 0.00000000, 0.00000000, -0.61885822, 0.80055952, -0.19828543, 0.00000000, 0.00000000, 0.00000000, 0.00000000
1, 3.1300, 313, 0.45720261, -2.05827570, 0.43831179, 192.13015747, 101.25477600, 367.79980469, 0.00000000, 0.00000000, 0.00000000, 106.66469574, -7.04177046, 58.49660110, 1.00000000, 0.00000000, 0.00000000, 0.00000000, -0.55492592, 1.10161686, -0.16477555, 0.00000000, 0.00000000, 0.00000000, 0.00000000
1, 3.1400, 314, 0.63085520, -2.14717960, 0.38214260, 198.51100159, 147.54312134, 356.92791748, 0.00000000, 0.00000000, 0.00000000, 108.59605408, -10.89133072, 58.82709503, 1.00000000, 0.00000000, 0.00000000, 0.00000000, -0.79506052, 1.20849299, -0.07971302, 0.00000000, 0.00000000, 0.00000000, 0.00000000
1, 3.1500, 315, 0.87931186, -2.23879147, 0.39149529, 214.39750671, 164.98884583, 331.70538330, 0.00000000, 0.00000000, 0.00000000, 110.64034271, -14.56971741, 59.27956009, 1.00000000, 0.00000000, 0.00000000, 0.00000000, -1.10776258, 1.32338190, -0.06070249, 0.00000000, 0.00000000, 0.00000000, 0.00000000
1, 3.1600, 316, 0.93436223, -2.29812050, 0.46953014, 213.99638367, 158.19610596, 306.32638550, 0.00000000, 0.00000000, 0.00000000, 112.68152618, -18.00027275, 59.63376617, 1.00000000, 0.00000000, 0.00000000, 0.00000000, -1.22224343, 1.40983820, -0.11216012, 0.00000000, 0.00000000, 0.00000000, 0.00000000
1, 3.1700, 317, 0.94729084, -2.36567116, 0.50956517, 196.57563782, 138.25312805, 287.00296021, 0.00000000, 0.00000000, 0.00000000, 114.60766602, -21.18323898, 59.75525665, 1.00000000, 0.00000000, 0.00000000, 0.00000000, -1.28940523, 1.50676298, -0.12887861, 0.00000000, 0.00000000, 0.00000000, 0.00000000
1, 3.1800, 318, 1.11819124, -2.06119466, 0.27784368, 146.60607910, 125.68347168, 273.95703125, 0.00000000, 0.00000000, 0.00000000, 116.07861328, -24.16930199, 59.68231583, 1.00000000, 0.00000000, 0.00000000, 0.00000000, -1.50996554, 1.23135006, 0.11917241, 0.00000000, 0.00000000, 0.00000000, 0.00000000
1, 3.1900, 319, 1.18909180, -1.52575457, -0.00006045, 115.97698212, 133.18504333, 260.78851318, 0.00000000, 0.00000000, 0.00000000, 117.22809601, -27.09775925, 59.70469284, 1.00000000, 0.00000000, 0.00000000, 0.00000000, -1.62753785, 0.72371417, 0.40536246, 0.00000000, 0.00000000, 0.00000000, 0.00000000
1, 3.2000, 320, 1.15159810, -1.46686733, -0.01260374, 117.11616516, 144.55737305, 239.29722595, 0.00000000, 0.00000000, 0.00000000, 118.30931091, -29.88880157, 59.89220810, 1.00000000, 0.00000000, 0.00000000, 0.00000000, -1.63420975, 0.69294721, 0.42239636, 0.00000000, 0.00000000, 0.00000000, 0.00000000
1, 3.2100, 321, 1.54778457, -1.92662692, 0.12434906, 114.33958435, 130.80688477, 200.28594971, 0.00000000, 0.00000000, 0.00000000, 119.34406281, -32.27404404, 60.10308838, 1.00000000, 0.00000000, 0.00000000, 0.00000000, -2.06915975, 1.18010390, 0.28884062, 0.00000000, 0.00000000, 0.00000000, 0.00000000
1, 3.2200, 322, 2.19167900, -1.92813039, 0.10216392, 70.65897369, 83.96411133, 145.51348877, 0.00000000, 0.00000000, 0.00000000, 120.04628754, -33.95372772, 60.11246872, 1.00000000, 0.00000000, 0.00000000, 0.00000000, -2.74193716, 1.20367956, 0.31295019, 0.00000000, 0.00000000, 0.00000000, 0.00000000
1, 3.2300, 323, 2.27632403, -1.31530094, -0.22815661, 33.64190674, 5.21318817, 94.41309357, 0.00000000, 0.00000000, 0.00000000, 120.66564941, -34.76562119, 59.55781555, 1.00000000, 0.00000000, 0.00000000, 0.00000000, -2.84323645, 0.60492760, 0.64524317, 0.00000000, 0.00000000, 0.00000000, 0.00000000
1, 3.2400, 324, 1.86472678, -1.45790601, -0.22292551, 23.19541168, -51.40496826, 29.42406654, 0.00000000, 0.00000000, 0.00000000, 121.30903625, -34.75292587, 58.83735275, 1.00000000, 0.00000000, 0.00000000, 0.00000000, -2.43574476, 0.75496638, 0.64696288, 0.00000000, 0.00000000, 0.00000000, 0.00000000
1, 3.2500, 325, 1.45974290, -1.62589359, -0.14619517, -15.49632263, -55.26034927, -40.58191299, 0.00000000, 0.00000000, 0.00000000, 121.33355713, -34.11877060, 58.52098465, 1.00000000, 0.00000000, 0.00000000, 0.00000000, -2.02462077, 0.92139447, 0.57582545, 0.00000000, 0.00000000, 0.00000000, 0.00000000
1, 3.2600, 326, 1.33820605, -1.61435711, -0.14369778, -48.53442001, -27.82276535, -102.78101349, 0.00000000, 0.00000000, 0.00000000, 120.65554810, -33.09414291, 58.87038422, 1.00000000, 0.00000000, 0.00000000, 0.00000000, -1.89016891, 0.89933705, 0.57270366, 0.00000000, 0.00000000, 0.00000000, 0.00000000
1, 3.2700, 327, 1.33736408, -1.59091330, -0.08904847, -65.54394531, 5.28443050, -156.90237427, 0.00000000, 0.00000000, 0.00000000, 119.47229004, -31.76223183, 59.85541534, 1.00000000, 0.00000000, 0.00000000, 0.00000000, -1.87155688, 0.85837072, 0.51088846, 0.00000000, 0.00000000, 0.00000000, 0.00000000
1, 3.2800, 328, 1.24167883, -1.50493765, 0.49299797, -68.60558319, 23.04431152, -208.69802856, 0.00000000, 0.00000000, 0.00000000, 118.07289124, -29.99811935, 61.20200729, 1.00000000, 0.00000000, 0.00000000, 0.00000000, -1.75233018, 0.75011075, -0.08146810, 0.00000000, 0.00000000, 0.00000000, 0.00000000
1, 3.2900, 329, -0.12827268, -1.06577528, 1.64686501, -40.35826111, 45.97975159, -234.54962158, 0.00000000, 0.00000000, 0.00000000, 116.84225464, -28.12794113, 62.90503311, 1.00000000, 0.00000000, 0.00000000, 0.00000000, -0.35364836, 0.28696197, -1.24549866, 0.00000000, 0.00000000, 0.00000000, 0.00000000
1, 3.3000, 330, -1.75044143, -0.72099358, 1.26829898, -38.62377930, -9.45127296, -175.63972473, 0.00000000, 0.00000000, 0.00000000, 116.09365082, -26.51400948, 63.69129181, 1.00000000, 0.00000000, 0.00000000, 0.00000000, 1.29477823, -0.07662001, -0.87318659, 0.00000000, 0.00000000, 0.00000000, 0.00000000
1, 3.3100, 331, -1.21270919, -0.75547618, 0.90598512, -16.72028160, -13.19551659, -111.08258057, 0.00000000, 0.00000000, 0.00000000, 115.74755096, -25.45711327, 64.09886932, 1.00000000, 0.00000000, 0.00000000, 0.00000000, 0.77672267, -0.05448903, -0.51375496, 0.00000000, 0.00000000, 0.00000000, 0.00000000
1, 3.3200, 332, -0.15503137, -1.47801960, 0.32339355, -20.99672127, -66.03714752, -120.50777435, 0.00000000, 0.00000000, 0.00000000, 115.57057190, -24.08497810, 64.01868439, 1.00000000, 0.00000000, 0.00000000, 0.00000000, -0.26187763, 0.65870893, 0.07013756, 0.00000000, 0.00000000, 0.00000000, 0.00000000
1, 3.3300, 333, 0.22581734, -1.93727028, 0.26139164, -58.06435394, -71.85491180, -160.66819763, 0.00000000, 0.00000000, 0.00000000, 114.96246338, -22.30264091, 64.03671265, 1.00000000, 0.00000000, 0.00000000, 0.00000000, -0.61642015, 1.10450435, 0.13083637, 0.00000000, 0.00000000, 0.00000000, 0.00000000
1, 3.3400, 334, 0.00712446, -2.09132385, 0.33240932, -52.16020203, -13.93066978, -177.80174255, 0.00000000, 0.00000000, 0.00000000, 114.20120239, -20.62745476, 64.69561005, 1.00000000, 0.00000000, 0.00000000, 0.00000000, -0.36934289, 1.24322343, 0.05417328, 0.00000000, 0.00000000, 0.00000000, 0.00000000
1, 3.3500, 335, -0.17426713, -2.11434126, -0.11756956, -70.15816498, 34.01408386, -175.42378235, 0.00000000, 0.00000000, 0.00000000, 113.13249207, -19.15729523, 65.77625275, 1.00000000, 0.00000000, 0.00000000, 0.00000000, -0.16285659, 1.25134242, 0.49374032, 0.00000000, 0.00000000, 0.00000000, 0.00000000
1, 3.3600, 336, -0.20272405, -1.85382843, -0.42915645, -74.66329956, 43.47502518, -180.55935669, 0.00000000, 0.00000000, 0.00000000, 112.02161407, -17.65678024, 66.92967224, 1.00000000, 0.00000000, 0.00000000, 0.00000000, -0.10999705, 0.97588098, 0.79155612, 0.00000000, 0.00000000, 0.00000000, 0.00000000
1, 3.3700, 337, 0.29009125, -1.23260796, -0.45104912, -52.48661804, 47.90504837, -180.86604309, 0.00000000, 0.00000000, 0.00000000, 111.15915680, -16.15074921, 68.08998871, 1.00000000, 0.00000000, 0.00000000, 0.00000000, -0.57766581, 0.34120062, 0.80122864, 0.00000000, 0.00000000, 0.00000000, 0.00000000
1, 3.3800, 338, 0.43566573, -0.90725923, -0.19750723, -18.63848877, 33.68648529, -170.00350952, 0.00000000, 0.00000000, 0.00000000, 110.60966492, -14.54636097, 68.91958618, 1.00000000, 0.00000000, 0.00000000, 0.00000000, -0.69776899, 0.00534770, 0.54070938, 0.00000000, 0.00000000, 0.00000000, 0.00000000
1, 3.3900, 339, 0.45446271, -0.70613891, -0.11748464, -5.81662750, 29.44119835, -156.57867432, 0.00000000, 0.00000000, 0.00000000, 110.34832001, -13.18238926, 69.76767731, 1.00000000, 0.00000000, 0.00000000, 0.00000000, -0.69107485, -0.20429996, 0.45670566, 0.00000000, 0.00000000, 0.00000000, 0.00000000
1, 3.4000, 340, 0.67282987, -0.73689151, 0.20883274, 9.54375935, 35.80235291, -144.54724121, 0.00000000, 0.00000000, 0.00000000, 110.25728607, -11.95087337, 70.62542725, 1.00000000, 0.00000000, 0.00000000, 0.00000000, -0.88762569, -0.17917223, 0.12977397, 0.00000000, 0.00000000, 0.00000000, 0.00000000
1, 3.4100, 341, 0.68103856, -0.99524558, 0.50841522, 16.42639351, 44.92154312, -131.01463318, 0.00000000, 0.00000000, 0.00000000, 110.24514771, -10.87700748, 71.51774597, 1.00000000, 0.00000000, 0.00000000, 0.00000000, -0.87636328, 0.07505862, -0.16918343, 0.00000000, 0.00000000, 0.00000000, 0.00000000
1, 3.4200, 342, 0.53787744, -1.19547069, 0.35202417, 13.34087753, 30.67089081, -108.60597229, 0.00000000, 0.00000000, 0.00000000, 110.25616455, -9.96441460, 72.19286346, 1.00000000, 0.00000000, 0.00000000, 0.00000000, -0.71665692, 0.27251023, -0.01119799, 0.00000000, 0.00000000, 0.00000000, 0.00000000
1, 3.4300, 343, 0.46540919, -1.07530355, 0.33620268, -6.10328388, 1.33485246, -92.73711395, 0.00000000, 0.00000000, 0.00000000, 110.14954376, -8.91229153, 72.33132935, 1.00000000, 0.00000000, 0.00000000, 0.00000000, -0.62832212, 0.14924978, 0.00417162, 0.00000000, 0.00000000, 0.00000000, 0.00000000
1, 3.4400, 344, 0.28384924, -0.95750254, 0.51258492, -3.94779634, -30.63529968, -80.40101624, 0.00000000, 0.00000000, 0.00000000, 110.11132812, -8.05197239, 72.32032776, 1.00000000, 0.00000000, 0.00000000, 0.00000000, -0.42947024, 0.02857444, -0.17218888, 0.00000000, 0.00000000, 0.00000000, 0.00000000
1, 3.4500, 345, 0.17520872, -0.86115122, 0.58191717, -11.40315628, -60.48836136, -70.30221558, 0.00000000, 0.00000000, 0.00000000, 110.04058075, -7.18405676, 71.99070740, 1.00000000, 0.00000000, 0.00000000, 0.00000000, -0.30594599, -0.07005565, -0.24170661, 0.00000000, 0.00000000, 0.00000000, 0.00000000
1, 3.4600, 346, 0.23126596, -0.84610128, 0.63500947, -11.98828220, -81.33940125, -63.10373306, 0.00000000, 0.00000000, 0.00000000, 109.98551941, -6.31279707, 71.43849945, 1.00000000, 0.00000000, 0.00000000, 0.00000000, -0.34680945, -0.08728132, -0.29526138, 0.00000000, 0.00000000, 0.00000000, 0.00000000
1, 3.4700, 347, 0.21095239, -0.87695652, 0.57398295, -6.30744886, -69.92273712, -56.89646530, 0.00000000, 0.00000000, 0.00000000, 109.97052765, -5.53918314, 70.97322083, 1.00000000, 0.00000000, 0.00000000, 0.00000000, -0.31235316, -0.05803661, -0.23414181, 0.00000000, 0.00000000, 0.00000000, 0.00000000
1, 3.4800, 348, 0.06609079, -0.90781516, 0.46344912, -1.74289405, -57.00979614, -48.33050919, 0.00000000, 0.00000000, 0.00000000, 110.02240753, -4.83784533, 70.54725647, 1.00000000, 0.00000000, 0.00000000, 0.00000000, -0.15524599, -0.02819654, -0.12297680, 0.00000000, 0.00000000, 0.00000000, 0.00000000
1, 3.4900, 349, 0.04891837, -0.90951955, 0.42254785, -3.24549937, -58.92589569, -42.41998672, 0.00000000, 0.00000000, 0.00000000, 110.02230072, -4.23752832, 70.13758087, 1.00000000, 0.00000000, 0.00000000, 0.00000000, -0.12667975, -0.02718878, -0.08119433, 0.00000000, 0.00000000, 0.00000000, 0.00000000
1, 3.5000, 350, 0.07653021, -0.95047534, 0.39278018, -2.59902239, -63.39171219, -38.89322662, 0.00000000, 0.00000000, 0.00000000, 110.02815247, -3.65501642, 69.67410278, 1.00000000, 0.00000000, 0.00000000, 0.00000000, -0.14408281, 0.01309723, -0.05109197, 0.00000000, 0.00000000, 0.00000000, 0.00000000
1, 3.5100, 351, 0.08200309, -0.97161740, 0.40832809, -7.27737713, -64.44375610, -38.32339096, 0.00000000, 0.00000000, 0.00000000, 109.98329926, -3.07440042, 69.19888306, 1.00000000, 0.00000000, 0.00000000, 0.00000000, -0.13941854, 0.03350393, -0.06680422, 0.00000000, 0.00000000, 0.00000000, 0.00000000
1, 3.5200, 352, 0.16368264, -0.96759826, 0.42426372, -7.75895023, -59.86263657, -39.50592422, 0.00000000, 0.00000000, 0.00000000, 109.92659760, -2.49877048, 68.77047729, 1.00000000, 0.00000000, 0.00000000, 0.00000000, -0.21100673, 0.02863456, -0.08352947, 0.00000000, 0.00000000, 0.00000000, 0.00000000
1, 3.5300, 353, 0.14709394, -0.95284498, 0.44282636, -1.71634996, -42.56311035, -39.76092148, 0.00000000, 0.00000000, 0.00000000, 109.94085693, -1.88337135, 68.40592194, 1.00000000, 0.00000000, 0.00000000, 0.00000000, -0.18452448, 0.01335889, -0.10230435, 0.00000000, 0.00000000, 0.00000000, 0.00000000
1, 3.5400, 354, 0.14474030, -0.94190520, 0.30847958, 2.25861263, -42.18532944, -38.63267517, 0.00000000, 0.00000000, 0.00000000, 109.97090912, -1.37626016, 68.14114380, 1.00000000, 0.00000000, 0.00000000, 0.00000000, -0.17211530, 0.00232527, 0.03274454, 0.00000000, 0.00000000, 0.00000000, 0.00000000
1, 3.5500, 355, 0.20518254, -1.00267291, 0.24438168, 1.70980418, -49.44936752, -38.48410416, 0.00000000, 0.00000000, 0.00000000, 109.99445343, -0.84560829, 67.80786896, 1.00000000, 0.00000000, 0.00000000, 0.00000000, -0.22343244, 0.06304736, 0.09732565, 0.00000000, 0.00000000, 0.00000000, 0.00000000
1, 3.5600, 356, 0.20852138, -1.06775987, 0.19346073, -0.24871001, -53.02946854, -39.49979782, 0.00000000, 0.00000000, 0.00000000, 109.99555206, -0.29305404, 67.44464111, 1.00000000, 0.00000000, 0.00000000, 0.00000000, -0.21730441, 0.12811358, 0.14856327, 0.00000000, 0.00000000, 0.00000000, 0.00000000
1, 3.5700, 357, 0.17238456, -1.10006392, 0.23036450, -1.77368224, -55.51044464, -41.57527924, 0.00000000, 0.00000000, 0.00000000, 109.97785187, 0.28736955, 67.06504059, 1.00000000, 0.00000000, 0.00000000, 0.00000000, -0.17118041, 0.16026084, 0.11133824, 0.00000000, 0.00000000, 0.00000000, 0.00000000
1, 3.5800, 358, 0.04401294, -1.09955776, 0.27906141, 1.30732739, -51.90026093, -41.41293716, 0.00000000, 0.00000000, 0.00000000, 109.94432831, 0.86336547, 66.69541931, 1.00000000, 0.00000000, 0.00000000, 0.00000000, -0.03272863, 0.15979084, 0.06255665, 0.00000000, 0.00000000, 0.00000000, 0.00000000
1, 3.5900, 359, 0.09805675, -1.01954818, 0.32318923, -4.46673632, -45.93245316, -40.48444366, 0.00000000, 0.00000000, 0.00000000, 109.89390564, 1.40048909, 66.40145874, 1.00000000, 0.00000000, 0.00000000, 0.00000000, -0.07707330, 0.07954267, 0.01731395, 0.00000000, 0.00000000, 0.00000000, 0.00000000
1, 3.6000, 360, 0.00121560, -0.99746811, 0.33946508, -0.64182860, -33.04597473, -42.04175186, 0.00000000, 0.00000000, 0.00000000, 109.88269043, 1.90825391, 66.23369598, 1.00000000, 0.00000000, 0.00000000, 0.00000000, 0.02874723, 0.05754618, 0.00059798, 0.00000000, 0.00000000, 0.00000000, 0.00000000
1, 3.6100, 361, 0.03855704, -0.94910455, 0.38987002, -5.37088060, -39.04333115, -47.12932968, 0.00000000, 0.00000000, 0.00000000, 109.82100677, 2.48411107, 66.02630615, 1.00000000, 0.00000000, 0.00000000, 0.00000000, 0.00090129, 0.00920108, -0.05072955, 0.00000000, 0.00000000, 0.00000000, 0.00000000
1, 3.6200, 362, 0.05361183, -0.98961073, 0.43078268, -0.68254000, -43.86681366, -50.62091827, 0.00000000, 0.00000000, 0.00000000, 109.80242157, 3.10904408, 65.78489685, 1.00000000, 0.00000000, 0.00000000, 0.00000000, -0.00349107, 0.04997683, -0.09230552, 0.00000000, 0.00000000, 0.00000000, 0.00000000
1, 3.6300, 363, 0.05049035, -1.02995324, 0.40096337, -4.68322563, -42.65778351, -53.30506516, 0.00000000, 0.00000000, 0.00000000, 109.75189209, 3.75836539, 65.56372833, 1.00000000, 0.00000000, 0.00000000, 0.00000000, 0.01076855, 0.09068641, -0.06330245, 0.00000000, 0.00000000, 0.00000000, 0.00000000
1, 3.6400, 364, 0.08904107, -1.01525831, 0.45929235, -5.86768866, -42.54021454, -53.65666199, 0.00000000, 0.00000000, 0.00000000, 109.67752075, 4.40698481, 65.34370422, 1.00000000, 0.00000000, 0.00000000, 0.00000000, -0.01645548, 0.07631169, -0.12298848, 0.00000000, 0.00000000, 0.00000000, 0.00000000
1, 3.6500, 365, -0.03104014, -1.00095856, 0.48882154, -7.39975262, -54.82963943, -54.65775299, 0.00000000, 0.00000000, 0.00000000, 109.57565308, 5.10595942, 65.00970459, 1.00000000, 0.00000000, 0.00000000, 0.00000000, 0.11535607, 0.06235692, -0.15429875, 0.00000000, 0.00000000, 0.00000000, 0.00000000
1, 3.6600, 366, 0.03557734, -0.97603154, 0.55247897, -8.70072842, -61.31727982, -56.43323898, 0.00000000, 0.00000000, 0.00000000, 109.45141602, 5.84271002, 64.61849213, 1.00000000, 0.00000000, 0.00000000, 0.00000000, 0.06139182, 0.03783742, -0.22025086, 0.00000000, 0.00000000, 0.00000000, 0.00000000
1, 3.6700, 367, -0.04056430, -1.08819413, 0.47684637, -10.99518967, -67.33396149, -62.14580917, 0.00000000, 0.00000000, 0.00000000, 109.29443359, 6.65233421, 64.18685150, 1.00000000, 0.00000000, 0.00000000, 0.00000000, 0.15100661, 0.15048981, -0.14745843, 0.00000000, 0.00000000, 0.00000000, 0.00000000
1, 3.6800, 368, -0.15693368, -1.18953049, 0.47461325, -17.01107216, -69.03547668, -72.13674927, 0.00000000, 0.00000000, 0.00000000, 109.07646179, 7.50954628, 63.82608414, 1.00000000, 0.00000000, 0.00000000, 0.00000000, 0.28227842, 0.25241441, -0.14890900, 0.00000000, 0.00000000, 0.00000000, 0.00000000
1, 3.6900, 369, -0.16921340, -1.25938010, 0.43985063, -27.16588402, -64.09264374, -82.26118469, 0.00000000, 0.00000000, 0.00000000, 108.75721741, 8.49559879, 63.48324966, 1.00000000, 0.00000000, 0.00000000, 0.00000000, 0.31043938, 0.32271004, -0.11941601, 0.00000000, 0.00000000, 0.00000000, 0.00000000
1, 3.7000, 370, -0.24000750, -1.28348732, 0.50374436, -34.35826492, -59.55572510, -94.43906403, 0.00000000, 0.00000000, 0.00000000, 108.37185669, 9.58051682, 63.21601105, 1.00000000, 0.00000000, 0.00000000, 0.00000000, 0.39932537, 0.34737802, -0.19023901, 0.00000000, 0.00000000, 0.00000000, 0.00000000
1, 3.7100, 371, -0.17994985, -1.25387990, 0.53888977, -42.73663330, -55.31275940, -104.82099152, 0.00000000, 0.00000000, 0.00000000, 107.90872955, 10.74884319, 63.01361084, 1.00000000, 0.00000000, 0.00000000, 0.00000000, 0.35879236, 0.31865025, -0.23340228, 0.00000000, 0.00000000, 0.00000000, 0.00000000
1, 3.7200, 372, -0.16917068, -1.28269076, 0.53079838, -46.18742752, -59.97555923, -115.54321289, 0.00000000, 0.00000000, 0.00000000, 107.40245819, 12.03181839, 62.78818130, 1.00000000, 0.00000000, 0.00000000, 0.00000000, 0.36922300, 0.34878743, -0.23455954, 0.00000000, 0.00000000, 0.00000000, 0.00000000
1, 3.7300, 373, -0.13800932, -1.35966372, 0.51596445, -52.76519775, -63.04308319, -127.13580322, 0.00000000, 0.00000000, 0.00000000, 106.83103943, 13.39625072, 62.59791183, 1.00000000, 0.00000000, 0.00000000, 0.00000000, 0.36104172, 0.42772067, -0.23015682, 0.00000000, 0.00000000, 0.00000000, 0.00000000
1, 3.7400, 374, -0.09865703, -1.44296932, 0.50994182, -58.42227554, -71.62523651, -134.86737061, 0.00000000, 0.00000000, 0.00000000, 106.17015076, 14.89276791, 62.28479004, 1.00000000, 0.00000000, 0.00000000, 0.00000000, 0.34608611, 0.51363599, -0.23598132, 0.00000000, 0.00000000, 0.00000000, 0.00000000
1, 3.7500, 375, -0.18524133, -1.46719742, 0.41273975, -65.44442749, -82.38113403, -138.74053955, 0.00000000, 0.00000000, 0.00000000, 105.39902496, 16.45188713, 61.85340118, 1.00000000, 0.00000000, 0.00000000, 0.00000000, 0.45856038, 0.54116488, -0.15256926, 0.00000000, 0.00000000, 0.00000000, 0.00000000
1, 3.7600, 376, -0.29186493, -1.46694791, 0.40679422, -68.42226410, -85.84918976, -145.70964050, 0.00000000, 0.00000000, 0.00000000, 104.57420349, 18.08146095, 61.37963867, 1.00000000, 0.00000000, 0.00000000, 0.00000000, 0.59196639, 0.54511464, -0.16167518, 0.00000000, 0.00000000, 0.00000000, 0.00000000
1, 3.7700, 377, -0.48107708, -1.46432841, 0.38380361, -74.03543854, -86.61849976, -155.18704224, 0.00000000, 0.00000000, 0.00000000, 103.67563629, 19.79784966, 60.89204407, 1.00000000, 0.00000000, 0.00000000, 0.00000000, 0.80905277, 0.54782975, -0.15495095, 0.00000000, 0.00000000, 0.00000000, 0.00000000
1, 3.7800, 378, -0.61251926, -1.42923272, 0.42785457, -80.74848175, -84.61851501, -165.23081970, 0.00000000, 0.00000000, 0.00000000, 102.70710754, 21.54264450, 60.48464584, 1.00000000, 0.00000000, 0.00000000, 0.00000000, 0.96931612, 0.51930773, -0.21657243, 0.00000000, 0.00000000, 0.00000000, 0.00000000
1, 3.7900, 379, -0.65839934, -1.46773672, 0.47026098, -86.19073486, -86.51900482, -172.60627747, 0.00000000, 0.00000000, 0.00000000, 101.64572144, 23.41230583, 59.96352005, 1.00000000, 0.00000000, 0.00000000, 0.00000000, 1.04438663, 0.56563443, -0.27760160, 0.00000000, 0.00000000, 0.00000000, 0.00000000
1, 3.8000, 380, -0.65283406, -1.56010044, 0.48080707, -91.16489410, -99.24617004, -176.37022400, 0.00000000, 0.00000000, 0.00000000, 100.44522858, 25.33323097, 59.26516342, 1.00000000, 0.00000000, 0.00000000, 0.00000000, 1.06925869, 0.66742694, -0.30874038, 0.00000000, 0.00000000, 0.00000000, 0.00000000
1, 3.8100, 381, -0.80409491, -1.70774567, 0.57963043, -90.78978729, -119.93834686, -174.93884277, 0.00000000, 0.00000000, 0.00000000, 99.09916687, 27.26052475, 58.27810287, 1.00000000, 0.00000000, 0.00000000, 0.00000000, 1.25090241, 0.82577151, -0.43009469, 0.00000000, 0.00000000, 0.00000000, 0.00000000
1, 3.8200, 382, -0.79533029, -1.71630740, 0.62782776, -95.91421509, -152.54797363, -165.23356628, 0.00000000, 0.00000000, 0.00000000, 97.45751953, 29.11503601, 56.83568954, 1.00000000, 0.00000000, 0.00000000, 0.00000000, 1.27136421, 0.84572923, -0.50392175, 0.00000000, 0.00000000, 0.00000000, 0.00000000
1, 3.8300, 383, -0.64022326, -1.67891443, 0.67429119, -102.16957092, -181.92169189, -158.64363098, 0.00000000, 0.00000000, 0.00000000, 95.51076508, 30.85984612, 55.00969315, 1.00000000, 0.00000000, 0.00000000, 0.00000000, 1.14355159, 0.82005274, -0.58007812, 0.00000000, 0.00000000, 0.00000000, 0.00000000
1, 3.8400, 384, -0.47491425, -1.75615394, 0.68572998, -109.03024292, -198.16215515, -163.31842041, 0.00000000, 0.00000000, 0.00000000, 93.27475739, 32.64017105, 52.83346558, 1.00000000, 0.00000000, 0.00000000, 0.00000000, 1.00439882, 0.91014278, -0.62451434, 0.00000000, 0.00000000, 0.00000000, 0.00000000
1, 3.8500, 385, -0.65261561, -1.91928589, 0.85048944, -113.45690918, -214.91674805, -166.73410034, 0.00000000, 0.00000000, 0.00000000, 90.75634766, 34.38248825, 50.32809830, 1.00000000, 0.00000000, 0.00000000, 0.00000000, 1.20797420, 1.08815861, -0.82547891, 0.00000000, 0.00000000, 0.00000000, 0.00000000
1, 3.8600, 386, -0.72416413, -1.98280120, 1.01497591, -131.18937683, -188.29411316, -161.11094666, 0.00000000, 0.00000000, 0.00000000, 88.10685730, 35.97647858, 48.00591660, 1.00000000, 0.00000000, 0.00000000, 0.00000000, 1.30334306, 1.16780400, -1.02766931, 0.00000000, 0.00000000, 0.00000000, 0.00000000
1, 3.8700, 387, -0.63175470, -1.99929190, 1.04230511, -148.14132690, -133.60192871, -150.98411560, 0.00000000, 0.00000000, 0.00000000, 85.57025146, 37.41172409, 46.23885727, 1.00000000, 0.00000000, 0.00000000, 0.00000000, 1.23192763, 1.20099735, -1.09103823, 0.00000000, 0.00000000, 0.00000000, 0.00000000
1, 3.8800, 388, -0.51324987, -1.96801698, 0.89486557, -159.17398071, -85.60620117, -150.82572937, 0.00000000, 0.00000000, 0.00000000, 83.22328949, 38.80179596, 45.02792740, 1.00000000, 0.00000000, 0.00000000, 0.00000000, 1.13275886, 1.18728304, -0.97571814, 0.00000000, 0.00000000, 0.00000000, 0.00000000
1, 3.8900, 389, -0.06550740, -1.56882334, 0.81429428, -164.95401001, -33.67220688, -169.61926270, 0.00000000, 0.00000000, 0.00000000, 81.10646820, 40.43694687, 44.29393768, 1.00000000, 0.00000000, 0.00000000, 0.00000000, 0.70573056, 0.80841494, -0.92277300, 0.00000000, 0.00000000, 0.00000000, 0.00000000
1, 3.9000, 390, 0.49260816, -1.03780520, 0.82793522, -89.32476044, -26.83312607, -168.87187195, 0.00000000, 0.00000000, 0.00000000, 79.73227692, 42.05640030, 43.56574249, 1.00000000, 0.00000000, 0.00000000, 0.00000000, 0.16950959, 0.29939657, -0.95548445, 0.00000000, 0.00000000, 0.00000000, 0.00000000
1, 3.9100, 391, 0.84278440, -0.80562228, 1.05622327, -14.41717911, -15.94442749, -148.67886353, 0.00000000, 0.00000000, 0.00000000, 79.19150543, 43.48878098, 42.98060608, 1.00000000, 0.00000000, 0.00000000, 0.00000000, -0.16109683, 0.08667505, -1.19175100, 0.00000000, 0.00000000, 0.00000000, 0.00000000
1, 3.9200, 392, -0.10474122, -1.03724098, 1.07755566, 21.91320610, 27.94009590, -95.26874542, 0.00000000, 0.00000000, 0.00000000, 79.50616455, 44.47654724, 43.11701965, 1.00000000, 0.00000000, 0.00000000, 0.00000000, 0.80118310, 0.33204031, -1.21036339, 0.00000000, 0.00000000, 0.00000000, 0.00000000
