SensorId, TimeStamp (s), FrameNumber, AccX (g), AccY (g), AccZ (g), GyroX (deg/s), GyroY (deg/s), GyroZ (deg/s), MagX (uT), MagY (uT), MagZ (uT), EulerX (deg), EulerY (deg), EulerZ (deg), QuatW, QuatX, QuatY, QuatZ, LinAccX (g), LinAccY (g), LinAccZ (g), Pressure (kPa), Altitude (m), Temperature (degC), HeaveMotion (m)
1, 0.0000, 0, -3.59155416, -2.20221806, 0.26872107, 60.49864578, 189.31788635, -108.66244507, 0.00000000, 0.00000000, 0.00000000, 105.43659210, -29.82065392, 111.95497131, 1.00000000, 0.00000000, 0.00000000, 0.00000000, 3.09157419, 1.36800551, -0.03612760, 0.00000000, 0.00000000, 0.00000000, 0.00000000
1, 0.0100, 1, 1.16187191, -1.91627645, -0.96274406, -7.38322878, 70.58323669, -92.71219635, 0.00000000, 0.00000000, 0.00000000, 104.84188843, -29.11001587, 113.01572418, 1.00000000, 0.00000000, 0.00000000, 0.00000000, -1.65328574, 1.07565975, 1.19045305, 0.00000000, 0.00000000, 0.00000000, 0.00000000
1, 0.0200, 2, 3.80427265, -2.59405899, -1.28799427, -0.29176682, 125.31260681, -212.56547546, 0.00000000, 0.00000000, 0.00000000, 103.89358521, -27.35385513, 115.00008392, 1.00000000, 0.00000000, 0.00000000, 0.00000000, -4.27533007, 1.73854828, 1.50271845, 0.00000000, 0.00000000, 0.00000000, 0.00000000
1, 0.0300, 3, 1.28566504, -2.23949027, -0.11200973, 6.81997061, -83.60765076, -200.53874207, 0.00000000, 0.00000000, 0.00000000, 104.12127686, -25.20535851, 114.63906860, 1.00000000, 0.00000000, 0.00000000, 0.00000000, -1.72365117, 1.36761880, 0.33087516, 0.00000000, 0.00000000, 0.00000000, 0.00000000
1, 0.0400, 4, -0.40661362, -1.04234350, -0.20314303, -7.97183418, -49.23746109, -168.19151306, 0.00000000, 0.00000000, 0.00000000, 104.07282257, -23.45420837, 114.56332397, 1.00000000, 0.00000000, 0.00000000, 0.00000000, -0.00148046, 0.15676785, 0.42482859, 0.00000000, 0.00000000, 0.00000000, 0.00000000
1, 0.0500, 5, 0.32180679, -1.18894649, -0.12981711, 51.47848129, -35.09398651, -136.23901367, 0.00000000, 0.00000000, 0.00000000, 104.58998871, -22.04759026, 114.55862427, 1.00000000, 0.00000000, 0.00000000, 0.00000000, -0.70510852, 0.29419625, 0.35883939, 0.00000000, 0.00000000, 0.00000000, 0.00000000
1, 0.0600, 6, 0.26952073, -1.19324040, 0.25050327, 56.05306625, -26.18773460, -125.09553528, 0.00000000, 0.00000000, 0.00000000, 105.12360382, -20.77123070, 114.63172150, 1.00000000, 0.00000000, 0.00000000, 0.00000000, -0.63203371, 0.29277581, -0.01028886, 0.00000000, 0.00000000, 0.00000000, 0.00000000
1, 0.0700, 7, -0.27437860, -0.90254718, 0.48651990, 46.45666885, -19.43662071, -127.27836609, 0.00000000, 0.00000000, 0.00000000, 105.60024261, -19.48037529, 114.75164032, 1.00000000, 0.00000000, 0.00000000, 0.00000000, -0.06703646, -0.00359997, -0.23694268, 0.00000000, 0.00000000, 0.00000000, 0.00000000
1, 0.0800, 8, 0.05926340, -0.74647921, 1.04494202, 52.15036774, 8.18145370, -125.81502533, 0.00000000, 0.00000000, 0.00000000, 105.97866821, -18.29227829, 115.19644165, 1.00000000, 0.00000000, 0.00000000, 0.00000000, -0.38033611, -0.16457939, -0.78639060, 0.00000000, 0.00000000, 0.00000000, 0.00000000
1, 0.0900, 9, 0.71094900, -0.74714726, 1.20292580, 70.52090454, 43.70688629, -120.03880310, 0.00000000, 0.00000000, 0.00000000, 106.44144440, -17.26126671, 115.98902893, 1.00000000, 0.00000000, 0.00000000, 0.00000000, -1.01404512, -0.16768387, -0.93611670, 0.00000000, 0.00000000, 0.00000000, 0.00000000
1, 0.1000, 10, 0.31626475, -1.04284406, 0.95163745, 38.24056625, 6.05737877, -124.95233917, 0.00000000, 0.00000000, 0.00000000, 106.69929504, -16.08101654, 116.42221069, 1.00000000, 0.00000000, 0.00000000, 0.00000000, -0.60086352, 0.12427823, -0.67740309, 0.00000000, 0.00000000, 0.00000000, 0.00000000
1, 0.1100, 11, 0.40970382, -1.08705771, 0.60161406, 19.49425125, -20.39070892, -111.66535187, 0.00000000, 0.00000000, 0.00000000, 106.85807037, -14.95293999, 116.55445862, 1.00000000, 0.00000000, 0.00000000, 0.00000000, -0.67457694, 0.16396946, -0.32282943, 0.00000000, 0.00000000, 0.00000000, 0.00000000
1, 0.1200, 12, 0.56141108, -0.80891967, 0.44293544, -0.21571940, -81.00065613, -75.95040894, 0.00000000, 0.00000000, 0.00000000, 107.06380463, -13.82042217, 116.07798767, 1.00000000, 0.00000000, 0.00000000, 0.00000000, -0.80835140, -0.11798474, -0.16038436, 0.00000000, 0.00000000, 0.00000000, 0.00000000
1, 0.1300, 13, 0.21154264, -0.73304552, 0.40914154, 5.50455379, -128.95315552, -52.66440201, 0.00000000, 0.00000000, 0.00000000, 107.37403870, -12.93566036, 114.97206879, 1.00000000, 0.00000000, 0.00000000, 0.00000000, -0.44103715, -0.19650641, -0.12062117, 0.00000000, 0.00000000, 0.00000000, 0.00000000
1, 0.1400, 14, -0.00707275, -0.91262698, 0.34211758, 3.38363600, -128.19450378, -46.81977844, 0.00000000, 0.00000000, 0.00000000, 107.64845276, -12.10350037, 113.86402130, 1.00000000, 0.00000000, 0.00000000, 0.00000000, -0.20774990, -0.01854993, -0.04759558, 0.00000000, 0.00000000, 0.00000000, 0.00000000
1, 0.1500, 15, -0.12425474, -1.10718310, 0.24755076, 11.08050251, -85.26530457, -50.34518814, 0.00000000, 0.00000000, 0.00000000, 107.89625549, -11.36386013, 113.19166565, 1.00000000, 0.00000000, 0.00000000, 0.00000000, -0.07746398, 0.17467338, 0.05198417, 0.00000000, 0.00000000, 0.00000000, 0.00000000
1, 0.1600, 16, -0.21674065, -1.21064651, 0.20914313, 8.30028820, -45.88077545, -56.96899796, 0.00000000, 0.00000000, 0.00000000, 108.03050232, -10.68049526, 112.92600250, 1.00000000, 0.00000000, 0.00000000, 0.00000000, 0.02713285, 0.27678519, 0.09407463, 0.00000000, 0.00000000, 0.00000000, 0.00000000
1, 0.1700, 17, -0.22555403, -1.13863814, 0.26884308, 12.85524845, -1.36467242, -64.39205170, 0.00000000, 0.00000000, 0.00000000, 108.11054230, -10.04334927, 113.13172150, 1.00000000, 0.00000000, 0.00000000, 0.00000000, 0.04698029, 0.20333068, 0.03660969, 0.00000000, 0.00000000, 0.00000000, 0.00000000
1, 0.1800, 18, -0.04246076, -1.00628185, 0.34691936, 13.49045277, 28.04449463, -70.47530365, 0.00000000, 0.00000000, 0.00000000, 108.16205597, -9.46097279, 113.62475586, 1.00000000, 0.00000000, 0.00000000, 0.00000000, -0.12566189, 0.06955852, -0.03987535, 0.00000000, 0.00000000, 0.00000000, 0.00000000
1, 0.1900, 19, -0.01701379, -0.89549994, 0.40377122, 7.87932110, 26.51172447, -68.56977844, 0.00000000, 0.00000000, 0.00000000, 108.16557312, -8.89211750, 114.09648132, 1.00000000, 0.00000000, 0.00000000, 0.00000000, -0.14117624, -0.04268882, -0.09592329, 0.00000000, 0.00000000, 0.00000000, 0.00000000
1, 0.2000, 20, 0.10711046, -0.79358125, 0.42874989, 5.63270378, 16.09556580, -59.70551682, 0.00000000, 0.00000000, 0.00000000, 108.17033386, -8.37500191, 114.43944550, 1.00000000, 0.00000000, 0.00000000, 0.00000000, -0.25603345, -0.14598255, -0.12047134, 0.00000000, 0.00000000, 0.00000000, 0.00000000
1, 0.2100, 21, 0.32507998, -0.75872076, 0.47127017, 7.53929853, -0.96953654, -50.18300629, 0.00000000, 0.00000000, 0.00000000, 108.22445679, -7.89521551, 114.58843994, 1.00000000, 0.00000000, 0.00000000, 0.00000000, -0.46558714, -0.18182591, -0.16203839, 0.00000000, 0.00000000, 0.00000000, 0.00000000
1, 0.2200, 22, 0.29864642, -0.83889937, 0.43745226, 6.66893291, -31.15406799, -45.15596771, 0.00000000, 0.00000000, 0.00000000, 108.38262939, -7.17932463, 114.52037811, 1.00000000, 0.00000000, 0.00000000, 0.00000000, -0.42954755, -0.10236427, -0.12620907, 0.00000000, 0.00000000, 0.00000000, 0.00000000
1, 0.2300, 23, 0.21941376, -0.92170894, 0.38083199, 5.21335888, -45.66846848, -39.98952866, 0.00000000, 0.00000000, 0.00000000, 108.47193146, -6.65556192, 114.21128845, 1.00000000, 0.00000000, 0.00000000, 0.00000000, -0.33867484, -0.02017714, -0.06679245, 0.00000000, 0.00000000, 0.00000000, 0.00000000
1, 0.2400, 24, 0.12354393, -0.97258747, 0.33732903, 5.51233149, -49.86729431, -35.26541901, 0.00000000, 0.00000000, 0.00000000, 108.56756592, -6.16279268, 113.84815216, 1.00000000, 0.00000000, 0.00000000, 0.00000000, -0.23405457, 0.03023767, -0.02148348, 0.00000000, 0.00000000, 0.00000000, 0.00000000
1, 0.2500, 25, 0.17235510, -0.99697697, 0.31140202, 9.05100632, -47.84841156, -33.53501892, 0.00000000, 0.00000000, 0.00000000, 108.69403076, -5.69216585, 113.50000763, 1.00000000, 0.00000000, 0.00000000, 0.00000000, -0.27462405, 0.05442992, 0.00662393, 0.00000000, 0.00000000, 0.00000000, 0.00000000
1, 0.2600, 26, 0.07956794, -1.04400849, 0.26234469, 9.41738415, -47.87826920, -34.48480606, 0.00000000, 0.00000000, 0.00000000, 108.82091522, -5.21168184, 113.15599060, 1.00000000, 0.00000000, 0.00000000, 0.00000000, -0.17350623, 0.10139865, 0.05805548, 0.00000000, 0.00000000, 0.00000000, 0.00000000
1, 0.2700, 27, 0.11179765, -1.02625978, 0.24623686, 13.28534985, -39.71124268, -34.15587997, 0.00000000, 0.00000000, 0.00000000, 108.91713715, -4.64410496, 112.94317627, 1.00000000, 0.00000000, 0.00000000, 0.00000000, -0.19721259, 0.08363707, 0.07649788, 0.00000000, 0.00000000, 0.00000000, 0.00000000
1, 0.2800, 28, 0.09862401, -1.07990885, 0.19383156, 14.37117577, -44.59004974, -34.89165115, 0.00000000, 0.00000000, 0.00000000, 109.08454132, -4.16900110, 112.63425446, 1.00000000, 0.00000000, 0.00000000, 0.00000000, -0.17446139, 0.13724151, 0.13116208, 0.00000000, 0.00000000, 0.00000000, 0.00000000
1, 0.2900, 29, -0.00251157, -1.09659362, 0.27167019, 15.69887257, -47.50410461, -33.66482162, 0.00000000, 0.00000000, 0.00000000, 109.26476288, -3.69501185, 112.29532623, 1.00000000, 0.00000000, 0.00000000, 0.00000000, -0.06502655, 0.15435080, 0.05637092, 0.00000000, 0.00000000, 0.00000000, 0.00000000
1, 0.3000, 30, 0.02985625, -1.11429775, 0.32351783, 9.39041328, -49.08238602, -37.66601944, 0.00000000, 0.00000000, 0.00000000, 109.37904358, -3.17708564, 111.95630646, 1.00000000, 0.00000000, 0.00000000, 0.00000000, -0.08875446, 0.17243145, 0.00725681, 0.00000000, 0.00000000, 0.00000000, 0.00000000
1, 0.3100, 31, -0.02388908, -1.04512370, 0.30400273, 2.90561461, -46.77557373, -43.82415009, 0.00000000, 0.00000000, 0.00000000, 109.42311859, -2.60837030, 111.66027069, 1.00000000, 0.00000000, 0.00000000, 0.00000000, -0.02543497, 0.10306914, 0.02779888, 0.00000000, 0.00000000, 0.00000000, 0.00000000
1, 0.3200, 32, -0.10100326, -0.94870383, 0.26491976, 8.86873722, -36.48839188, -54.01286316, 0.00000000, 0.00000000, 0.00000000, 109.49473572, -2.03541875, 111.46698761, 1.00000000, 0.00000000, 0.00000000, 0.00000000, 0.06204284, 0.00662807, 0.06819788, 0.00000000, 0.00000000, 0.00000000, 0.00000000
1, 0.3300, 33, -0.11565816, -0.91870981, 0.37483263, 13.33076000, -21.13869286, -60.43120193, 0.00000000, 0.00000000, 0.00000000, 109.62805176, -1.39523518, 111.47011566, 1.00000000, 0.00000000, 0.00000000, 0.00000000, 0.08712135, -0.02310312, -0.03992379, 0.00000000, 0.00000000, 0.00000000, 0.00000000
1, 0.3400, 34, 0.13505116, -0.94864947, 0.38722330, 14.85484886, -18.54354858, -65.77398682, 0.00000000, 0.00000000, 0.00000000, 109.77571869, -0.71348131, 111.51731873, 1.00000000, 0.00000000, 0.00000000, 0.00000000, -0.15203828, 0.00744750, -0.04982375, 0.00000000, 0.00000000, 0.00000000, 0.00000000
1, 0.3500, 35, 0.11068124, -1.01320910, 0.37574148, 14.42029095, -21.53416634, -67.53634644, 0.00000000, 0.00000000, 0.00000000, 109.91976929, -0.00511923, 111.54404449, 1.00000000, 0.00000000, 0.00000000, 0.00000000, -0.11539814, 0.07272062, -0.03596699, 0.00000000, 0.00000000, 0.00000000, 0.00000000
1, 0.3600, 36, 0.13189521, -1.05417645, 0.39665991, 15.22184181, -20.92331886, -67.92395020, 0.00000000, 0.00000000, 0.00000000, 110.07214355, 0.70472950, 111.57968903, 1.00000000, 0.00000000, 0.00000000, 0.00000000, -0.12425473, 0.11461210, -0.05439126, 0.00000000, 0.00000000, 0.00000000, 0.00000000
1, 0.3700, 37, 0.17596738, -1.07450962, 0.38210556, 13.75976467, -33.62557983, -66.70835876, 0.00000000, 0.00000000, 0.00000000, 110.20063782, 1.46617329, 111.50257874, 1.00000000, 0.00000000, 0.00000000, 0.00000000, -0.15558860, 0.13596095, -0.03758189, 0.00000000, 0.00000000, 0.00000000, 0.00000000
1, 0.3800, 38, 0.02864482, -1.04798341, 0.43571311, 11.53070736, -41.83733749, -69.77024841, 0.00000000, 0.00000000, 0.00000000, 110.31098938, 2.26558232, 111.35157013, 1.00000000, 0.00000000, 0.00000000, 0.00000000, 0.00558283, 0.11047468, -0.08946177, 0.00000000, 0.00000000, 0.00000000, 0.00000000
1, 0.3900, 39, -0.11201546, -1.03777170, 0.42205870, 7.91384840, -47.49908447, -81.48216248, 0.00000000, 0.00000000, 0.00000000, 110.38247681, 3.19472480, 111.18943787, 1.00000000, 0.00000000, 0.00000000, 0.00000000, 0.16154656, 0.10141163, -0.07456023, 0.00000000, 0.00000000, 0.00000000, 0.00000000
1, 0.4000, 40, -0.29445285, -1.02263975, 0.46532759, 5.25419903, -41.16796875, -92.83691406, 0.00000000, 0.00000000, 0.00000000, 110.43115997, 4.20836544, 111.12713623, 1.00000000, 0.00000000, 0.00000000, 0.00000000, 0.36109161, 0.08751397, -0.11737040, 0.00000000, 0.00000000, 0.00000000, 0.00000000
1, 0.4100, 41, -0.19663674, -1.05671299, 0.47029540, 4.47213221, -35.77294540, -108.98545837, 0.00000000, 0.00000000, 0.00000000, 110.47984314, 5.35449839, 111.17313385, 1.00000000, 0.00000000, 0.00000000, 0.00000000, 0.28224751, 0.12329371, -0.12191807, 0.00000000, 0.00000000, 0.00000000, 0.00000000
1, 0.4200, 42, -0.31101310, -1.13881159, 0.43980724, 1.60173380, -30.96461678, -126.06031799, 0.00000000, 0.00000000, 0.00000000, 110.51580048, 6.56512928, 111.29159546, 1.00000000, 0.00000000, 0.00000000, 0.00000000, 0.41781271, 0.20749913, -0.09164636, 0.00000000, 0.00000000, 0.00000000, 0.00000000
1, 0.4300, 43, -0.27986631, -1.24013996, 0.48044392, -0.41791564, -23.76266289, -140.03749084, 0.00000000, 0.00000000, 0.00000000, 110.54579163, 7.95987701, 111.56239319, 1.00000000, 0.00000000, 0.00000000, 0.00000000, 0.40913421, 0.31156769, -0.13259894, 0.00000000, 0.00000000, 0.00000000, 0.00000000
1, 0.4400, 44, -0.00187890, -1.32050896, 0.44143233, -2.71360445, -23.82421303, -154.25444031, 0.00000000, 0.00000000, 0.00000000, 110.56752777, 9.48785877, 111.88469696, 1.00000000, 0.00000000, 0.00000000, 0.00000000, 0.15667149, 0.39551052, -0.09450252, 0.00000000, 0.00000000, 0.00000000, 0.00000000
1, 0.4500, 45, -0.15410486, -1.34961617, 0.44668475, -3.42445445, -29.50600815, -167.06961060, 0.00000000, 0.00000000, 0.00000000, 110.59004974, 11.15565681, 112.20082855, 1.00000000, 0.00000000, 0.00000000, 0.00000000, 0.33670485, 0.42920914, -0.10108298, 0.00000000, 0.00000000, 0.00000000, 0.00000000
1, 0.4600, 46, -0.18728060, -1.33685231, 0.43715057, -1.20844615, -29.26666069, -179.79827881, 0.00000000, 0.00000000, 0.00000000, 110.65460968, 12.94152641, 112.56816101, 1.00000000, 0.00000000, 0.00000000, 0.00000000, 0.39965370, 0.42234418, -0.09291960, 0.00000000, 0.00000000, 0.00000000, 0.00000000
1, 0.4700, 47, -0.07964071, -1.33421707, 0.36769128, 1.86385286, -35.29170227, -190.93139648, 0.00000000, 0.00000000, 0.00000000, 110.74483490, 14.81437778, 112.90255737, 1.00000000, 0.00000000, 0.00000000, 0.00000000, 0.32359570, 0.42712092, -0.02479387, 0.00000000, 0.00000000, 0.00000000, 0.00000000
1, 0.4800, 48, -0.02003123, -1.41320384, 0.36175218, 6.43429136, -36.71017838, -200.54109192, 0.00000000, 0.00000000, 0.00000000, 110.91400146, 16.81923676, 113.28710938, 1.00000000, 0.00000000, 0.00000000, 0.00000000, 0.29667121, 0.51520139, -0.01975143, 0.00000000, 0.00000000, 0.00000000, 0.00000000
1, 0.4900, 49, 0.03580737, -1.51945210, 0.31912190, 9.08036327, -45.29109573, -206.22187805, 0.00000000, 0.00000000, 0.00000000, 111.10615540, 18.90677834, 113.61959839, 1.00000000, 0.00000000, 0.00000000, 0.00000000, 0.27511355, 0.63240528, 0.02200923, 0.00000000, 0.00000000, 0.00000000, 0.00000000
1, 0.5000, 50, 0.12168438, -1.62326169, 0.29300404, 15.95926952, -68.53295898, -204.30519104, 0.00000000, 0.00000000, 0.00000000, 111.30143738, 21.05943489, 113.72563171, 1.00000000, 0.00000000, 0.00000000, 0.00000000, 0.22441489, 0.74875081, 0.04660553, 0.00000000, 0.00000000, 0.00000000, 0.00000000
1, 0.5100, 51, 0.00986544, -1.75812411, 0.20383146, 21.35910606, -98.72800446, -197.44763184, 0.00000000, 0.00000000, 0.00000000, 111.43239594, 23.25800323, 113.50968933, 1.00000000, 0.00000000, 0.00000000, 0.00000000, 0.37167674, 0.89754164, 0.13337420, 0.00000000, 0.00000000, 0.00000000, 0.00000000
1, 0.5200, 52, -0.12956783, -1.89376664, 0.04583642, 24.84840965, -132.82392883, -186.09788513, 0.00000000, 0.00000000, 0.00000000, 111.40784454, 25.45446968, 112.88289642, 1.00000000, 0.00000000, 0.00000000, 0.00000000, 0.54638189, 1.04769826, 0.28630736, 0.00000000, 0.00000000, 0.00000000, 0.00000000
1, 0.5300, 53, -0.11712123, -2.26165485, -0.00198973, 26.55954933, -176.08494568, -176.84681702, 0.00000000, 0.00000000, 0.00000000, 111.17239380, 27.74172783, 111.76614380, 1.00000000, 0.00000000, 0.00000000, 0.00000000, 0.56922823, 1.43055189, 0.32562628, 0.00000000, 0.00000000, 0.00000000, 0.00000000
1, 0.5400, 54, -0.28672001, -2.84860826, 0.24245150, 28.99066925, -212.32122803, -172.00152588, 0.00000000, 0.00000000, 0.00000000, 110.70494080, 30.10734749, 110.20317078, 1.00000000, 0.00000000, 0.00000000, 0.00000000, 0.77470994, 2.03332877, 0.06906971, 0.00000000, 0.00000000, 0.00000000, 0.00000000
1, 0.5500, 55, -0.77945924, -3.11913228, 0.55982095, 7.02292204, -222.12426758, -181.68275452, 0.00000000, 0.00000000, 0.00000000, 109.89270020, 32.58304977, 108.50395203, 1.00000000, 0.00000000, 0.00000000, 0.00000000, 1.30410671, 2.32039285, -0.26554435, 0.00000000, 0.00000000, 0.00000000, 0.00000000
1, 0.5600, 56, -1.37180519, -2.50855231, 0.98548388, -27.50057411, -172.84779358, -205.73805237, 0.00000000, 0.00000000, 0.00000000, 108.98570251, 35.09872818, 107.36621857, 1.00000000, 0.00000000, 0.00000000, 0.00000000, 1.93312836, 1.72762179, -0.71180606, 0.00000000, 0.00000000, 0.00000000, 0.00000000
1, 0.5700, 57, -1.20071840, -1.96556425, 1.20033181, -24.91644478, -100.14310455, -229.51634216, 0.00000000, 0.00000000, 0.00000000, 108.59363556, 37.56787491, 107.10343170, 1.00000000, 0.00000000, 0.00000000, 0.00000000, 1.79770327, 1.20565426, -0.94342542, 0.00000000, 0.00000000, 0.00000000, 0.00000000
1, 0.5800, 58, -0.95530909, -1.91587245, 1.31191421, -18.98256493, -72.27449036, -233.68766785, 0.00000000, 0.00000000, 0.00000000, 108.44903564, 40.01322174, 107.17672729, 1.00000000, 0.00000000, 0.00000000, 0.00000000, 1.58595324, 1.18007386, -1.06544673, 0.00000000, 0.00000000, 0.00000000, 0.00000000
1, 0.5900, 59, -1.21426034, -1.84911394, 1.42785478, -47.01813889, -33.12993240, -228.26327515, 0.00000000, 0.00000000, 0.00000000, 108.33621979, 42.28387070, 107.71737671, 1.00000000, 0.00000000, 0.00000000, 0.00000000, 1.87616396, 1.13781500, -1.19159675, 0.00000000, 0.00000000, 0.00000000, 0.00000000
1, 0.6000, 60, -1.39834297, -1.61699700, 1.12353897, -65.09830475, -12.39034653, -218.19041443, 0.00000000, 0.00000000, 0.00000000, 108.22182465, 44.39480209, 108.49727631, 1.00000000, 0.00000000, 0.00000000, 0.00000000, 2.08828115, 0.92957801, -0.89696193, 0.00000000, 0.00000000, 0.00000000, 0.00000000
1, 0.6100, 61, -1.46964121, -1.43937433, 0.53171426, -83.85025787, 74.43415833, -183.44393921, 0.00000000, 0.00000000, 0.00000000, 108.68015289, 45.89995575, 110.32302856, 1.00000000, 0.00000000, 0.00000000, 0.00000000, 2.18149376, 0.77323192, -0.30929711, 0.00000000, 0.00000000, 0.00000000, 0.00000000
1, 0.6200, 62, -0.04997311, -1.18219101, 0.03485091, -80.22692871, 99.45513916, -175.75616455, 0.00000000, 0.00000000, 0.00000000, 109.45957184, 47.22060776, 112.50582123, 1.00000000, 0.00000000, 0.00000000, 0.00000000, 0.77788311, 0.53450477, 0.19009298, 0.00000000, 0.00000000, 0.00000000, 0.00000000
1, 0.6300, 63, 2.57351136, -0.51574886, 0.68373311, -51.91045761, 47.53632355, -179.60218811, 0.00000000, 0.00000000, 0.00000000, 110.10808563, 48.75057983, 114.07939911, 1.00000000, 0.00000000, 0.00000000, 0.00000000, -1.82825184, -0.11135797, -0.45731276, 0.00000000, 0.00000000, 0.00000000, 0.00000000
1, 0.6400, 64, 1.59626567, -1.02326095, 1.04706013, 20.04653931, 5.93159103, -128.75595093, 0.00000000, 0.00000000, 0.00000000, 110.89779663, 49.93600082, 114.85633850, 1.00000000, 0.00000000, 0.00000000, 0.00000000, -0.83524287, 0.41618150, -0.81844568, 0.00000000, 0.00000000, 0.00000000, 0.00000000
1, 0.6500, 65, -0.52064008, -0.99775130, 1.54318345, -35.20030594, 35.81251907, -49.12125778, 0.00000000, 0.00000000, 0.00000000, 111.15798187, 50.26581955, 115.65331268, 1.00000000, 0.00000000, 0.00000000, 0.00000000, 1.28902030, 0.40053070, -1.31314564, 0.00000000, 0.00000000, 0.00000000, 0.00000000
1, 0.6600, 66, -1.09536982, -0.62621522, 0.45686436, -48.03452301, 51.88727570, 6.69765997, 0.00000000, 0.00000000, 0.00000000, 111.22872162, 50.01551056, 116.37072754, 1.00000000, 0.00000000, 0.00000000, 0.00000000, 1.86281872, 0.02867340, -0.22456259, 0.00000000, 0.00000000, 0.00000000, 0.00000000
1, 0.6700, 67, -0.96578515, -0.58758014, 0.23472954, -11.42222404, 28.45680428, 37.76926804, 0.00000000, 0.00000000, 0.00000000, 111.27957916, 49.12564468, 116.55668640, 1.00000000, 0.00000000, 0.00000000, 0.00000000, 1.72785151, -0.01603533, -0.00047939, 0.00000000, 0.00000000, 0.00000000, 0.00000000
1, 0.6800, 68, -0.40112740, -0.60023350, 0.06308655, -31.78762627, 42.43235397, 57.65986633, 0.00000000, 0.00000000, 0.00000000, 111.17476654, 48.43421173, 116.83940125, 1.00000000, 0.00000000, 0.00000000, 0.00000000, 1.15227926, -0.01483864, 0.17659062, 0.00000000, 0.00000000, 0.00000000, 0.00000000
1, 0.6900, 69, 0.22350603, -0.43365371, -0.31744739, -56.10454559, -18.73351288, 71.63818359, 0.00000000, 0.00000000, 0.00000000, 110.13655853, 47.82959366, 116.19814301, 1.00000000, 0.00000000, 0.00000000, 0.00000000, 0.52029806, -0.19213888, 0.55221796, 0.00000000, 0.00000000, 0.00000000, 0.00000000
1, 0.7000, 70, 0.49543989, -0.34630930, -0.32020417, -51.69163132, -36.57263565, 94.84022522, 0.00000000, 0.00000000, 0.00000000, 108.89928436, 47.05768585, 115.22026062, 1.00000000, 0.00000000, 0.00000000, 0.00000000, 0.24029709, -0.29257002, 0.54490745, 0.00000000, 0.00000000, 0.00000000, 0.00000000
1, 0.7100, 71, 0.38296336, -0.24589019, -0.05812044, -53.68080139, -49.29644394, 145.65460205, 0.00000000, 0.00000000, 0.00000000, 107.39282990, 45.82685852, 113.88278961, 1.00000000, 0.00000000, 0.00000000, 0.00000000, 0.34050700, -0.41070652, 0.27120176, 0.00000000, 0.00000000, 0.00000000, 0.00000000
1, 0.7200, 72, -0.07469610, -0.15705100, 0.06693242, -56.69508743, -54.51336288, 197.79495239, 0.00000000, 0.00000000, 0.00000000, 105.76308441, 44.01367950, 112.36074829, 1.00000000, 0.00000000, 0.00000000, 0.00000000, 0.77877134, -0.52424508, 0.13305661, 0.00000000, 0.00000000, 0.00000000, 0.00000000
1, 0.7300, 73, -0.43834287, -0.12525386, 0.18414198, -48.41295624, -26.71463585, 223.29011536, 0.00000000, 0.00000000, 0.00000000, 104.49494934, 41.92789459, 111.21270752, 1.00000000, 0.00000000, 0.00000000, 0.00000000, 1.11687255, -0.58446252, 0.00499997, 0.00000000, 0.00000000, 0.00000000, 0.00000000
1, 0.7400, 74, -0.46476966, -0.17185135, 0.26582161, -33.76651382, 16.75442886, 238.58511353, 0.00000000, 0.00000000, 0.00000000, 103.79388428, 39.57354736, 110.65827942, 1.00000000, 0.00000000, 0.00000000, 0.00000000, 1.11387491, -0.56611055, -0.08161215, 0.00000000, 0.00000000, 0.00000000, 0.00000000
1, 0.7500, 75, -0.24301741, -0.24143139, 0.28247535, -24.92549324, 49.67812347, 253.98431396, 0.00000000, 0.00000000, 0.00000000, 103.45290375, 36.98822784, 110.51159668, 1.00000000, 0.00000000, 0.00000000, 0.00000000, 0.85825557, -0.52483308, -0.09765878, 0.00000000, 0.00000000, 0.00000000, 0.00000000
1, 0.7600, 76, -0.00069599, -0.35358074, 0.21487735, -20.80772591, 64.90703583, 268.28778076, 0.00000000, 0.00000000, 0.00000000, 103.25347900, 34.22801590, 110.52645874, 1.00000000, 0.00000000, 0.00000000, 0.00000000, 0.57815397, -0.44074926, -0.02673477, 0.00000000, 0.00000000, 0.00000000, 0.00000000
1, 0.7700, 77, 0.05112793, -0.44901091, 0.18588424, -18.56756973, 62.94959259, 284.70397949, 0.00000000, 0.00000000, 0.00000000, 103.06222534, 31.27191925, 110.46981049, 1.00000000, 0.00000000, 0.00000000, 0.00000000, 0.48475191, -0.37308761, 0.00588242, 0.00000000, 0.00000000, 0.00000000, 0.00000000
1, 0.7800, 78, -0.03288562, -0.52204853, 0.17656110, -20.76043892, 62.67309189, 301.78921509, 0.00000000, 0.00000000, 0.00000000, 102.81729126, 28.19038010, 110.39487457, 1.00000000, 0.00000000, 0.00000000, 0.00000000, 0.52312899, -0.32737738, 0.01813479, 0.00000000, 0.00000000, 0.00000000, 0.00000000
1, 0.7900, 79, -0.11032015, -0.60388047, 0.13373271, -19.64223480, 67.70902252, 319.70156860, 0.00000000, 0.00000000, 0.00000000, 102.59963226, 24.92278481, 110.34742737, 1.00000000, 0.00000000, 0.00000000, 0.00000000, 0.55118090, -0.27168053, 0.06318364, 0.00000000, 0.00000000, 0.00000000, 0.00000000
1, 0.8000, 80, -0.08322261, -0.69568402, 0.13981584, -10.24108601, 74.32266998, 337.30361938, 0.00000000, 0.00000000, 0.00000000, 102.49378204, 21.46892357, 110.34015656, 1.00000000, 0.00000000, 0.00000000, 0.00000000, 0.47033733, -0.20426933, 0.06002980, 0.00000000, 0.00000000, 0.00000000, 0.00000000
1, 0.8100, 81, -0.04339014, -0.79955232, 0.16465111, 2.29347920, 88.63018799, 351.40570068, 0.00000000, 0.00000000, 0.00000000, 102.55365753, 17.84638214, 110.45027924, 1.00000000, 0.00000000, 0.00000000, 0.00000000, 0.37246558, -0.12212217, 0.04006751, 0.00000000, 0.00000000, 0.00000000, 0.00000000
1, 0.8200, 82, -0.00970920, -0.91834962, 0.21453485, 6.91065884, 94.32781982, 361.72332764, 0.00000000, 0.00000000, 0.00000000, 102.66059113, 14.08938980, 110.57826996, 1.00000000, 0.00000000, 0.00000000, 0.00000000, 0.27714720, -0.02176477, -0.00400534, 0.00000000, 0.00000000, 0.00000000, 0.00000000
1, 0.8300, 83, 0.16563447, -1.01399422, 0.20475049, 3.63474536, 99.87566376, 372.90582275, 0.00000000, 0.00000000, 0.00000000, 102.73027802, 10.23209858, 110.73669434, 1.00000000, 0.00000000, 0.00000000, 0.00000000, 0.03692326, 0.05887347, 0.01055735, 0.00000000, 0.00000000, 0.00000000, 0.00000000
1, 0.8400, 84, 0.31484073, -1.07484186, 0.17484149, 10.48911381, 106.13054657, 383.41265869, 0.00000000, 0.00000000, 0.00000000, 102.86205292, 6.25824404, 110.92477417, 1.00000000, 0.00000000, 0.00000000, 0.00000000, -0.17989804, 0.10882547, 0.04475786, 0.00000000, 0.00000000, 0.00000000, 0.00000000
1, 0.8500, 85, 0.19660264, -1.25542557, 0.18068187, 15.95353317, 111.51724243, 393.08630371, 0.00000000, 0.00000000, 0.00000000, 103.03655243, 2.17755699, 111.13147736, 1.00000000, 0.00000000, 0.00000000, 0.00000000, -0.13180064, 0.28317454, 0.04321389, 0.00000000, 0.00000000, 0.00000000, 0.00000000
1, 0.8600, 86, 0.12356743, -1.60412312, 0.22370039, 21.33028412, 126.53424835, 404.65948486, 0.00000000, 0.00000000, 0.00000000, 103.24951172, -2.05066514, 111.44377136, 1.00000000, 0.00000000, 0.00000000, 0.00000000, -0.13144523, 0.63065207, 0.00402925, 0.00000000, 0.00000000, 0.00000000, 0.00000000
1, 0.8700, 87, 0.29601690, -1.98344779, 0.28899205, 26.57003593, 134.23440552, 414.04818726, 0.00000000, 0.00000000, 0.00000000, 103.48705292, -6.37946033, 111.80114746, 1.00000000, 0.00000000, 0.00000000, 0.00000000, -0.37892401, 1.01423538, -0.05811213, 0.00000000, 0.00000000, 0.00000000, 0.00000000
1, 0.8800, 88, 0.65640914, -2.29261494, 0.38880518, 20.72641182, 116.08547974, 415.41067505, 0.00000000, 0.00000000, 0.00000000, 103.67285919, -10.68982220, 111.95530701, 1.00000000, 0.00000000, 0.00000000, 0.00000000, -0.81416678, 1.33307481, -0.15652294, 0.00000000, 0.00000000, 0.00000000, 0.00000000
1, 0.8900, 89, 0.92852628, -2.27834582, 0.58208275, 3.15982151, 71.60066986, 414.48873901, 0.00000000, 0.00000000, 0.00000000, 103.77154541, -14.88609028, 111.65967560, 1.00000000, 0.00000000, 0.00000000, 0.00000000, -1.15876031, 1.33325601, -0.35104516, 0.00000000, 0.00000000, 0.00000000, 0.00000000
1, 0.9000, 90, 1.03369343, -2.04403472, 0.73217148, 0.29720539, 42.27497864, 417.41540527, 0.00000000, 0.00000000, 0.00000000, 103.95645142, -19.03985977, 111.04322052, 1.00000000, 0.00000000, 0.00000000, 0.00000000, -1.33420229, 1.11829472, -0.50350034, 0.00000000, 0.00000000, 0.00000000, 0.00000000
1, 0.9100, 91, 1.03325188, -2.07339787, 0.86221242, -2.13594532, 19.52001381, 405.27749634, 0.00000000, 0.00000000, 0.00000000, 104.24202728, -23.01808357, 110.18859100, 1.00000000, 0.00000000, 0.00000000, 0.00000000, -1.40033245, 1.17154098, -0.63520646, 0.00000000, 0.00000000, 0.00000000, 0.00000000
1, 0.9200, 92, 1.04817951, -2.27417254, 1.01236463, 8.28660679, 31.23098564, 385.21649170, 0.00000000, 0.00000000, 0.00000000, 104.63230133, -26.81212616, 109.46965027, 1.00000000, 0.00000000, 0.00000000, 0.00000000, -1.47716999, 1.39972389, -0.78660929, 0.00000000, 0.00000000, 0.00000000, 0.00000000
1, 0.9300, 93, 1.20153177, -2.60332108, 1.09029078, 8.62972450, 40.67959976, 353.54519653, 0.00000000, 0.00000000, 0.00000000, 104.99693298, -30.33392906, 108.88733673, 1.00000000, 0.00000000, 0.00000000, 0.00000000, -1.68695211, 1.75849414, -0.86591184, 0.00000000, 0.00000000, 0.00000000, 0.00000000
1, 0.9400, 94, 1.64550734, -2.56929207, 0.88703954, -12.44733143, 43.69660568, 311.26324463, 0.00000000, 0.00000000, 0.00000000, 105.11277771, -33.45306778, 108.43125916, 1.00000000, 0.00000000, 0.00000000, 0.00000000, -2.17998838, 1.75338292, -0.66704506, 0.00000000, 0.00000000, 0.00000000, 0.00000000
1, 0.9500, 95, 2.10597444, -2.04976249, 0.72073990, -15.35322666, 70.72716522, 267.18716431, 0.00000000, 0.00000000, 0.00000000, 104.96421051, -36.21680069, 108.41918182, 1.00000000, 0.00000000, 0.00000000, 0.00000000, -2.68248534, 1.26076937, -0.50872993, 0.00000000, 0.00000000, 0.00000000, 0.00000000
1, 0.9600, 96, 2.79490185, -1.44962668, 0.69601399, 1.50827646, 94.71725464, 213.20874023, 0.00000000, 0.00000000, 0.00000000, 104.69640350, -38.52025223, 108.88491821, 1.00000000, 0.00000000, 0.00000000, 0.00000000, -3.40643406, 0.68469644, -0.49404824, 0.00000000, 0.00000000, 0.00000000, 0.00000000
1, 0.9700, 97, 3.69878078, -0.91128647, 0.73424727, 5.32393599, 18.91208267, 133.04966736, 0.00000000, 0.00000000, 0.00000000, 104.88056946, -39.84769058, 108.68993378, 1.00000000, 0.00000000, 0.00000000, 0.00000000, -4.33399391, 0.16437528, -0.53780174, 0.00000000, 0.00000000, 0.00000000, 0.00000000
1, 0.9800, 98, 3.64097786, -0.60883313, 0.69099766, 13.94317818, -96.28186035, 63.65438080, 0.00000000, 0.00000000, 0.00000000, 105.94319916, -40.20552826, 107.25716400, 1.00000000, 0.00000000, 0.00000000, 0.00000000, -4.28563547, -0.12788929, -0.48695067, 0.00000000, 0.00000000, 0.00000000, 0.00000000
1, 0.9900, 99, 2.79816294, -0.85092813, 0.61049551, 25.28336716, -142.92590332, -1.53620994, 0.00000000, 0.00000000, 0.00000000, 107.34250641, -39.78174591, 105.47566223, 1.00000000, 0.00000000, 0.00000000, 0.00000000, -3.44091153, 0.11766274, -0.38876969, 0.00000000, 0.00000000, 0.00000000, 0.00000000
1, 1.0000, 100, 2.23578787, -1.24464333, 0.62723202, 27.46998215, -115.19953918, -85.37203217, 0.00000000, 0.00000000, 0.00000000, 108.30016327, -38.61648560, 104.39829254, 1.00000000, 0.00000000, 0.00000000, 0.00000000, -2.86662197, 0.50674212, -0.38743770, 0.00000000, 0.00000000, 0.00000000, 0.00000000
1, 1.0100, 101, 2.03108549, -1.27104509, 0.64606524, 8.17333508, -70.87189484, -173.28146362, 0.00000000, 0.00000000, 0.00000000, 108.48062897, -36.74862671, 104.23988342, 1.00000000, 0.00000000, 0.00000000, 0.00000000, -2.63975883, 0.51854002, -0.39474377, 0.00000000, 0.00000000, 0.00000000, 0.00000000
1, 1.0200, 102, 1.39937901, -1.48956835, 0.59751910, 12.20066071, -23.41770363, -242.24295044, 0.00000000, 0.00000000, 0.00000000, 108.22006226, -34.32241821, 104.93488312, 1.00000000, 0.00000000, 0.00000000, 0.00000000, -1.97703731, 0.71481889, -0.34076211, 0.00000000, 0.00000000, 0.00000000, 0.00000000
1, 1.0300, 103, -1.22502005, -1.63202512, 0.79074323, -0.92803794, 45.96008682, -302.70385742, 0.00000000, 0.00000000, 0.00000000, 107.33227539, -31.58017921, 106.55787659, 1.00000000, 0.00000000, 0.00000000, 0.00000000, 0.68577892, 0.82998252, -0.53433573, 0.00000000, 0.00000000, 0.00000000, 0.00000000
1, 1.0400, 104, -4.03545046, -1.75128770, 1.09710503, -3.20157719, 195.19648743, -248.06919861, 0.00000000, 0.00000000, 0.00000000, 105.78306580, -29.75530243, 109.55292511, 1.00000000, 0.00000000, 0.00000000, 0.00000000, 3.53138041, 0.92258990, -0.85406101, 0.00000000, 0.00000000, 0.00000000, 0.00000000
1, 1.0500, 105, -2.74738884, -2.05282187, -0.93502933, 19.17081451, 175.73686218, -115.59635162, 0.00000000, 0.00000000, 0.00000000, 104.84555054, -29.10680008, 111.85048676, 1.00000000, 0.00000000, 0.00000000, 0.00000000, 2.25780201, 1.21139407, 1.16367793, 0.00000000, 0.00000000, 0.00000000, 0.00000000
1, 1.0600, 106, 1.75643671, -1.59371948, -0.89632565, 8.75652790, 252.99537659, -170.83535767, 0.00000000, 0.00000000, 0.00000000, 103.36823273, -28.06525803, 115.11856079, 1.00000000, 0.00000000, 0.00000000, 0.00000000, -2.23404622, 0.74117362, 1.10840571, 0.00000000, 0.00000000, 0.00000000, 0.00000000
1, 1.0700, 107, 2.85738945, -2.04699063, -0.39238164, 36.46671677, 191.92602539, -246.51087952, 0.00000000, 0.00000000, 0.00000000, 102.48719788, -26.07282257, 117.85181427, 1.00000000, 0.00000000, 0.00000000, 0.00000000, -3.30936480, 1.17682111, 0.58836651, 0.00000000, 0.00000000, 0.00000000, 0.00000000
1, 1.0800, 108, 0.88637620, -1.56427991, 0.09347990, 35.25848389, 108.67871857, -227.49346924, 0.00000000, 0.00000000, 0.00000000, 102.11511230, -24.08243179, 119.56053925, 1.00000000, 0.00000000, 0.00000000, 0.00000000, -1.30597413, 0.67737579, 0.09950746, 0.00000000, 0.00000000, 0.00000000, 0.00000000
1, 1.0900, 109, -0.02728970, -1.14139080, -0.47795472, 20.41806984, 56.10909653, -195.85565186, 0.00000000, 0.00000000, 0.00000000, 101.90729523, -22.28304672, 120.60059357, 1.00000000, 0.00000000, 0.00000000, 0.00000000, -0.36252731, 0.24045420, 0.66842771, 0.00000000, 0.00000000, 0.00000000, 0.00000000
1, 1.1000, 110, 0.54848737, -1.21855950, -0.31177166, 49.00152588, -10.02683640, -146.90263367, 0.00000000, 0.00000000, 0.00000000, 102.31501007, -20.82563210, 120.82541656, 1.00000000, 0.00000000, 0.00000000, 0.00000000, -0.91225600, 0.30791235, 0.50758708, 0.00000000, 0.00000000, 0.00000000, 0.00000000
1, 1.1100, 111, 0.60811287, -0.91344005, 0.68947017, 67.36357880, -17.61085701, -117.43322754, 0.00000000, 0.00000000, 0.00000000, 102.95660400, -19.64078712, 120.91593170, 1.00000000, 0.00000000, 0.00000000, 0.00000000, -0.95141017, -0.00278097, -0.48296666, 0.00000000, 0.00000000, 0.00000000, 0.00000000
1, 1.1200, 112, 1.34765506, -0.34812245, 2.05098438, 76.42741394, -28.65955734, -99.89527130, 0.00000000, 0.00000000, 0.00000000, 103.75737000, -18.58422279, 120.86595917, 1.00000000, 0.00000000, 0.00000000, 0.00000000, -1.67288971, -0.57163835, -1.83138835, 0.00000000, 0.00000000, 0.00000000, 0.00000000
1, 1.1300, 113, 0.36000079, -1.21036291, 0.83831608, 66.52909088, -65.86598206, -125.28905487, 0.00000000, 0.00000000, 0.00000000, 104.52902985, -17.20769501, 120.51860809, 1.00000000, 0.00000000, 0.00000000, 0.00000000, -0.66511387, 0.28756624, -0.60317373, 0.00000000, 0.00000000, 0.00000000, 0.00000000
1, 1.1400, 114, -0.56007087, -1.53096056, 0.22609867, 16.77293205, -20.73773575, -140.12475586, 0.00000000, 0.00000000, 0.00000000, 104.65421295, -15.79966068, 120.67759705, 1.00000000, 0.00000000, 0.00000000, 0.00000000, 0.27954927, 0.60232288, 0.01658531, 0.00000000, 0.00000000, 0.00000000, 0.00000000
1, 1.1500, 115, 0.33014455, -1.08656228, 0.83777797, 31.37084961, 21.25141525, -117.63697052, 0.00000000, 0.00000000, 0.00000000, 104.82987213, -14.71603203, 121.20098114, 1.00000000, 0.00000000, 0.00000000, 0.00000000, -0.59083045, 0.15302852, -0.59175014, 0.00000000, 0.00000000, 0.00000000, 0.00000000
1, 1.1600, 116, 0.46231681, -0.85533893, 0.65014392, 3.51734877, -31.41902161, -96.91802216, 0.00000000, 0.00000000, 0.00000000, 104.87767029, -13.69863319, 121.14443970, 1.00000000, 0.00000000, 0.00000000, 0.00000000, -0.70562828, -0.08213378, -0.40130714, 0.00000000, 0.00000000, 0.00000000, 0.00000000
1, 1.1700, 117, -0.04177468, -0.57784206, 0.30026311, -4.39307737, -79.79341888, -84.26713562, 0.00000000, 0.00000000, 0.00000000, 104.99754333, -12.70626831, 120.53501129, 1.00000000, 0.00000000, 0.00000000, 0.00000000, -0.18424362, -0.36338609, -0.04930151, 0.00000000, 0.00000000, 0.00000000, 0.00000000
1, 1.1800, 118, -0.25520501, -0.59596646, 0.29424015, 15.87604809, -45.97876740, -74.63202667, 0.00000000, 0.00000000, 0.00000000, 105.21101379, -11.86605263, 120.27949524, 1.00000000, 0.00000000, 0.00000000, 0.00000000, 0.04445666, -0.34770900, -0.03920134, 0.00000000, 0.00000000, 0.00000000, 0.00000000
1, 1.1900, 119, 0.07111346, -0.87606323, 0.27825600, 19.66385460, -29.32486916, -72.69714355, 0.00000000, 0.00000000, 0.00000000, 105.42622375, -11.08746147, 120.18692017, 1.00000000, 0.00000000, 0.00000000, 0.00000000, -0.26842615, -0.06929520, -0.01873766, 0.00000000, 0.00000000, 0.00000000, 0.00000000
1, 1.2000, 120, -0.03716075, -1.24044979, 0.20358092, 17.01839447, -8.73342705, -81.73153687, 0.00000000, 0.00000000, 0.00000000, 105.57147980, -10.27660847, 120.32353973, 1.00000000, 0.00000000, 0.00000000, 0.00000000, -0.14651400, 0.29332423, 0.05947823, 0.00000000, 0.00000000, 0.00000000, 0.00000000
1, 1.2100, 121, -0.09926542, -1.35769296, 0.27961603, 20.24834824, 24.40871048, -87.43506622, 0.00000000, 0.00000000, 0.00000000, 105.69216919, -9.50037193, 120.80120087, 1.00000000, 0.00000000, 0.00000000, 0.00000000, -0.07069967, 0.40875405, -0.01388582, 0.00000000, 0.00000000, 0.00000000, 0.00000000
1, 1.2200, 122, 0.29077384, -1.23774147, 0.24206135, 21.54747963, 28.36079788, -79.07476807, 0.00000000, 0.00000000, 0.00000000, 105.78820801, -8.66327190, 121.41809845, 1.00000000, 0.00000000, 0.00000000, 0.00000000, -0.44774500, 0.28732744, 0.02636947, 0.00000000, 0.00000000, 0.00000000, 0.00000000
1, 1.2300, 123, 0.43430534, -0.98533386, 0.19682160, 12.97152138, 0.86895162, -69.79187012, 0.00000000, 0.00000000, 0.00000000, 105.88851929, -7.99417639, 121.61911774, 1.00000000, 0.00000000, 0.00000000, 0.00000000, -0.57771933, 0.03330833, 0.07349135, 0.00000000, 0.00000000, 0.00000000, 0.00000000
1, 1.2400, 124, 0.36168414, -0.86687189, 0.23120029, 13.61759853, -21.27337837, -63.04367065, 0.00000000, 0.00000000, 0.00000000, 106.02865601, -7.32949972, 121.58762360, 1.00000000, 0.00000000, 0.00000000, 0.00000000, -0.49349260, -0.08612315, 0.04159300, 0.00000000, 0.00000000, 0.00000000, 0.00000000
1, 1.2500, 125, 0.16050762, -0.91446650, 0.31293616, 12.52338314, -39.31898499, -53.30350494, 0.00000000, 0.00000000, 0.00000000, 106.18207550, -6.70828962, 121.35598755, 1.00000000, 0.00000000, 0.00000000, 0.00000000, -0.28130275, -0.03915790, -0.03725640, 0.00000000, 0.00000000, 0.00000000, 0.00000000
1, 1.2600, 126, 0.17908913, -0.91912359, 0.45128825, 11.63549042, -46.33221054, -48.03807449, 0.00000000, 0.00000000, 0.00000000, 106.33326721, -6.11738634, 121.04372406, 1.00000000, 0.00000000, 0.00000000, 0.00000000, -0.28948754, -0.03492112, -0.17271671, 0.00000000, 0.00000000, 0.00000000, 0.00000000
1, 1.2700, 127, 0.13495356, -0.94630980, 0.45811692, 9.25753498, -50.96560669, -47.36362076, 0.00000000, 0.00000000, 0.00000000, 106.52159882, -5.44932079, 120.69311523, 1.00000000, 0.00000000, 0.00000000, 0.00000000, -0.23471335, -0.00806168, -0.17667276, 0.00000000, 0.00000000, 0.00000000, 0.00000000
1, 1.2800, 128, 0.03039691, -0.94895113, 0.40679622, 8.56914997, -44.67140961, -44.60362625, 0.00000000, 0.00000000, 0.00000000, 106.63456726, -4.89438152, 120.39099121, 1.00000000, 0.00000000, 0.00000000, 0.00000000, -0.11924024, -0.00561859, -0.12237386, 0.00000000, 0.00000000, 0.00000000, 0.00000000
1, 1.2900, 129, 0.19544104, -0.95277274, 0.38982493, 11.23631763, -38.30577087, -40.15143967, 0.00000000, 0.00000000, 0.00000000, 106.76735687, -4.39973640, 120.13861847, 1.00000000, 0.00000000, 0.00000000, 0.00000000, -0.27532423, -0.00190814, -0.10312455, 0.00000000, 0.00000000, 0.00000000, 0.00000000
1, 1.3000, 130, 0.25344610, -1.03100181, 0.26821637, 12.32002735, -43.11199570, -35.32160187, 0.00000000, 0.00000000, 0.00000000, 106.91305542, -3.93676448, 119.82748413, 1.00000000, 0.00000000, 0.00000000, 0.00000000, -0.32505181, 0.07643375, 0.02103653, 0.00000000, 0.00000000, 0.00000000, 0.00000000
1, 1.3100, 131, 0.29124823, -1.08141768, 0.26884726, 14.63097477, -45.22179031, -29.26755524, 0.00000000, 0.00000000, 0.00000000, 107.08196259, -3.52469349, 119.47981262, 1.00000000, 0.00000000, 0.00000000, 0.00000000, -0.35534334, 0.12716478, 0.02319471, 0.00000000, 0.00000000, 0.00000000, 0.00000000
1, 1.3200, 132, 0.20783676, -1.12419641, 0.19657302, 13.07320404, -55.83705902, -23.96639633, 0.00000000, 0.00000000, 0.00000000, 107.18627167, -3.03943920, 119.08213806, 1.00000000, 0.00000000, 0.00000000, 0.00000000, -0.26460937, 0.17030212, 0.09814085, 0.00000000, 0.00000000, 0.00000000, 0.00000000
1, 1.3300, 133, 0.21403389, -1.07580280, 0.23460886, 16.68621254, -55.86764145, -20.63364029, 0.00000000, 0.00000000, 0.00000000, 107.37668610, -2.67648578, 118.60935974, 1.00000000, 0.00000000, 0.00000000, 0.00000000, -0.26309511, 0.12219666, 0.06241703, 0.00000000, 0.00000000, 0.00000000, 0.00000000
1, 1.3400, 134, 0.25040007, -1.05210865, 0.25235075, 17.70707130, -68.35556030, -21.44083023, 0.00000000, 0.00000000, 0.00000000, 107.57910156, -2.26662350, 118.02124023, 1.00000000, 0.00000000, 0.00000000, 0.00000000, -0.29271644, 0.09927174, 0.04815876, 0.00000000, 0.00000000, 0.00000000, 0.00000000
1, 1.3500, 135, 0.00106089, -1.02086496, 0.24924946, 15.16984653, -73.14817810, -23.98615837, 0.00000000, 0.00000000, 0.00000000, 107.75310516, -1.81607103, 117.39667511, 1.00000000, 0.00000000, 0.00000000, 0.00000000, -0.03573438, 0.06872657, 0.05443574, 0.00000000, 0.00000000, 0.00000000, 0.00000000
1, 1.3600, 136, -0.07303777, -0.92594475, 0.34326556, 17.13884735, -67.36447906, -28.73683739, 0.00000000, 0.00000000, 0.00000000, 107.93978882, -1.33613384, 116.84329224, 1.00000000, 0.00000000, 0.00000000, 0.00000000, 0.04652252, -0.02549125, -0.03657354, 0.00000000, 0.00000000, 0.00000000, 0.00000000
1, 1.3700, 137, -0.11011083, -0.88772106, 0.36905405, 19.41778564, -62.64252853, -35.70872879, 0.00000000, 0.00000000, 0.00000000, 108.18122101, -0.85350156, 116.32312012, 1.00000000, 0.00000000, 0.00000000, 0.00000000, 0.09231916, -0.06276138, -0.05879696, 0.00000000, 0.00000000, 0.00000000, 0.00000000
1, 1.3800, 138, -0.05809017, -0.86641026, 0.43653110, 21.69535637, -48.30315399, -45.41957092, 0.00000000, 0.00000000, 0.00000000, 108.40148926, -0.27074298, 116.00698853, 1.00000000, 0.00000000, 0.00000000, 0.00000000, 0.04948336, -0.08288947, -0.12229138, 0.00000000, 0.00000000, 0.00000000, 0.00000000
1, 1.3900, 139, -0.00805688, -0.93867534, 0.40263420, 22.46438789, -39.48185349, -54.02207184, 0.00000000, 0.00000000, 0.00000000, 108.62599945, 0.36689991, 115.80419159, 1.00000000, 0.00000000, 0.00000000, 0.00000000, 0.01020562, -0.00939848, -0.08460862, 0.00000000, 0.00000000, 0.00000000, 0.00000000
1, 1.4000, 140, 0.17980269, -0.99582624, 0.46871948, 22.81079865, -34.58388138, -57.25840378, 0.00000000, 0.00000000, 0.00000000, 108.85238647, 1.02023351, 115.66060638, 1.00000000, 0.00000000, 0.00000000, 0.00000000, -0.16631642, 0.04907925, -0.14704129, 0.00000000, 0.00000000, 0.00000000, 0.00000000
1, 1.4100, 141, 0.29945040, -1.04974043, 0.42852417, 20.59448624, -46.20375443, -59.76564789, 0.00000000, 0.00000000, 0.00000000, 109.05233002, 1.73561728, 115.41772461, 1.00000000, 0.00000000, 0.00000000, 0.00000000, -0.27396858, 0.10442813, -0.10337553, 0.00000000, 0.00000000, 0.00000000, 0.00000000
1, 1.4200, 142, -0.03153436, -1.05992758, 0.42820767, 17.31241417, -55.73666000, -61.06280899, 0.00000000, 0.00000000, 0.00000000, 109.23606873, 2.45770478, 115.06863403, 1.00000000, 0.00000000, 0.00000000, 0.00000000, 0.06993450, 0.11603418, -0.10021676, 0.00000000, 0.00000000, 0.00000000, 0.00000000
1, 1.4300, 143, 0.02288363, -1.06561613, 0.44053379, 17.19717407, -60.42388916, -64.80897522, 0.00000000, 0.00000000, 0.00000000, 109.39021301, 3.26917958, 114.71234131, 1.00000000, 0.00000000, 0.00000000, 0.00000000, 0.02867696, 0.12327154, -0.10991107, 0.00000000, 0.00000000, 0.00000000, 0.00000000
1, 1.4400, 144, -0.17203969, -1.07717192, 0.44663897, 12.51475811, -66.52249908, -74.15061951, 0.00000000, 0.00000000, 0.00000000, 109.49063110, 4.18985844, 114.33114624, 1.00000000, 0.00000000, 0.00000000, 0.00000000, 0.23893982, 0.13641642, -0.11424940, 0.00000000, 0.00000000, 0.00000000, 0.00000000
1, 1.4500, 145, -0.29639053, -1.07873511, 0.47346282, 10.70646095, -65.45655823, -86.78530884, 0.00000000, 0.00000000, 0.00000000, 109.57099915, 5.22658777, 114.00328064, 1.00000000, 0.00000000, 0.00000000, 0.00000000, 0.38056359, 0.13968188, -0.14019501, 0.00000000, 0.00000000, 0.00000000, 0.00000000
1, 1.4600, 146, -0.25464737, -1.14158416, 0.40093032, 10.03557968, -59.53564072, -102.56152344, 0.00000000, 0.00000000, 0.00000000, 109.64954376, 6.39252663, 113.78562164, 1.00000000, 0.00000000, 0.00000000, 0.00000000, 0.35820496, 0.20473328, -0.06693511, 0.00000000, 0.00000000, 0.00000000, 0.00000000
1, 1.4700, 147, -0.26185328, -1.21791720, 0.34112364, 8.34633827, -56.51968002, -121.43938446, 0.00000000, 0.00000000, 0.00000000, 109.70384216, 7.66527700, 113.64460754, 1.00000000, 0.00000000, 0.00000000, 0.00000000, 0.38711983, 0.28380829, -0.00689408, 0.00000000, 0.00000000, 0.00000000, 0.00000000
1, 1.4800, 148, -0.20923671, -1.28572798, 0.26454687, 5.49631882, -46.54244995, -141.04339600, 0.00000000, 0.00000000, 0.00000000, 109.76468658, 9.15002537, 113.68324280, 1.00000000, 0.00000000, 0.00000000, 0.00000000, 0.35840893, 0.35506332, 0.06945432, 0.00000000, 0.00000000, 0.00000000, 0.00000000
1, 1.4900, 149, -0.23141068, -1.29390121, 0.34310979, 2.36312532, -40.19919586, -159.32188416, 0.00000000, 0.00000000, 0.00000000, 109.81687927, 10.78524208, 113.84694672, 1.00000000, 0.00000000, 0.00000000, 0.00000000, 0.40783110, 0.36778730, -0.00975744, 0.00000000, 0.00000000, 0.00000000, 0.00000000
1, 1.5000, 150, -0.24707556, -1.29847205, 0.39088187, 3.42880821, -32.77898026, -176.50161743, 0.00000000, 0.00000000, 0.00000000, 109.91157532, 12.55661964, 114.14453125, 1.00000000, 0.00000000, 0.00000000, 0.00000000, 0.45294917, 0.37820792, -0.05823603, 0.00000000, 0.00000000, 0.00000000, 0.00000000
1, 1.5100, 151, -0.24320886, -1.27494800, 0.46796301, 5.04927111, -28.53835106, -190.47079468, 0.00000000, 0.00000000, 0.00000000, 110.05390930, 14.44420242, 114.53795624, 1.00000000, 0.00000000, 0.00000000, 0.00000000, 0.48050690, 0.36210862, -0.13580737, 0.00000000, 0.00000000, 0.00000000, 0.00000000
1, 1.5200, 152, -0.13476680, -1.35042393, 0.44748136, 11.03002453, -32.30205917, -199.47795105, 0.00000000, 0.00000000, 0.00000000, 110.26375580, 16.38502121, 114.92198944, 1.00000000, 0.00000000, 0.00000000, 0.00000000, 0.40482292, 0.44674298, -0.11530689, 0.00000000, 0.00000000, 0.00000000, 0.00000000
1, 1.5300, 153, -0.02994058, -1.46505463, 0.43149304, 17.28000832, -42.28677750, -205.25437927, 0.00000000, 0.00000000, 0.00000000, 110.53615570, 18.45630646, 115.25617981, 1.00000000, 0.00000000, 0.00000000, 0.00000000, 0.33348662, 0.57221675, -0.09893425, 0.00000000, 0.00000000, 0.00000000, 0.00000000
1, 1.5400, 154, 0.07152948, -1.56547654, 0.36574659, 25.03989410, -62.80759048, -206.62370300, 0.00000000, 0.00000000, 0.00000000, 110.83635712, 20.61126900, 115.40697479, 1.00000000, 0.00000000, 0.00000000, 0.00000000, 0.26716438, 0.68551230, -0.03282579, 0.00000000, 0.00000000, 0.00000000, 0.00000000
1, 1.5500, 155, 0.01970911, -1.65443718, 0.30544341, 33.54912567, -89.42631531, -203.71685791, 0.00000000, 0.00000000, 0.00000000, 111.12876129, 22.83370781, 115.29333496, 1.00000000, 0.00000000, 0.00000000, 0.00000000, 0.35476634, 0.78900081, 0.02722402, 0.00000000, 0.00000000, 0.00000000, 0.00000000
1, 1.5600, 156, -0.28757739, -1.80589867, 0.23632346, 37.76356125, -123.33786011, -192.79377747, 0.00000000, 0.00000000, 0.00000000, 111.30439758, 25.07742882, 114.79837799, 1.00000000, 0.00000000, 0.00000000, 0.00000000, 0.69799155, 0.95602798, 0.09406917, 0.00000000, 0.00000000, 0.00000000, 0.00000000
1, 1.5700, 157, -0.17877054, -2.12428308, 0.26900014, 42.16756439, -154.74028015, -189.59559631, 0.00000000, 0.00000000, 0.00000000, 111.34661865, 27.39008331, 113.95517731, 1.00000000, 0.00000000, 0.00000000, 0.00000000, 0.62529576, 1.29092920, 0.05658889, 0.00000000, 0.00000000, 0.00000000, 0.00000000
1, 1.5800, 158, -0.16373667, -2.64651418, 0.41716358, 42.77542114, -177.00128174, -193.01531982, 0.00000000, 0.00000000, 0.00000000, 111.25663757, 29.83168793, 112.87585449, 1.00000000, 0.00000000, 0.00000000, 0.00000000, 0.64700568, 1.83099461, -0.09899002, 0.00000000, 0.00000000, 0.00000000, 0.00000000
1, 1.5900, 159, -0.63060784, -3.10736299, 0.60516006, 27.57571602, -197.66616821, -196.39775085, 0.00000000, 0.00000000, 0.00000000, 110.84580231, 32.37496185, 111.54620361, 1.00000000, 0.00000000, 0.00000000, 0.00000000, 1.15192616, 2.31085324, -0.29915011, 0.00000000, 0.00000000, 0.00000000, 0.00000000
1, 1.6000, 160, -1.22626281, -2.75935674, 0.91774362, 7.08327484, -164.64228821, -208.26948547, 0.00000000, 0.00000000, 0.00000000, 110.38088226, 34.90425110, 110.57706451, 1.00000000, 0.00000000, 0.00000000, 0.00000000, 1.78470099, 1.98275506, -0.62640160, 0.00000000, 0.00000000, 0.00000000, 0.00000000
1, 1.6100, 161, -1.05301487, -2.33646560, 0.81304377, -3.30257988, -125.06258392, -228.84971619, 0.00000000, 0.00000000, 0.00000000, 110.07002258, 37.48396301, 110.10287476, 1.00000000, 0.00000000, 0.00000000, 0.00000000, 1.64805055, 1.58202434, -0.53629327, 0.00000000, 0.00000000, 0.00000000, 0.00000000
1, 1.6200, 162, -0.81015235, -2.31345701, 0.86067617, -2.71188140, -118.18011475, -230.43824768, 0.00000000, 0.00000000, 0.00000000, 109.78395081, 40.03400040, 109.68267822, 1.00000000, 0.00000000, 0.00000000, 0.00000000, 1.44051754, 1.58377123, -0.59602332, 0.00000000, 0.00000000, 0.00000000, 0.00000000
1, 1.6300, 163, -1.00933731, -2.11351252, 1.19012165, -41.59337997, -101.45384216, -220.42059326, 0.00000000, 0.00000000, 0.00000000, 109.17556763, 42.45054245, 109.39035034, 1.00000000, 0.00000000, 0.00000000, 0.00000000, 1.67270601, 1.40794492, -0.94117308, 0.00000000, 0.00000000, 0.00000000, 0.00000000
1, 1.6400, 164, -1.47395289, -1.80662847, 1.16875064, -75.43334198, -32.30478668, -202.91697693, 0.00000000, 0.00000000, 0.00000000, 108.76094055, 44.47527313, 109.88018036, 1.00000000, 0.00000000, 0.00000000, 0.00000000, 2.16559601, 1.12328434, -0.93512720, 0.00000000, 0.00000000, 0.00000000, 0.00000000
1, 1.6500, 165, -0.46891797, -1.40754795, 0.57078975, -39.29577637, 29.62179947, -173.44062805, 0.00000000, 0.00000000, 0.00000000, 109.21772003, 46.02010345, 111.07663727, 1.00000000, 0.00000000, 0.00000000, 0.00000000, 1.18137538, 0.74395144, -0.34279096, 0.00000000, 0.00000000, 0.00000000, 0.00000000
1, 1.6600, 166, 0.76412016, -1.37762785, 0.80552012, -17.02248764, 44.53148270, -209.74317932, 0.00000000, 0.00000000, 0.00000000, 110.25592804, 47.84303665, 112.73013306, 1.00000000, 0.00000000, 0.00000000, 0.00000000, -0.03109387, 0.73805630, -0.57416296, 0.00000000, 0.00000000, 0.00000000, 0.00000000
1, 1.6700, 167, 1.77029252, -0.88767165, 0.93959022, -18.38291168, -14.79108429, -180.34487915, 0.00000000, 0.00000000, 0.00000000, 110.64446259, 49.58848572, 113.47910309, 1.00000000, 0.00000000, 0.00000000, 0.00000000, -1.01621056, 0.27241272, -0.70992875, 0.00000000, 0.00000000, 0.00000000, 0.00000000
1, 1.6800, 168, 0.62890440, -1.23097372, 1.14828241, 19.00453949, 43.27721024, -116.82345581, 0.00000000, 0.00000000, 0.00000000, 111.82414246, 50.51962662, 114.76744843, 1.00000000, 0.00000000, 0.00000000, 0.00000000, 0.14006776, 0.63579893, -0.91500109, 0.00000000, 0.00000000, 0.00000000, 0.00000000
1, 1.6900, 169, -0.79586047, -1.17110825, 0.60059762, -56.95725632, 34.25132370, -52.84567642, 0.00000000, 0.00000000, 0.00000000, 111.88367462, 50.88195038, 115.58054352, 1.00000000, 0.00000000, 0.00000000, 0.00000000, 1.57041144, 0.58440572, -0.36427537, 0.00000000, 0.00000000, 0.00000000, 0.00000000
1, 1.7000, 170, -0.79454470, -0.98256695, 0.19035213, -58.56630325, 23.70976067, -11.77474594, 0.00000000, 0.00000000, 0.00000000, 111.62306976, 50.90354538, 115.99927521, 1.00000000, 0.00000000, 0.00000000, 0.00000000, 1.57084930, 0.39688626, 0.04273329, 0.00000000, 0.00000000, 0.00000000, 0.00000000
1, 1.7100, 171, -0.48154077, -0.86138701, 0.00415875, -49.18517685, 46.96133041, 14.19580555, 0.00000000, 0.00000000, 0.00000000, 111.60194397, 50.59870529, 116.60702515, 1.00000000, 0.00000000, 0.00000000, 0.00000000, 1.25578272, 0.27292126, 0.22876795, 0.00000000, 0.00000000, 0.00000000, 0.00000000
1, 1.7200, 172, -0.03220821, -0.53288001, -0.11427873, -44.05985260, 59.73977280, 29.89297104, 0.00000000, 0.00000000, 0.00000000, 111.57365417, 50.05961227, 117.24555206, 1.00000000, 0.00000000, 0.00000000, 0.00000000, 0.80141085, -0.06111036, 0.34985250, 0.00000000, 0.00000000, 0.00000000, 0.00000000
1, 1.7300, 173, 0.30945021, -0.30057684, -0.06845455, -33.74762726, 28.44751358, 53.40667343, 0.00000000, 0.00000000, 0.00000000, 111.31906128, 49.45819855, 117.35337067, 1.00000000, 0.00000000, 0.00000000, 0.00000000, 0.45324212, -0.30128050, 0.30521932, 0.00000000, 0.00000000, 0.00000000, 0.00000000
1, 1.7400, 174, 0.27324113, -0.16743538, 0.05206392, -40.15601349, -13.64704609, 108.26867676, 0.00000000, 0.00000000, 0.00000000, 110.32891846, 48.49453735, 116.57275391, 1.00000000, 0.00000000, 0.00000000, 0.00000000, 0.48018104, -0.44742242, 0.18089199, 0.00000000, 0.00000000, 0.00000000, 0.00000000
1, 1.7500, 175, -0.00273910, -0.03736484, 0.13437808, -50.11905670, -40.71098709, 159.53657532, 0.00000000, 0.00000000, 0.00000000, 108.81513977, 47.12749481, 115.20605469, 1.00000000, 0.00000000, 0.00000000, 0.00000000, 0.74198020, -0.59777594, 0.08932941, 0.00000000, 0.00000000, 0.00000000, 0.00000000
1, 1.7600, 176, -0.20047489, 0.04410033, 0.15965855, -46.20578766, -41.32584763, 191.10240173, 0.00000000, 0.00000000, 0.00000000, 107.32214355, 45.43865204, 113.78062439, 1.00000000, 0.00000000, 0.00000000, 0.00000000, 0.92093509, -0.70412892, 0.05295389, 0.00000000, 0.00000000, 0.00000000, 0.00000000
1, 1.7700, 177, -0.29805386, -0.00029085, 0.18360142, -33.19673157, -22.01499557, 209.56242371, 0.00000000, 0.00000000, 0.00000000, 106.24929047, 43.42263794, 112.65013123, 1.00000000, 0.00000000, 0.00000000, 0.00000000, 0.99549669, -0.68642241, 0.02105578, 0.00000000, 0.00000000, 0.00000000, 0.00000000
1, 1.7800, 178, -0.29209709, -0.09484526, 0.16200553, -24.42123795, 7.47699928, 226.37443542, 0.00000000, 0.00000000, 0.00000000, 105.50582123, 41.22480774, 111.91024780, 1.00000000, 0.00000000, 0.00000000, 0.00000000, 0.96209210, -0.61955833, 0.03951217, 0.00000000, 0.00000000, 0.00000000, 0.00000000
1, 1.7900, 179, -0.18986832, -0.19903019, 0.10595599, -16.65504074, 35.56758881, 246.29705811, 0.00000000, 0.00000000, 0.00000000, 105.08167267, 38.75526047, 111.51047516, 1.00000000, 0.00000000, 0.00000000, 0.00000000, 0.82862020, -0.54329002, 0.09604737, 0.00000000, 0.00000000, 0.00000000, 0.00000000
1, 1.8000, 180, -0.10653126, -0.29852828, 0.05427244, -12.99550629, 46.85248184, 268.45175171, 0.00000000, 0.00000000, 0.00000000, 104.76929474, 36.04066849, 111.21021271, 1.00000000, 0.00000000, 0.00000000, 0.00000000, 0.70934737, -0.47247857, 0.15062010, 0.00000000, 0.00000000, 0.00000000, 0.00000000
1, 1.8100, 181, -0.10525122, -0.38935015, 0.05535156, -10.57287025, 49.55900955, 289.26049805, 0.00000000, 0.00000000, 0.00000000, 104.49030304, 33.11669922, 110.90534210, 1.00000000, 0.00000000, 0.00000000, 0.00000000, 0.66768718, -0.41070384, 0.15290666, 0.00000000, 0.00000000, 0.00000000, 0.00000000
1, 1.8200, 182, -0.08100671, -0.45953122, 0.05563455, -9.47231197, 53.54912567, 305.48080444, 0.00000000, 0.00000000, 0.00000000, 104.23831177, 29.97224236, 110.61050415, 1.00000000, 0.00000000, 0.00000000, 0.00000000, 0.59870601, -0.36927071, 0.15610656, 0.00000000, 0.00000000, 0.00000000, 0.00000000
1, 1.8300, 183, -0.05815348, -0.52007353, 0.05984398, -4.24952316, 63.08569717, 320.17608643, 0.00000000, 0.00000000, 0.00000000, 104.10269928, 26.71350479, 110.41529083, 1.00000000, 0.00000000, 0.00000000, 0.00000000, 0.52677947, -0.33640414, 0.15597861, 0.00000000, 0.00000000, 0.00000000, 0.00000000
1, 1.8400, 184, -0.08511508, -0.59566563, 0.10706738, 3.84961057, 71.94722748, 334.40826416, 0.00000000, 0.00000000, 0.00000000, 104.08683014, 23.29493141, 110.28710938, 1.00000000, 0.00000000, 0.00000000, 0.00000000, 0.50117630, -0.28618383, 0.11418664, 0.00000000, 0.00000000, 0.00000000, 0.00000000
1, 1.8500, 185, -0.07745881, -0.68077940, 0.14380655, 6.90088654, 82.02003479, 348.96145630, 0.00000000, 0.00000000, 0.00000000, 104.13363647, 19.71071434, 110.22763062, 1.00000000, 0.00000000, 0.00000000, 0.00000000, 0.43686664, -0.22406927, 0.08371422, 0.00000000, 0.00000000, 0.00000000, 0.00000000
1, 1.8600, 186, 0.04503598, -0.75923300, 0.10253796, 8.30440903, 88.58277130, 361.93603516, 0.00000000, 0.00000000, 0.00000000, 104.20801544, 15.98471451, 110.19931030, 1.00000000, 0.00000000, 0.00000000, 0.00000000, 0.25379327, -0.16584191, 0.13113753, 0.00000000, 0.00000000, 0.00000000, 0.00000000
1, 1.8700, 187, 0.10993136, -0.85654199, 0.10045596, 12.09834671, 95.58185577, 371.01919556, 0.00000000, 0.00000000, 0.00000000, 104.32207489, 12.14411354, 110.21386719, 1.00000000, 0.00000000, 0.00000000, 0.00000000, 0.12514837, -0.08523428, 0.13921124, 0.00000000, 0.00000000, 0.00000000, 0.00000000
1, 1.8800, 188, 0.07605969, -0.97796756, 0.17134707, 20.73918724, 115.27413940, 383.98999023, 0.00000000, 0.00000000, 0.00000000, 104.55737305, 8.13814640, 110.37566376, 1.00000000, 0.00000000, 0.00000000, 0.00000000, 0.09161404, 0.02354813, 0.07478552, 0.00000000, 0.00000000, 0.00000000, 0.00000000
1, 1.8900, 189, 0.14204337, -1.23388660, 0.19917423, 26.93991089, 122.21627808, 398.94021606, 0.00000000, 0.00000000, 0.00000000, 104.84534454, 3.96934104, 110.54643250, 1.00000000, 0.00000000, 0.00000000, 0.00000000, -0.04541429, 0.27150968, 0.05395413, 0.00000000, 0.00000000, 0.00000000, 0.00000000
1, 1.9000, 190, 0.25695455, -1.54714930, 0.21972087, 28.28607750, 122.70256805, 410.58386230, 0.00000000, 0.00000000, 0.00000000, 105.13214111, -0.31403154, 110.66981506, 1.00000000, 0.00000000, 0.00000000, 0.00000000, -0.23427075, 0.58179897, 0.03939859, 0.00000000, 0.00000000, 0.00000000, 0.00000000
1, 1.9100, 191, 0.37885746, -1.83604169, 0.27493104, 30.17106628, 126.81703949, 415.22909546, 0.00000000, 0.00000000, 0.00000000, 105.42851257, -4.65359831, 110.79914856, 1.00000000, 0.00000000, 0.00000000, 0.00000000, -0.43163508, 0.87311584, -0.01123122, 0.00000000, 0.00000000, 0.00000000, 0.00000000
1, 1.9200, 192, 0.53470176, -2.07394195, 0.47830012, 30.28404999, 120.98510742, 413.09411621, 0.00000000, 0.00000000, 0.00000000, 105.72469330, -8.94511604, 110.86209869, 1.00000000, 0.00000000, 0.00000000, 0.00000000, -0.66249907, 1.11896920, -0.21136120, 0.00000000, 0.00000000, 0.00000000, 0.00000000
1, 1.9300, 193, 0.96569824, -2.18413687, 0.71951467, 21.73217392, 117.22951508, 412.40197754, 0.00000000, 0.00000000, 0.00000000, 105.94175720, -13.23238659, 110.86425781, 1.00000000, 0.00000000, 0.00000000, 0.00000000, -1.16713524, 1.24216855, -0.45178252, 0.00000000, 0.00000000, 0.00000000, 0.00000000
1, 1.9400, 194, 1.53032720, -2.16486454, 0.85028428, 16.44490433, 97.22865295, 413.68331909, 0.00000000, 0.00000000, 0.00000000, 106.16653442, -17.47654343, 110.64662170, 1.00000000, 0.00000000, 0.00000000, 0.00000000, -1.80417085, 1.24090743, -0.58404028, 0.00000000, 0.00000000, 0.00000000, 0.00000000
1, 1.9500, 195, 1.70682657, -2.30876398, 0.83047599, 5.56904793, 36.86087036, 404.21514893, 0.00000000, 0.00000000, 0.00000000, 106.50295258, -21.45898056, 109.81547546, 1.00000000, 0.00000000, 0.00000000, 0.00000000, -2.04866886, 1.40726972, -0.56575012, 0.00000000, 0.00000000, 0.00000000, 0.00000000
1, 1.9600, 196, 1.56961012, -2.43791080, 0.80349696, 1.50892901, -3.19177413, 378.76889038, 0.00000000, 0.00000000, 0.00000000, 107.00164032, -25.07678795, 108.59408569, 1.00000000, 0.00000000, 0.00000000, 0.00000000, -1.97226250, 1.56180131, -0.53893250, 0.00000000, 0.00000000, 0.00000000, 0.00000000
1, 1.9700, 197, 1.44219673, -2.27863836, 1.09314466, -5.81351757, -0.70815849, 358.79876709, 0.00000000, 0.00000000, 0.00000000, 107.48485565, -28.48524284, 107.40135956, 1.00000000, 0.00000000, 0.00000000, 0.00000000, -1.89945388, 1.42972589, -0.82859993, 0.00000000, 0.00000000, 0.00000000, 0.00000000
1, 1.9800, 198, 1.74549627, -2.30919170, 1.08519328, -2.88974738, 8.98284531, 331.77102661, 0.00000000, 0.00000000, 0.00000000, 107.99194336, -31.67259789, 106.33212280, 1.00000000, 0.00000000, 0.00000000, 0.00000000, -2.25322342, 1.48906231, -0.82182378, 0.00000000, 0.00000000, 0.00000000, 0.00000000
1, 1.9900, 199, 2.19921970, -2.14327693, 0.77318817, -8.75955582, 30.03196526, 264.49182129, 0.00000000, 0.00000000, 0.00000000, 108.25098419, -34.27970886, 105.69205475, 1.00000000, 0.00000000, 0.00000000, 0.00000000, -2.74874926, 1.34957278, -0.51262033, 0.00000000, 0.00000000, 0.00000000, 0.00000000
1, 2.0000, 200, 2.72536945, -1.73931134, 0.64464957, 6.68834877, 73.56391907, 198.73913574, 0.00000000, 0.00000000, 0.00000000, 108.26237488, -36.39752579, 105.78577423, 1.00000000, 0.00000000, 0.00000000, 0.00000000, -3.30812907, 0.96769673, -0.38989097, 0.00000000, 0.00000000, 0.00000000, 0.00000000
1, 2.0100, 201, 3.49795818, -1.18816626, 0.60400724, 3.04488707, 36.54750061, 131.34306335, 0.00000000, 0.00000000, 0.00000000, 108.34312439, -37.75926590, 105.70355225, 1.00000000, 0.00000000, 0.00000000, 0.00000000, -4.10415745, 0.43308896, -0.35432175, 0.00000000, 0.00000000, 0.00000000, 0.00000000
1, 2.0200, 202, 3.70376539, -0.75817013, 0.46385884, 3.80718470, -20.87384224, 60.97513580, 0.00000000, 0.00000000, 0.00000000, 108.68846893, -38.26081848, 105.21436310, 1.00000000, 0.00000000, 0.00000000, 0.00000000, -4.32140827, 0.01246646, -0.21398675, 0.00000000, 0.00000000, 0.00000000, 0.00000000
1, 2.0300, 203, 3.14319015, -0.83187491, 0.30187845, 19.77798653, -60.44308472, -9.10598660, 0.00000000, 0.00000000, 0.00000000, 109.31192780, -37.97810364, 104.52581024, 1.00000000, 0.00000000, 0.00000000, 0.00000000, -3.76081657, 0.08860277, -0.04482891, 0.00000000, 0.00000000, 0.00000000, 0.00000000
1, 2.0400, 204, 2.74504995, -1.07699883, 0.22787462, 23.09399414, -51.67094421, -93.66906738, 0.00000000, 0.00000000, 0.00000000, 109.67704773, -36.92278671, 104.30655670, 1.00000000, 0.00000000, 0.00000000, 0.00000000, -3.35214972, 0.32833672, 0.03839847, 0.00000000, 0.00000000, 0.00000000, 0.00000000
1, 2.0500, 205, 2.39778090, -1.38952506, 0.30535427, 14.88509369, -26.70229149, -180.73500061, 0.00000000, 0.00000000, 0.00000000, 109.56829834, -35.13073349, 104.74578857, 1.00000000, 0.00000000, 0.00000000, 0.00000000, -2.98351860, 0.62614161, -0.03319179, 0.00000000, 0.00000000, 0.00000000, 0.00000000
1, 2.0600, 206, 0.24487212, -1.63478041, 0.72509801, 5.16076040, -12.31558228, -268.50210571, 0.00000000, 0.00000000, 0.00000000, 109.10232544, -32.55671692, 105.67755127, 1.00000000, 0.00000000, 0.00000000, 0.00000000, -0.79796416, 0.84872401, -0.44936812, 0.00000000, 0.00000000, 0.00000000, 0.00000000
1, 2.0700, 207, -3.83459496, -1.54489398, 2.03653669, -13.76902962, 194.94561768, -284.56854248, 0.00000000, 0.00000000, 0.00000000, 107.30461884, -30.46085167, 108.88764954, 1.00000000, 0.00000000, 0.00000000, 0.00000000, 3.31895947, 0.73022771, -1.77141261, 0.00000000, 0.00000000, 0.00000000, 0.00000000
1, 2.0800, 208, -3.62510324, -2.43239069, -0.06780998, 49.43620682, 119.38623047, -101.30187988, 0.00000000, 0.00000000, 0.00000000, 106.95906830, -29.84213066, 110.55253601, 1.00000000, 0.00000000, 0.00000000, 0.00000000, 3.12412071, 1.60440922, 0.31970981, 0.00000000, 0.00000000, 0.00000000, 0.00000000
1, 2.0900, 209, 1.31862164, -1.61076212, -0.67908841, -7.65261364, 85.59436798, -89.85456085, 0.00000000, 0.00000000, 0.00000000, 106.27410889, -29.22550774, 111.79048157, 1.00000000, 0.00000000, 0.00000000, 0.00000000, -1.81122720, 0.77717268, 0.92897010, 0.00000000, 0.00000000, 0.00000000, 0.00000000
1, 2.1000, 210, 3.77422595, -2.37991500, -1.16367972, 1.06515718, 131.22230530, -227.42164612, 0.00000000, 0.00000000, 0.00000000, 105.26089478, -27.39191628, 113.92512512, 1.00000000, 0.00000000, 0.00000000, 0.00000000, -4.24669838, 1.53053236, 1.39864528, 0.00000000, 0.00000000, 0.00000000, 0.00000000
1, 2.1100, 211, 0.78218919, -2.16710472, 0.18713655, 6.71413898, -39.20328140, -231.59992981, 0.00000000, 0.00000000, 0.00000000, 105.21430206, -25.05455208, 114.18468475, 1.00000000, 0.00000000, 0.00000000, 0.00000000, -1.21863925, 1.29933262, 0.05026915, 0.00000000, 0.00000000, 0.00000000, 0.00000000
1, 2.1200, 212, -0.66320515, -0.88475287, -0.12454455, -14.42268276, 13.95841408, -189.24145508, 0.00000000, 0.00000000, 0.00000000, 104.63248444, -23.35807610, 115.01789856, 1.00000000, 0.00000000, 0.00000000, 0.00000000, 0.25773489, 0.00139210, 0.35948724, 0.00000000, 0.00000000, 0.00000000, 0.00000000
1, 2.1300, 213, 0.39392340, -0.82021362, -0.36072046, 36.18881607, 1.37783194, -155.55340576, 0.00000000, 0.00000000, 0.00000000, 104.82564545, -21.85688019, 115.45873260, 1.00000000, 0.00000000, 0.00000000, 0.00000000, -0.77475858, -0.07414138, 0.59532928, 0.00000000, 0.00000000, 0.00000000, 0.00000000
1, 2.1400, 214, 0.50224209, -1.00318420, 0.19478673, 63.08823395, 24.10615540, -133.14581299, 0.00000000, 0.00000000, 0.00000000, 105.23112488, -20.63326073, 116.07916260, 1.00000000, 0.00000000, 0.00000000, 0.00000000, -0.86214310, 0.10232939, 0.04789177, 0.00000000, 0.00000000, 0.00000000, 0.00000000
1, 2.1500, 215, 0.23854747, -0.74738002, 0.84589505, 55.54722977, 1.70099998, -130.01029968, 0.00000000, 0.00000000, 0.00000000, 105.65451813, -19.38460159, 116.46503448, 1.00000000, 0.00000000, 0.00000000, 0.00000000, -0.57807589, -0.15899996, -0.59458840, 0.00000000, 0.00000000, 0.00000000, 0.00000000
1, 2.1600, 216, 1.04421747, -0.75040489, 1.16159308, 85.27868652, 27.92460442, -115.78572845, 0.00000000, 0.00000000, 0.00000000, 106.30742645, -18.34819603, 117.08460236, 1.00000000, 0.00000000, 0.00000000, 0.00000000, -1.36514282, -0.15985757, -0.90006918, 0.00000000, 0.00000000, 0.00000000, 0.00000000
1, 2.1700, 217, 0.52220964, -1.34459257, 0.74389970, 58.60780334, 6.50212765, -125.05641174, 0.00000000, 0.00000000, 0.00000000, 106.76025391, -17.12798882, 117.55294037, 1.00000000, 0.00000000, 0.00000000, 0.00000000, -0.82509261, 0.43150079, -0.47098348, 0.00000000, 0.00000000, 0.00000000, 0.00000000
1, 2.1800, 218, 0.10586479, -1.43754542, 0.56990409, 29.00147820, -4.37563896, -127.95461273, 0.00000000, 0.00000000, 0.00000000, 106.95293427, -15.89073086, 117.89607239, 1.00000000, 0.00000000, 0.00000000, 0.00000000, -0.38707900, 0.51925671, -0.29128420, 0.00000000, 0.00000000, 0.00000000, 0.00000000
1, 2.1900, 219, 0.71500969, -1.13562310, 0.52843809, 21.68867683, -36.29146576, -92.56059265, 0.00000000, 0.00000000, 0.00000000, 107.18936157, -14.89910984, 117.81832123, 1.00000000, 0.00000000, 0.00000000, 0.00000000, -0.97821397, 0.21353924, -0.24478154, 0.00000000, 0.00000000, 0.00000000, 0.00000000
1, 2.2000, 220, 0.57308239, -0.79914403, 0.39447260, 5.72603178, -114.20954895, -61.20787811, 0.00000000, 0.00000000, 0.00000000, 107.47927856, -13.97440243, 116.88094330, 1.00000000, 0.00000000, 0.00000000, 0.00000000, -0.82038283, -0.12564825, -0.10537124, 0.00000000, 0.00000000, 0.00000000, 0.00000000
1, 2.2100, 221, 0.09698141, -0.65543103, 0.27336276, 4.57918262, -168.81729126, -39.50870895, 0.00000000, 0.00000000, 0.00000000, 107.88292694, -13.08528709, 115.34998322, 1.00000000, 0.00000000, 0.00000000, 0.00000000, -0.32897690, -0.27108967, 0.02280433, 0.00000000, 0.00000000, 0.00000000, 0.00000000
1, 2.2200, 222, -0.32871509, -0.77960688, 0.42356676, 16.45203781, -137.90496826, -38.60712051, 0.00000000, 0.00000000, 0.00000000, 108.36418152, -12.34133244, 114.04676819, 1.00000000, 0.00000000, 0.00000000, 0.00000000, 0.11069699, -0.14769074, -0.11931483, 0.00000000, 0.00000000, 0.00000000, 0.00000000
1, 2.2300, 223, -0.31727818, -0.99825835, 0.42923808, 21.59218979, -90.21845245, -47.50488663, 0.00000000, 0.00000000, 0.00000000, 108.72994995, -11.60407734, 113.32695007, 1.00000000, 0.00000000, 0.00000000, 0.00000000, 0.11144426, 0.07083790, -0.11697521, 0.00000000, 0.00000000, 0.00000000, 0.00000000
1, 2.2400, 224, -0.28943115, -1.17734444, 0.31418842, 18.38097572, -30.50077629, -63.57823944, 0.00000000, 0.00000000, 0.00000000, 108.93106842, -10.90404320, 113.24180603, 1.00000000, 0.00000000, 0.00000000, 0.00000000, 0.09583963, 0.24896806, 0.00302988, 0.00000000, 0.00000000, 0.00000000, 0.00000000
1, 2.2500, 225, -0.23874731, -1.15911257, 0.42959121, 19.20235062, 17.13463974, -75.41609192, 0.00000000, 0.00000000, 0.00000000, 109.04745483, -10.24676991, 113.65621185, 1.00000000, 0.00000000, 0.00000000, 0.00000000, 0.05671859, 0.22944137, -0.10933109, 0.00000000, 0.00000000, 0.00000000, 0.00000000
1, 2.2600, 226, 0.19445458, -0.99532640, 0.46274319, 13.04776859, 35.90929794, -79.79169464, 0.00000000, 0.00000000, 0.00000000, 109.07277679, -9.60995007, 114.26542664, 1.00000000, 0.00000000, 0.00000000, 0.00000000, -0.36554354, 0.06415932, -0.14080113, 0.00000000, 0.00000000, 0.00000000, 0.00000000
1, 2.2700, 227, 0.26791242, -0.94338387, 0.26405820, 2.09961247, 13.12299919, -74.02912140, 0.00000000, 0.00000000, 0.00000000, 108.98291016, -8.73084641, 114.83306122, 1.00000000, 0.00000000, 0.00000000, 0.00000000, -0.42679405, 0.01007909, 0.05793136, 0.00000000, 0.00000000, 0.00000000, 0.00000000
1, 2.2800, 228, 0.27353415, -0.94335508, 0.26777482, 6.18547010, -7.72823715, -60.27313232, 0.00000000, 0.00000000, 0.00000000, 109.02632904, -8.13577461, 114.95753479, 1.00000000, 0.00000000, 0.00000000, 0.00000000, -0.41877991, 0.00787437, 0.05436096, 0.00000000, 0.00000000, 0.00000000, 0.00000000
1, 2.2900, 229, 0.46902317, -0.94498259, 0.29231209, 8.82240677, -34.49184036, -49.40397644, 0.00000000, 0.00000000, 0.00000000, 109.13693237, -7.55607367, 114.79154205, 1.00000000, 0.00000000, 0.00000000, 0.00000000, -0.60432655, 0.00868994, 0.03178811, 0.00000000, 0.00000000, 0.00000000, 0.00000000
1, 2.3000, 230, 0.36504695, -0.94101673, 0.34691662, 8.03830242, -66.53067780, -41.59999084, 0.00000000, 0.00000000, 0.00000000, 109.27960968, -6.94433355, 114.29617310, 1.00000000, 0.00000000, 0.00000000, 0.00000000, -0.48994267, 0.00416577, -0.02026399, 0.00000000, 0.00000000, 0.00000000, 0.00000000
1, 2.3100, 231, 0.09686200, -0.93101734, 0.44634804, 9.57715607, -77.80590057, -34.76959229, 0.00000000, 0.00000000, 0.00000000, 109.44746399, -6.35833597, 113.67319489, 1.00000000, 0.00000000, 0.00000000, 0.00000000, -0.21133655, -0.00608820, -0.11662077, 0.00000000, 0.00000000, 0.00000000, 0.00000000
1, 2.3200, 232, 0.00485775, -0.93949091, 0.46667635, 8.83587170, -65.87564087, -31.05004311, 0.00000000, 0.00000000, 0.00000000, 109.63501740, -5.79991961, 113.15097809, 1.00000000, 0.00000000, 0.00000000, 0.00000000, -0.10970625, 0.00235026, -0.13386101, 0.00000000, 0.00000000, 0.00000000, 0.00000000
1, 2.3300, 233, 0.07360701, -0.95565641, 0.45101804, 9.68094444, -47.92706680, -31.05877495, 0.00000000, 0.00000000, 0.00000000, 109.76571655, -5.34597874, 112.80279541, 1.00000000, 0.00000000, 0.00000000, 0.00000000, -0.16969030, 0.01863404, -0.11523283, 0.00000000, 0.00000000, 0.00000000, 0.00000000
1, 2.3400, 234, 0.14444560, -1.00151360, 0.37930912, 10.00659370, -34.65451050, -33.63615417, 0.00000000, 0.00000000, 0.00000000, 109.88484955, -4.91203833, 112.59001923, 1.00000000, 0.00000000, 0.00000000, 0.00000000, -0.23287821, 0.06457555, -0.04119412, 0.00000000, 0.00000000, 0.00000000, 0.00000000
1, 2.3500, 235, 0.07851698, -1.04147744, 0.32441512, 6.72010517, -28.61117172, -30.46232796, 0.00000000, 0.00000000, 0.00000000, 109.96567535, -4.52812910, 112.42430115, 1.00000000, 0.00000000, 0.00000000, 0.00000000, -0.15991139, 0.10452826, 0.01543454, 0.00000000, 0.00000000, 0.00000000, 0.00000000
1, 2.3600, 236, 0.25267431, -1.05477357, 0.25718409, 8.22821808, -30.24386406, -27.28018951, 0.00000000, 0.00000000, 0.00000000, 110.06240845, -4.16828442, 112.23293304, 1.00000000, 0.00000000, 0.00000000, 0.00000000, -0.32772115, 0.11787134, 0.08425236, 0.00000000, 0.00000000, 0.00000000, 0.00000000
1, 2.3700, 237, 0.28967926, -1.08028042, 0.22951643, 8.39619637, -54.00900269, -24.22008514, 0.00000000, 0.00000000, 0.00000000, 110.12062073, -3.62585449, 111.91791534, 1.00000000, 0.00000000, 0.00000000, 0.00000000, -0.35738224, 0.14346111, 0.11367086, 0.00000000, 0.00000000, 0.00000000, 0.00000000
1, 2.3800, 238, 0.14776178, -1.05038905, 0.26292923, 9.99820232, -69.81864166, -23.23613548, 0.00000000, 0.00000000, 0.00000000, 110.25472260, -3.16684365, 111.34178162, 1.00000000, 0.00000000, 0.00000000, 0.00000000, -0.20604765, 0.11350359, 0.08180619, 0.00000000, 0.00000000, 0.00000000, 0.00000000
1, 2.3900, 239, -0.04551673, -0.95569152, 0.29886937, 13.23607826, -73.58879852, -26.19007683, 0.00000000, 0.00000000, 0.00000000, 110.41766357, -2.66557074, 110.74198151, 1.00000000, 0.00000000, 0.00000000, 0.00000000, -0.00432452, 0.01929259, 0.04850094, 0.00000000, 0.00000000, 0.00000000, 0.00000000
1, 2.4000, 240, -0.12138278, -0.85860002, 0.36477011, 18.10273743, -63.05697250, -33.66761398, 0.00000000, 0.00000000, 0.00000000, 110.61862946, -2.12928438, 110.26901245, 1.00000000, 0.00000000, 0.00000000, 0.00000000, 0.08063313, -0.07702880, -0.01415607, 0.00000000, 0.00000000, 0.00000000, 0.00000000
1, 2.4100, 241, -0.17175934, -0.85575545, 0.32793343, 18.13406181, -44.19903946, -47.18251419, 0.00000000, 0.00000000, 0.00000000, 110.80813599, -1.53172469, 110.02233887, 1.00000000, 0.00000000, 0.00000000, 0.00000000, 0.14111677, -0.07901447, 0.02598294, 0.00000000, 0.00000000, 0.00000000, 0.00000000
1, 2.4200, 242, -0.10129695, -0.88201660, 0.43329883, 18.79650879, -20.66645432, -56.08273315, 0.00000000, 0.00000000, 0.00000000, 111.04212189, -0.90038604, 110.02991486, 1.00000000, 0.00000000, 0.00000000, 0.00000000, 0.08115833, -0.05175006, -0.07599927, 0.00000000, 0.00000000, 0.00000000, 0.00000000
1, 2.4300, 243, 0.13475500, -0.95906299, 0.40935937, 14.12408161, -13.88145351, -62.08776474, 0.00000000, 0.00000000, 0.00000000, 111.18241882, -0.27119547, 110.12410736, 1.00000000, 0.00000000, 0.00000000, 0.00000000, -0.14360467, 0.02636215, -0.04883046, 0.00000000, 0.00000000, 0.00000000, 0.00000000
1, 2.4400, 244, 0.12579121, -1.00723898, 0.43384123, 12.56542492, -20.28887367, -62.93168640, 0.00000000, 0.00000000, 0.00000000, 111.30805206, 0.38888505, 110.16304779, 1.00000000, 0.00000000, 0.00000000, 0.00000000, -0.12337495, 0.07530312, -0.07124113, 0.00000000, 0.00000000, 0.00000000, 0.00000000
1, 2.4500, 245, 0.13455757, -1.04056263, 0.43807337, 12.15412140, -30.43592644, -63.79874039, 0.00000000, 0.00000000, 0.00000000, 111.42879486, 1.09393716, 110.11209869, 1.00000000, 0.00000000, 0.00000000, 0.00000000, -0.12020694, 0.10951667, -0.07347043, 0.00000000, 0.00000000, 0.00000000, 0.00000000
1, 2.4600, 246, 0.07241365, -1.01744235, 0.41296813, 10.20890331, -48.45094681, -68.76458740, 0.00000000, 0.00000000, 0.00000000, 111.52563477, 1.91124046, 109.91295624, 1.00000000, 0.00000000, 0.00000000, 0.00000000, -0.04457746, 0.08733176, -0.04676773, 0.00000000, 0.00000000, 0.00000000, 0.00000000
1, 2.4700, 247, -0.16111036, -0.98733634, 0.44153386, 8.40004444, -57.62916946, -79.36765289, 0.00000000, 0.00000000, 0.00000000, 111.61441040, 2.78954601, 109.62056732, 1.00000000, 0.00000000, 0.00000000, 0.00000000, 0.20431519, 0.05829014, -0.07412703, 0.00000000, 0.00000000, 0.00000000, 0.00000000
1, 2.4800, 248, -0.32233295, -1.02595210, 0.49500984, 6.50587702, -55.06753159, -92.82360840, 0.00000000, 0.00000000, 0.00000000, 111.66976166, 3.85543704, 109.45079803, 1.00000000, 0.00000000, 0.00000000, 0.00000000, 0.38250816, 0.09819965, -0.12673452, 0.00000000, 0.00000000, 0.00000000, 0.00000000
1, 2.4900, 249, -0.25956461, -1.12506652, 0.52465254, 2.96747327, -43.15982056, -111.36401367, 0.00000000, 0.00000000, 0.00000000, 111.70050049, 5.04973841, 109.46132660, 1.00000000, 0.00000000, 0.00000000, 0.00000000, 0.33956292, 0.19886200, -0.15626368, 0.00000000, 0.00000000, 0.00000000, 0.00000000
1, 2.5000, 250, -0.28168762, -1.27928090, 0.44171759, -2.77148533, -35.46382523, -130.76708984, 0.00000000, 0.00000000, 0.00000000, 111.68848419, 6.39586353, 109.61610413, 1.00000000, 0.00000000, 0.00000000, 0.00000000, 0.38414344, 0.35504398, -0.07396138, 0.00000000, 0.00000000, 0.00000000, 0.00000000
1, 2.5100, 251, -0.23123679, -1.36409676, 0.43365604, -7.00181866, -30.19781876, -145.73750305, 0.00000000, 0.00000000, 0.00000000, 111.65077972, 7.86175537, 109.87557983, 1.00000000, 0.00000000, 0.00000000, 0.00000000, 0.35830989, 0.44228661, -0.06750587, 0.00000000, 0.00000000, 0.00000000, 0.00000000
1, 2.5200, 252, -0.11176249, -1.40613472, 0.38315400, -8.66436100, -31.48189545, -159.73162842, 0.00000000, 0.00000000, 0.00000000, 111.59130859, 9.43077755, 110.16230774, 1.00000000, 0.00000000, 0.00000000, 0.00000000, 0.26545560, 0.48757082, -0.01906759, 0.00000000, 0.00000000, 0.00000000, 0.00000000
1, 2.5300, 253, -0.15353517, -1.38027489, 0.38171348, -8.39197254, -33.62356186, -173.72451782, 0.00000000, 0.00000000, 0.00000000, 111.56668091, 11.16993618, 110.49383545, 1.00000000, 0.00000000, 0.00000000, 0.00000000, 0.33590329, 0.46595502, -0.02020546, 0.00000000, 0.00000000, 0.00000000, 0.00000000
1, 2.5400, 254, -0.14886917, -1.38456488, 0.42406979, -6.86684847, -30.89509201, -186.73039246, 0.00000000, 0.00000000, 0.00000000, 111.58360291, 13.02002335, 110.90219879, 1.00000000, 0.00000000, 0.00000000, 0.00000000, 0.36217260, 0.47606981, -0.06482656, 0.00000000, 0.00000000, 0.00000000, 0.00000000
1, 2.5500, 255, -0.20856424, -1.44105911, 0.38670397, -6.59731865, -37.05873871, -196.32591248, 0.00000000, 0.00000000, 0.00000000, 111.61199951, 14.98187160, 111.29174042, 1.00000000, 0.00000000, 0.00000000, 0.00000000, 0.45460820, 0.53988957, -0.02996349, 0.00000000, 0.00000000, 0.00000000, 0.00000000
1, 2.5600, 256, 0.04160868, -1.50645578, 0.39432645, 0.85527533, -37.76604843, -202.48016357, 0.00000000, 0.00000000, 0.00000000, 111.73389435, 17.00302696, 111.70436859, 1.00000000, 0.00000000, 0.00000000, 0.00000000, 0.23795012, 0.61432552, -0.03957105, 0.00000000, 0.00000000, 0.00000000, 0.00000000
1, 2.5700, 257, 0.11273888, -1.63136613, 0.20010772, 0.86497021, -54.79216385, -207.40577698, 0.00000000, 0.00000000, 0.00000000, 111.79964447, 19.11108780, 111.96916962, 1.00000000, 0.00000000, 0.00000000, 0.00000000, 0.20161924, 0.74992144, 0.15221001, 0.00000000, 0.00000000, 0.00000000, 0.00000000
1, 2.5800, 258, -0.06198835, -1.72517681, 0.18649854, 8.04424667, -84.34088898, -204.27217102, 0.00000000, 0.00000000, 0.00000000, 111.87075043, 21.32097244, 111.94456482, 1.00000000, 0.00000000, 0.00000000, 0.00000000, 0.41202885, 0.85581350, 0.16215916, 0.00000000, 0.00000000, 0.00000000, 0.00000000
1, 2.5900, 259, -0.23100209, -1.82257199, 0.05216094, 14.57758045, -110.09999084, -195.50376892, 0.00000000, 0.00000000, 0.00000000, 111.89434052, 23.54549408, 111.62712860, 1.00000000, 0.00000000, 0.00000000, 0.00000000, 0.61697531, 0.96661508, 0.29170534, 0.00000000, 0.00000000, 0.00000000, 0.00000000
1, 2.6000, 260, -0.25870201, -2.10805917, -0.02891893, 22.18004799, -146.35346985, -188.74458313, 0.00000000, 0.00000000, 0.00000000, 111.81368256, 25.84217262, 110.90532684, 1.00000000, 0.00000000, 0.00000000, 0.00000000, 0.68097007, 1.26680183, 0.36633477, 0.00000000, 0.00000000, 0.00000000, 0.00000000
1, 2.6100, 261, -0.31198826, -2.49620056, 0.16484356, 26.47747803, -176.08221436, -183.12796021, 0.00000000, 0.00000000, 0.00000000, 111.58824158, 28.19494438, 109.82907867, 1.00000000, 0.00000000, 0.00000000, 0.00000000, 0.77065647, 1.67060304, 0.16360381, 0.00000000, 0.00000000, 0.00000000, 0.00000000
1, 2.6200, 262, -0.56994718, -2.93603802, 0.41841692, 19.37317467, -213.80230713, -181.50830078, 0.00000000, 0.00000000, 0.00000000, 111.02762604, 30.65304947, 108.29337311, 1.00000000, 0.00000000, 0.00000000, 0.00000000, 1.06584179, 2.12679911, -0.10366357, 0.00000000, 0.00000000, 0.00000000, 0.00000000
1, 2.6300, 263, -1.00010014, -2.93651724, 0.80455148, -0.67231923, -180.73130798, -195.43234253, 0.00000000, 0.00000000, 0.00000000, 110.40167999, 33.12094879, 107.11835480, 1.00000000, 0.00000000, 0.00000000, 0.00000000, 1.53286266, 2.14472628, -0.50609004, 0.00000000, 0.00000000, 0.00000000, 0.00000000
1, 2.6400, 264, -1.24218476, -2.44660544, 1.24379611, -31.50769997, -135.81245422, -218.23674011, 0.00000000, 0.00000000, 0.00000000, 109.72847748, 35.63718796, 106.48053741, 1.00000000, 0.00000000, 0.00000000, 0.00000000, 1.81128883, 1.67384887, -0.96306646, 0.00000000, 0.00000000, 0.00000000, 0.00000000
1, 2.6500, 265, -1.08068657, -1.89798594, 1.50643706, -37.49856949, -63.26033783, -244.04678345, 0.00000000, 0.00000000, 0.00000000, 109.52397156, 38.14868927, 106.76052094, 1.00000000, 0.00000000, 0.00000000, 0.00000000, 1.68532848, 1.14754510, -1.23979795, 0.00000000, 0.00000000, 0.00000000, 0.00000000
1, 2.6600, 266, -1.13046563, -1.79240024, 1.44057381, -40.23867798, -10.78013897, -246.15939331, 0.00000000, 0.00000000, 0.00000000, 109.71627808, 40.50338745, 107.69865417, 1.00000000, 0.00000000, 0.00000000, 0.00000000, 1.76824141, 1.06713772, -1.18152595, 0.00000000, 0.00000000, 0.00000000, 0.00000000
1, 2.6700, 267, -1.21754062, -1.70491374, 1.25204110, -64.20933533, 13.06605816, -238.44519043, 0.00000000, 0.00000000, 0.00000000, 109.91255951, 42.67229080, 108.92666626, 1.00000000, 0.00000000, 0.00000000, 0.00000000, 1.88517678, 1.00459516, -0.99964058, 0.00000000, 0.00000000, 0.00000000, 0.00000000
1, 2.6800, 268, -1.34792113, -1.60509908, 0.54829800, -89.76806641, 68.46369934, -206.43577576, 0.00000000, 0.00000000, 0.00000000, 110.30252838, 44.37565994, 110.79364014, 1.00000000, 0.00000000, 0.00000000, 0.00000000, 2.03985143, 0.92732227, -0.29972896, 0.00000000, 0.00000000, 0.00000000, 0.00000000
1, 2.6900, 269, -0.53900015, -1.36473572, 0.02128401, -85.22525787, 55.44268799, -178.80375671, 0.00000000, 0.00000000, 0.00000000, 110.59851074, 45.85760880, 112.41440582, 1.00000000, 0.00000000, 0.00000000, 0.00000000, 1.24975693, 0.70575750, 0.22472167, 0.00000000, 0.00000000, 0.00000000, 0.00000000
1, 2.7000, 270, 1.61027002, -0.74715698, 0.56716019, -74.35519409, 80.18199921, -190.92953491, 0.00000000, 0.00000000, 0.00000000, 111.36850739, 47.35277176, 114.49908447, 1.00000000, 0.00000000, 0.00000000, 0.00000000, -0.88147885, 0.10844631, -0.32047847, 0.00000000, 0.00000000, 0.00000000, 0.00000000
1, 2.7100, 271, 2.33318877, -0.71143383, 1.08829153, -9.14891529, -14.82580757, -156.99194336, 0.00000000, 0.00000000, 0.00000000, 111.76336670, 48.86773300, 115.15410614, 1.00000000, 0.00000000, 0.00000000, 0.00000000, -1.58640277, 0.09312198, -0.84345442, 0.00000000, 0.00000000, 0.00000000, 0.00000000
1, 2.7200, 272, 0.02064510, -1.22751296, 1.52208078, -10.79737091, -7.58668852, -84.96490479, 0.00000000, 0.00000000, 0.00000000, 111.98543549, 49.63858795, 115.51737976, 1.00000000, 0.00000000, 0.00000000, 0.00000000, 0.73906249, 0.62429231, -1.27926695, 0.00000000, 0.00000000, 0.00000000, 0.00000000
1, 2.7300, 273, -1.21378505, -0.79835349, 0.91938227, -54.25196457, 48.32116699, -21.16193581, 0.00000000, 0.00000000, 0.00000000, 112.06446075, 49.65369415, 116.33241272, 1.00000000, 0.00000000, 0.00000000, 0.00000000, 1.97638845, 0.19866924, -0.67686528, 0.00000000, 0.00000000, 0.00000000, 0.00000000
1, 2.7400, 274, -1.02846682, -0.61715674, 0.16520959, -18.72443390, 36.02304840, 25.45345116, 0.00000000, 0.00000000, 0.00000000, 112.15592957, 49.28230286, 116.69883728, 1.00000000, 0.00000000, 0.00000000, 0.00000000, 1.78811920, 0.01473364, 0.07976185, 0.00000000, 0.00000000, 0.00000000, 0.00000000
1, 2.7500, 275, -0.49977538, -0.69491571, 0.02657177, -25.80668640, 32.72157288, 52.16992188, 0.00000000, 0.00000000, 0.00000000, 112.02087402, 48.67561722, 116.86138153, 1.00000000, 0.00000000, 0.00000000, 0.00000000, 1.25347638, 0.08617891, 0.22114635, 0.00000000, 0.00000000, 0.00000000, 0.00000000
1, 2.7600, 276, 0.05298983, -0.50726539, -0.21854588, -59.90596008, -25.16469383, 72.23886108, 0.00000000, 0.00000000, 0.00000000, 110.86117554, 48.09481812, 116.11086273, 1.00000000, 0.00000000, 0.00000000, 0.00000000, 0.69376057, -0.11215841, 0.46073037, 0.00000000, 0.00000000, 0.00000000, 0.00000000
1, 2.7700, 277, 0.38984147, -0.35837007, -0.32337886, -66.29724121, -55.82572937, 93.67207336, 0.00000000, 0.00000000, 0.00000000, 109.13369751, 47.44575882, 114.83430481, 1.00000000, 0.00000000, 0.00000000, 0.00000000, 0.34968123, -0.27473301, 0.55194288, 0.00000000, 0.00000000, 0.00000000, 0.00000000
1, 2.7800, 278, 0.47491962, -0.29220638, -0.14281300, -64.43598175, -67.99358368, 132.80892944, 0.00000000, 0.00000000, 0.00000000, 107.35417175, 46.39692688, 113.28089142, 1.00000000, 0.00000000, 0.00000000, 0.00000000, 0.25441372, -0.35833353, 0.35448617, 0.00000000, 0.00000000, 0.00000000, 0.00000000
1, 2.7900, 279, 0.13051945, -0.24245435, 0.04557038, -60.82061768, -73.09034729, 187.07446289, 0.00000000, 0.00000000, 0.00000000, 105.48969269, 44.80882263, 111.52342224, 1.00000000, 0.00000000, 0.00000000, 0.00000000, 0.58198547, -0.43131372, 0.15004937, 0.00000000, 0.00000000, 0.00000000, 0.00000000
1, 2.8000, 280, -0.30538034, -0.16277033, 0.17221785, -59.40197372, -61.93463135, 223.11436462, 0.00000000, 0.00000000, 0.00000000, 103.77921295, 42.80650330, 109.91252899, 1.00000000, 0.00000000, 0.00000000, 0.00000000, 0.99478358, -0.53879750, 0.00775690, 0.00000000, 0.00000000, 0.00000000, 0.00000000
1, 2.8100, 281, -0.52708107, -0.12979218, 0.27007675, -47.09501266, -27.35127258, 242.35804749, 0.00000000, 0.00000000, 0.00000000, 102.57868195, 40.50911713, 108.81755829, 1.00000000, 0.00000000, 0.00000000, 0.00000000, 1.18822408, -0.60121816, -0.10164921, 0.00000000, 0.00000000, 0.00000000, 0.00000000
1, 2.8200, 282, -0.43818656, -0.19892113, 0.25506932, -34.77140045, 19.49619484, 255.28890991, 0.00000000, 0.00000000, 0.00000000, 101.98941040, 37.88765717, 108.30304718, 1.00000000, 0.00000000, 0.00000000, 0.00000000, 1.06640768, -0.56157345, -0.09132241, 0.00000000, 0.00000000, 0.00000000, 0.00000000
1, 2.8300, 283, -0.23619951, -0.30804494, 0.22138432, -23.74096107, 57.82601547, 269.86761475, 0.00000000, 0.00000000, 0.00000000, 101.75927734, 35.12785339, 108.31688690, 1.00000000, 0.00000000, 0.00000000, 0.00000000, 0.82646811, -0.48193154, -0.05605353, 0.00000000, 0.00000000, 0.00000000, 0.00000000
1, 2.8400, 284, -0.09934441, -0.45996445, 0.20934691, -19.25121880, 74.55069733, 284.81414795, 0.00000000, 0.00000000, 0.00000000, 101.66747284, 32.18774796, 108.49926758, 1.00000000, 0.00000000, 0.00000000, 0.00000000, 0.64835870, -0.35837001, -0.03992671, 0.00000000, 0.00000000, 0.00000000, 0.00000000
1, 2.8500, 285, -0.04515518, -0.55261308, 0.17810223, -18.30259895, 83.39533997, 299.48358154, 0.00000000, 0.00000000, 0.00000000, 101.61050415, 29.08630562, 108.74649811, 1.00000000, 0.00000000, 0.00000000, 0.00000000, 0.54903269, -0.29329336, -0.00398224, 0.00000000, 0.00000000, 0.00000000, 0.00000000
1, 2.8600, 286, -0.06546061, -0.59692407, 0.21927445, -16.20961380, 85.80860901, 312.90823364, 0.00000000, 0.00000000, 0.00000000, 101.55859375, 25.84871292, 108.98581696, 1.00000000, 0.00000000, 0.00000000, 0.00000000, 0.52054667, -0.27527517, -0.04063230, 0.00000000, 0.00000000, 0.00000000, 0.00000000
1, 2.8700, 287, -0.11136390, -0.64971590, 0.23497316, -9.60510731, 99.10364532, 326.42352295, 0.00000000, 0.00000000, 0.00000000, 101.61936188, 22.40231133, 109.29640198, 1.00000000, 0.00000000, 0.00000000, 0.00000000, 0.51368701, -0.24699965, -0.05126328, 0.00000000, 0.00000000, 0.00000000, 0.00000000
1, 2.8800, 288, -0.08908536, -0.73726064, 0.27650702, 2.59307957, 121.79897308, 339.99859619, 0.00000000, 0.00000000, 0.00000000, 101.83338165, 18.82585335, 109.83270264, 1.00000000, 0.00000000, 0.00000000, 0.00000000, 0.43401736, -0.18156028, -0.08550806, 0.00000000, 0.00000000, 0.00000000, 0.00000000
1, 2.8900, 289, 0.00272351, -0.85675454, 0.25704554, 10.29317951, 136.59136963, 351.08575439, 0.00000000, 0.00000000, 0.00000000, 102.12174988, 15.10805607, 110.46810150, 1.00000000, 0.00000000, 0.00000000, 0.00000000, 0.28144228, -0.08085687, -0.05754317, 0.00000000, 0.00000000, 0.00000000, 0.00000000
1, 2.9000, 290, 0.05491856, -0.99503964, 0.24960053, 12.90634060, 145.85586548, 362.65991211, 0.00000000, 0.00000000, 0.00000000, 102.40410614, 11.25444508, 111.14064789, 1.00000000, 0.00000000, 0.00000000, 0.00000000, 0.16515446, 0.04213175, -0.04181167, 0.00000000, 0.00000000, 0.00000000, 0.00000000
1, 2.9100, 291, 0.13272367, -1.14300692, 0.21192725, 15.32632256, 156.61328125, 375.88146973, 0.00000000, 0.00000000, 0.00000000, 102.67321014, 7.24536562, 111.86288452, 1.00000000, 0.00000000, 0.00000000, 0.00000000, 0.01954392, 0.17855307, 0.00314433, 0.00000000, 0.00000000, 0.00000000, 0.00000000
1, 2.9200, 292, 0.23692831, -1.37971127, 0.18880278, 19.54817200, 157.72332764, 389.19476318, 0.00000000, 0.00000000, 0.00000000, 102.92457581, 3.10895324, 112.55091858, 1.00000000, 0.00000000, 0.00000000, 0.00000000, -0.15560251, 0.40812355, 0.03253914, 0.00000000, 0.00000000, 0.00000000, 0.00000000
1, 2.9300, 293, 0.34351659, -1.65283906, 0.27045456, 21.36201096, 148.03312683, 400.38027954, 0.00000000, 0.00000000, 0.00000000, 103.14845276, -1.12545919, 113.08971405, 1.00000000, 0.00000000, 0.00000000, 0.00000000, -0.33535260, 0.67898583, -0.04437088, 0.00000000, 0.00000000, 0.00000000, 0.00000000
1, 2.9400, 294, 0.53105634, -1.90598273, 0.38780138, 17.29170227, 131.89796448, 406.18954468, 0.00000000, 0.00000000, 0.00000000, 103.30268860, -5.38123035, 113.44474030, 1.00000000, 0.00000000, 0.00000000, 0.00000000, -0.59708786, 0.93492937, -0.15918744, 0.00000000, 0.00000000, 0.00000000, 0.00000000
1, 2.9500, 295, 0.84373671, -2.11979485, 0.51116192, 14.35746861, 98.08692169, 409.74664307, 0.00000000, 0.00000000, 0.00000000, 103.44776154, -9.59425640, 113.45092773, 1.00000000, 0.00000000, 0.00000000, 0.00000000, -0.98320061, 1.15670431, -0.28184754, 0.00000000, 0.00000000, 0.00000000, 0.00000000
1, 2.9600, 296, 1.07040572, -2.10616684, 0.72834253, 7.68892097, 62.81414413, 414.67971802, 0.00000000, 0.00000000, 0.00000000, 103.60087585, -13.77279377, 113.08400726, 1.00000000, 0.00000000, 0.00000000, 0.00000000, -1.28180957, 1.15614295, -0.49954578, 0.00000000, 0.00000000, 0.00000000, 0.00000000
1, 2.9700, 297, 1.17583799, -2.03590989, 0.85183024, 2.85652518, 22.65277290, 417.11773682, 0.00000000, 0.00000000, 0.00000000, 103.85436249, -17.85994720, 112.29296112, 1.00000000, 0.00000000, 0.00000000, 0.00000000, -1.45721853, 1.10399699, -0.62386495, 0.00000000, 0.00000000, 0.00000000, 0.00000000
1, 2.9800, 298, 1.25402725, -2.17712975, 0.88629431, -2.82145333, -25.18343735, 410.00860596, 0.00000000, 0.00000000, 0.00000000, 104.27517700, -21.77597618, 110.97438812, 1.00000000, 0.00000000, 0.00000000, 0.00000000, -1.60129273, 1.26781189, -0.65785712, 0.00000000, 0.00000000, 0.00000000, 0.00000000
1, 2.9900, 299, 1.19702506, -2.28037858, 1.02755046, 0.00191850, -29.37311554, 388.43569946, 0.00000000, 0.00000000, 0.00000000, 104.82513428, -25.46214676, 109.59956360, 1.00000000, 0.00000000, 0.00000000, 0.00000000, -1.60518789, 1.39718008, -0.79724848, 0.00000000, 0.00000000, 0.00000000, 0.00000000
1, 3.0000, 300, 1.29699731, -2.38580799, 1.12211370, 7.73276806, 0.00992273, 358.79891968, 0.00000000, 0.00000000, 0.00000000, 105.38241577, -28.92632294, 108.54896545, 1.00000000, 0.00000000, 0.00000000, 0.00000000, -1.76108885, 1.53104186, -0.89036018, 0.00000000, 0.00000000, 0.00000000, 0.00000000
1, 3.0100, 301, 1.70844674, -2.46326065, 0.91829860, -1.14083183, 21.61672401, 310.02462769, 0.00000000, 0.00000000, 0.00000000, 105.73622894, -31.97078705, 107.82522583, 1.00000000, 0.00000000, 0.00000000, 0.00000000, -2.22138643, 1.63671315, -0.68700361, 0.00000000, 0.00000000, 0.00000000, 0.00000000
1, 3.0200, 302, 1.98344195, -2.07050943, 0.63133049, -5.97313261, 74.77250671, 252.87573242, 0.00000000, 0.00000000, 0.00000000, 105.65037537, -34.58768082, 107.88031006, 1.00000000, 0.00000000, 0.00000000, 0.00000000, -2.53743458, 1.26921320, -0.40581021, 0.00000000, 0.00000000, 0.00000000, 0.00000000
1, 3.0300, 303, 2.62729740, -1.52001512, 0.61294365, 12.27907753, 125.94027710, 186.82878113, 0.00000000, 0.00000000, 0.00000000, 105.25748444, -36.72392654, 108.76224518, 1.00000000, 0.00000000, 0.00000000, 0.00000000, -3.21467686, 0.73987132, -0.39786923, 0.00000000, 0.00000000, 0.00000000, 0.00000000
1, 3.0400, 304, 3.72267604, -1.10995388, 0.52209812, 7.12587690, 65.43382263, 118.26429749, 0.00000000, 0.00000000, 0.00000000, 105.08368683, -38.03658676, 109.16735077, 1.00000000, 0.00000000, 0.00000000, 0.00000000, -4.33298492, 0.34522200, -0.31552267, 0.00000000, 0.00000000, 0.00000000, 0.00000000
1, 3.0500, 305, 3.95689416, -0.69154572, 0.34700134, 0.44293839, -30.83071899, 55.31669617, 0.00000000, 0.00000000, 0.00000000, 105.43854523, -38.48910141, 108.60311890, 1.00000000, 0.00000000, 0.00000000, 0.00000000, -4.57784510, -0.06469291, -0.14080426, 0.00000000, 0.00000000, 0.00000000, 0.00000000
1, 3.0600, 306, 3.22704506, -0.53675848, 0.37877634, 16.70636559, -95.76085663, -1.13767028, 0.00000000, 0.00000000, 0.00000000, 106.33274841, -38.21643829, 107.43264008, 1.00000000, 0.00000000, 0.00000000, 0.00000000, -3.84777832, -0.21697177, -0.16298676, 0.00000000, 0.00000000, 0.00000000, 0.00000000
1, 3.0700, 307, 2.49540377, -1.08660698, 0.48596913, 32.74419785, -85.87618256, -72.73648071, 0.00000000, 0.00000000, 0.00000000, 107.13683319, -37.24789810, 106.67134094, 1.00000000, 0.00000000, 0.00000000, 0.00000000, -3.10642886, 0.32904601, -0.25637269, 0.00000000, 0.00000000, 0.00000000, 0.00000000
1, 3.0800, 308, 1.72994852, -1.48908198, 0.83593601, 15.26867580, -40.94303131, -185.84236145, 0.00000000, 0.00000000, 0.00000000, 107.17571259, -35.35164261, 106.86705017, 1.00000000, 0.00000000, 0.00000000, 0.00000000, -2.31941700, 0.71758628, -0.59671247, 0.00000000, 0.00000000, 0.00000000, 0.00000000
1, 3.0900, 309, -0.47278267, -1.42796350, 0.93903095, -11.36483765, 56.08460236, -272.09576416, 0.00000000, 0.00000000, 0.00000000, 106.17044067, -32.90666199, 108.46113586, 1.00000000, 0.00000000, 0.00000000, 0.00000000, -0.08415926, 0.63226092, -0.70132858, 0.00000000, 0.00000000, 0.00000000, 0.00000000
1, 3.1000, 310, -3.56916857, -1.34975994, 1.75761521, -6.13385630, 230.26156616, -265.46905518, 0.00000000, 0.00000000, 0.00000000, 104.30201721, -30.94463348, 111.89691162, 1.00000000, 0.00000000, 0.00000000, 0.00000000, 3.04526973, 0.52706069, -1.53726804, 0.00000000, 0.00000000, 0.00000000, 0.00000000
1, 3.1100, 311, -3.43964696, -2.52610731, -0.48758972, 22.56736946, 138.63659668, -147.18882751, 0.00000000, 0.00000000, 0.00000000, 103.52574921, -29.84944344, 113.86824036, 1.00000000, 0.00000000, 0.00000000, 0.00000000, 2.93635678, 1.68654323, 0.69204050, 0.00000000, 0.00000000, 0.00000000, 0.00000000
1, 3.1200, 312, 1.26782918, -2.25812507, -0.77295828, 5.28530025, 135.58959961, -144.38835144, 0.00000000, 0.00000000, 0.00000000, 102.65383148, -28.74148750, 115.76740265, 1.00000000, 0.00000000, 0.00000000, 0.00000000, -1.75604510, 1.40824723, 0.97119027, 0.00000000, 0.00000000, 0.00000000, 0.00000000
1, 3.1300, 313, 3.31835556, -2.78140306, -0.99319386, 19.57084084, 122.14754486, -254.30136108, 0.00000000, 0.00000000, 0.00000000, 101.92815399, -26.51526833, 117.72505951, 1.00000000, 0.00000000, 0.00000000, 0.00000000, -3.77907896, 1.91343403, 1.17819118, 0.00000000, 0.00000000, 0.00000000, 0.00000000
1, 3.1400, 314, 1.01004648, -1.93402529, 0.00608049, 12.11521912, -17.53211212, -218.21615601, 0.00000000, 0.00000000, 0.00000000, 101.91764069, -24.34411812, 118.03485870, 1.00000000, 0.00000000, 0.00000000, 0.00000000, -1.43418849, 1.04811418, 0.18144137, 0.00000000, 0.00000000, 0.00000000, 0.00000000
1, 3.1500, 315, -0.12189815, -0.90903932, -0.14286570, 14.59703636, 6.21761227, -188.30548096, 0.00000000, 0.00000000, 0.00000000, 101.86927032, -22.51422501, 118.52376556, 1.00000000, 0.00000000, 0.00000000, 0.00000000, -0.27167651, 0.00946711, 0.33205438, 0.00000000, 0.00000000, 0.00000000, 0.00000000
1, 3.1600, 316, 0.38778356, -0.82244456, -0.21621431, 39.57590485, -5.03446245, -155.67045593, 0.00000000, 0.00000000, 0.00000000, 102.15630341, -20.98100662, 118.81824493, 1.00000000, 0.00000000, 0.00000000, 0.00000000, -0.75482929, -0.08735888, 0.40980971, 0.00000000, 0.00000000, 0.00000000, 0.00000000
1, 3.1700, 317, 0.39458701, -0.68190354, 0.49540919, 60.81257248, 12.24421215, -135.27018738, 0.00000000, 0.00000000, 0.00000000, 102.75210571, -19.55270004, 119.22904968, 1.00000000, 0.00000000, 0.00000000, 0.00000000, -0.73883343, -0.23477376, -0.29258373, 0.00000000, 0.00000000, 0.00000000, 0.00000000
1, 3.1800, 318, 0.41420740, -0.44424960, 1.18036389, 55.69899368, -5.60270929, -121.97865295, 0.00000000, 0.00000000, 0.00000000, 103.23436737, -18.35168266, 119.46070862, 1.00000000, 0.00000000, 0.00000000, 0.00000000, -0.73622704, -0.47804460, -0.96673238, 0.00000000, 0.00000000, 0.00000000, 0.00000000
1, 3.1900, 319, 0.76597351, -0.76825315, 1.18339443, 96.13111115, 28.78634071, -111.35862732, 0.00000000, 0.00000000, 0.00000000, 104.02071381, -17.33700180, 120.03044128, 1.00000000, 0.00000000, 0.00000000, 0.00000000, -1.07043624, -0.15706161, -0.95743847, 0.00000000, 0.00000000, 0.00000000, 0.00000000
1, 3.2000, 320, 0.15304478, -1.36310041, 0.58348733, 42.37540436, -3.38885522, -131.20402527, 0.00000000, 0.00000000, 0.00000000, 104.35745239, -16.05684280, 120.33289337, 1.00000000, 0.00000000, 0.00000000, 0.00000000, -0.43788534, 0.43411589, -0.34724349, 0.00000000, 0.00000000, 0.00000000, 0.00000000
1, 3.2100, 321, 0.37372622, -1.39842796, 0.46285701, 27.99757957, -1.42379975, -123.93521118, 0.00000000, 0.00000000, 0.00000000, 104.55554199, -14.85314465, 120.63957214, 1.00000000, 0.00000000, 0.00000000, 0.00000000, -0.63738638, 0.46447372, -0.22165415, 0.00000000, 0.00000000, 0.00000000, 0.00000000
1, 3.2200, 322, 0.59498608, -1.11573803, 0.69136518, 13.86467552, -35.40197754, -97.37160492, 0.00000000, 0.00000000, 0.00000000, 104.79785156, -13.68259525, 120.56715393, 1.00000000, 0.00000000, 0.00000000, 0.00000000, -0.83969712, 0.17782831, -0.44558728, 0.00000000, 0.00000000, 0.00000000, 0.00000000
1, 3.2300, 323, 0.31558833, -0.76992309, 0.40758428, -1.93882370, -103.58325195, -70.92829895, 0.00000000, 0.00000000, 0.00000000, 104.96971893, -12.73102570, 119.72605896, 1.00000000, 0.00000000, 0.00000000, 0.00000000, -0.54190749, -0.17138001, -0.15717235, 0.00000000, 0.00000000, 0.00000000, 0.00000000
1, 3.2400, 324, -0.03325709, -0.72010779, 0.23504370, -0.58533913, -130.53990173, -51.89110565, 0.00000000, 0.00000000, 0.00000000, 105.20931244, -11.89022923, 118.57422638, 1.00000000, 0.00000000, 0.00000000, 0.00000000, -0.17801788, -0.22348490, 0.01986413, 0.00000000, 0.00000000, 0.00000000, 0.00000000
1, 3.2500, 325, -0.19685930, -0.80107033, 0.40340334, 17.12260246, -68.06762695, -50.68886948, 0.00000000, 0.00000000, 0.00000000, 105.48764801, -11.22137928, 118.04113007, 1.00000000, 0.00000000, 0.00000000, 0.00000000, -0.00200661, -0.14383225, -0.14340517, 0.00000000, 0.00000000, 0.00000000, 0.00000000
1, 3.2600, 326, -0.20763318, -1.01093018, 0.36566395, 15.74613190, -29.90826035, -61.73659134, 0.00000000, 0.00000000, 0.00000000, 105.66904449, -10.54646587, 117.91664124, 1.00000000, 0.00000000, 0.00000000, 0.00000000, 0.02024658, 0.06489000, -0.10131020, 0.00000000, 0.00000000, 0.00000000, 0.00000000
1, 3.2700, 327, -0.22448055, -1.19595003, 0.31575996, 14.96460056, 9.04406548, -74.23468018, 0.00000000, 0.00000000, 0.00000000, 105.75798798, -9.84853077, 118.21647644, 1.00000000, 0.00000000, 0.00000000, 0.00000000, 0.04886980, 0.24836700, -0.04886091, 0.00000000, 0.00000000, 0.00000000, 0.00000000
1, 3.2800, 328, -0.01545862, -1.22650206, 0.31046095, 14.07692051, 33.09158707, -79.48754120, 0.00000000, 0.00000000, 0.00000000, 105.80929565, -9.17367077, 118.75857544, 1.00000000, 0.00000000, 0.00000000, 0.00000000, -0.14828086, 0.27724183, -0.04197731, 0.00000000, 0.00000000, 0.00000000, 0.00000000
1, 3.2900, 329, 0.31889278, -1.09840918, 0.31508359, 10.27965546, 26.89231491, -73.96691895, 0.00000000, 0.00000000, 0.00000000, 105.84016418, -8.53537369, 119.22460938, 1.00000000, 0.00000000, 0.00000000, 0.00000000, -0.47138336, 0.14759102, -0.04548725, 0.00000000, 0.00000000, 0.00000000, 0.00000000
1, 3.3000, 330, 0.36897975, -0.96602261, 0.23479925, 3.70331120, -2.58044195, -65.39681244, 0.00000000, 0.00000000, 0.00000000, 105.85469055, -7.89921618, 119.37999725, 1.00000000, 0.00000000, 0.00000000, 0.00000000, -0.51054615, 0.01372582, 0.03553421, 0.00000000, 0.00000000, 0.00000000, 0.00000000
1, 3.3100, 331, 0.39237022, -0.90812683, 0.21800920, 5.83155441, -27.27610016, -55.77448654, 0.00000000, 0.00000000, 0.00000000, 105.92737579, -7.28807974, 119.26936340, 1.00000000, 0.00000000, 0.00000000, 0.00000000, -0.52313352, -0.04537956, 0.05350122, 0.00000000, 0.00000000, 0.00000000, 0.00000000
1, 3.3200, 332, 0.27631253, -0.92624795, 0.26824629, 6.39820004, -50.12313843, -46.49623108, 0.00000000, 0.00000000, 0.00000000, 106.06787109, -6.58009100, 118.95706177, 1.00000000, 0.00000000, 0.00000000, 0.00000000, -0.39626285, -0.02805230, 0.00544973, 0.00000000, 0.00000000, 0.00000000, 0.00000000
1, 3.3300, 333, 0.09126958, -0.93174434, 0.38350728, 6.46866655, -55.46539688, -41.78281021, 0.00000000, 0.00000000, 0.00000000, 106.17862701, -6.02467251, 118.53771210, 1.00000000, 0.00000000, 0.00000000, 0.00000000, -0.19979309, -0.02318422, -0.10723457, 0.00000000, 0.00000000, 0.00000000, 0.00000000
1, 3.3400, 334, -0.11007237, -0.97078568, 0.49394941, 7.91195011, -43.64617538, -41.69613647, 0.00000000, 0.00000000, 0.00000000, 106.28838348, -5.50234652, 118.23367310, 1.00000000, 0.00000000, 0.00000000, 0.00000000, 0.01084581, 0.01547123, -0.21552220, 0.00000000, 0.00000000, 0.00000000, 0.00000000
1, 3.3500, 335, -0.03442399, -0.98898351, 0.43476576, 10.03229046, -24.79782486, -42.44482803, 0.00000000, 0.00000000, 0.00000000, 106.39970398, -5.02530146, 118.11463928, 1.00000000, 0.00000000, 0.00000000, 0.00000000, -0.05624361, 0.03340794, -0.15432125, 0.00000000, 0.00000000, 0.00000000, 0.00000000
1, 3.3600, 336, 0.15004657, -1.01563966, 0.35846284, 12.43755054, -15.78985786, -42.73555756, 0.00000000, 0.00000000, 0.00000000, 106.52665710, -4.57074070, 118.08421326, 1.00000000, 0.00000000, 0.00000000, 0.00000000, -0.23266590, 0.05999610, -0.07577174, 0.00000000, 0.00000000, 0.00000000, 0.00000000
1, 3.3700, 337, 0.23061691, -0.99346304, 0.30012310, 12.51026726, -16.23321533, -40.95676041, 0.00000000, 0.00000000, 0.00000000, 106.64148712, -3.96541667, 118.11225891, 1.00000000, 0.00000000, 0.00000000, 0.00000000, -0.30481470, 0.03779463, -0.01519877, 0.00000000, 0.00000000, 0.00000000, 0.00000000
1, 3.3800, 338, 0.22527035, -1.01774061, 0.23038821, 16.81133842, -24.54699707, -35.73517990, 0.00000000, 0.00000000, 0.00000000, 106.81821442, -3.55251026, 117.97974396, 1.00000000, 0.00000000, 0.00000000, 0.00000000, -0.28989145, 0.06216426, 0.05717601, 0.00000000, 0.00000000, 0.00000000, 0.00000000
1, 3.3900, 339, 0.23302695, -1.14485240, 0.20232441, 19.11584663, -36.52732468, -31.37234116, 0.00000000, 0.00000000, 0.00000000, 107.02440643, -3.14603734, 117.72115326, 1.00000000, 0.00000000, 0.00000000, 0.00000000, -0.29052961, 0.18986015, 0.08867168, 0.00000000, 0.00000000, 0.00000000, 0.00000000
1, 3.4000, 340, 0.21888998, -1.15868914, 0.19385086, 18.10587883, -45.66120529, -29.99773407, 0.00000000, 0.00000000, 0.00000000, 107.22330475, -2.72491193, 117.37265778, 1.00000000, 0.00000000, 0.00000000, 0.00000000, -0.26924622, 0.20436564, 0.10064113, 0.00000000, 0.00000000, 0.00000000, 0.00000000
1, 3.4100, 341, 0.01753632, -1.11094165, 0.21445657, 19.65652466, -50.52701569, -32.82144165, 0.00000000, 0.00000000, 0.00000000, 107.43661499, -2.26109767, 116.98772430, 1.00000000, 0.00000000, 0.00000000, 0.00000000, -0.06007008, 0.15733273, 0.08356046, 0.00000000, 0.00000000, 0.00000000, 0.00000000
1, 3.4200, 342, 0.00898719, -1.00908864, 0.22296619, 20.93037605, -47.67405319, -38.01815033, 0.00000000, 0.00000000, 0.00000000, 107.62023163, -1.72969949, 116.65281677, 1.00000000, 0.00000000, 0.00000000, 0.00000000, -0.04290979, 0.05626611, 0.07864738, 0.00000000, 0.00000000, 0.00000000, 0.00000000
1, 3.4300, 343, -0.07986437, -0.91605282, 0.26511803, 20.56796265, -46.47786713, -43.52934647, 0.00000000, 0.00000000, 0.00000000, 107.83382416, -1.17355835, 116.34257507, 1.00000000, 0.00000000, 0.00000000, 0.00000000, 0.05570110, -0.03603098, 0.03974920, 0.00000000, 0.00000000, 0.00000000, 0.00000000
1, 3.4400, 344, -0.08806834, -0.82611614, 0.32985324, 21.22376251, -31.99370766, -50.22628021, 0.00000000, 0.00000000, 0.00000000, 108.04854584, -0.59724617, 116.19287872, 1.00000000, 0.00000000, 0.00000000, 0.00000000, 0.07385318, -0.12502505, -0.02143924, 0.00000000, 0.00000000, 0.00000000, 0.00000000
1, 3.4500, 345, 0.08987119, -0.85629284, 0.37915009, 24.26768112, -20.84136581, -56.09926987, 0.00000000, 0.00000000, 0.00000000, 108.29135895, 0.00075815, 116.16979980, 1.00000000, 0.00000000, 0.00000000, 0.00000000, -0.09384871, -0.09366980, -0.06682809, 0.00000000, 0.00000000, 0.00000000, 0.00000000
1, 3.4600, 346, 0.14591122, -0.99012542, 0.41106224, 23.61529922, -25.45684814, -57.58063126, 0.00000000, 0.00000000, 0.00000000, 108.52715302, 0.62750387, 116.11008453, 1.00000000, 0.00000000, 0.00000000, 0.00000000, -0.13905400, 0.04149050, -0.09478038, 0.00000000, 0.00000000, 0.00000000, 0.00000000
1, 3.4700, 347, 0.31483367, -1.09280920, 0.44415507, 24.22567940, -32.06587219, -57.40353012, 0.00000000, 0.00000000, 0.00000000, 108.77645874, 1.34237826, 116.02307129, 1.00000000, 0.00000000, 0.00000000, 0.00000000, -0.29661489, 0.14566226, -0.12389529, 0.00000000, 0.00000000, 0.00000000, 0.00000000
1, 3.4800, 348, 0.12506740, -1.13260031, 0.42019758, 19.48449898, -50.54138947, -57.16083527, 0.00000000, 0.00000000, 0.00000000, 108.96253204, 2.04675555, 115.72960663, 1.00000000, 0.00000000, 0.00000000, 0.00000000, -0.09399836, 0.18695068, -0.09651749, 0.00000000, 0.00000000, 0.00000000, 0.00000000
1, 3.4900, 349, -0.03299609, -1.04802871, 0.42093140, 16.65472603, -52.60523224, -62.50526810, 0.00000000, 0.00000000, 0.00000000, 109.11668396, 2.80925488, 115.43605804, 1.00000000, 0.00000000, 0.00000000, 0.00000000, 0.07683305, 0.10378742, -0.09463100, 0.00000000, 0.00000000, 0.00000000, 0.00000000
1, 3.5000, 350, -0.24133530, -0.99198455, 0.39557803, 12.06446075, -57.19079971, -74.92755127, 0.00000000, 0.00000000, 0.00000000, 109.22077942, 3.70478201, 115.14149475, 1.00000000, 0.00000000, 0.00000000, 0.00000000, 0.29989749, 0.04915836, -0.06750967, 0.00000000, 0.00000000, 0.00000000, 0.00000000
1, 3.5100, 351, -0.36225179, -1.00853503, 0.46011838, 9.47227287, -52.94174576, -88.89754486, 0.00000000, 0.00000000, 0.00000000, 109.30043030, 4.71861649, 114.93440247, 1.00000000, 0.00000000, 0.00000000, 0.00000000, 0.43772608, 0.06726368, -0.13104914, 0.00000000, 0.00000000, 0.00000000, 0.00000000
1, 3.5200, 352, -0.17794637, -1.14275527, 0.40522662, 8.88888931, -45.59770203, -107.23043060, 0.00000000, 0.00000000, 0.00000000, 109.37605286, 5.82109880, 114.82506561, 1.00000000, 0.00000000, 0.00000000, 0.00000000, 0.27235532, 0.20348506, -0.07533439, 0.00000000, 0.00000000, 0.00000000, 0.00000000
1, 3.5300, 353, -0.28325567, -1.26131606, 0.45302886, 6.37428188, -41.98412323, -122.99378967, 0.00000000, 0.00000000, 0.00000000, 109.44152069, 7.12064791, 114.83789825, 1.00000000, 0.00000000, 0.00000000, 0.00000000, 0.39861080, 0.32449692, -0.12284407, 0.00000000, 0.00000000, 0.00000000, 0.00000000
1, 3.5400, 354, -0.14884672, -1.34439206, 0.38970712, 4.86480999, -43.39393234, -138.47869873, 0.00000000, 0.00000000, 0.00000000, 109.49736786, 8.57087135, 114.89093781, 1.00000000, 0.00000000, 0.00000000, 0.00000000, 0.28825015, 0.41087061, -0.05947585, 0.00000000, 0.00000000, 0.00000000, 0.00000000
1, 3.5500, 355, -0.17888533, -1.35724676, 0.44354740, 1.23518872, -44.78217697, -151.95997620, 0.00000000, 0.00000000, 0.00000000, 109.52390289, 10.15277004, 114.97746277, 1.00000000, 0.00000000, 0.00000000, 0.00000000, 0.34480727, 0.42776668, -0.11418996, 0.00000000, 0.00000000, 0.00000000, 0.00000000
1, 3.5600, 356, -0.16317707, -1.32543933, 0.48009396, -0.60832256, -44.81197739, -166.42707825, 0.00000000, 0.00000000, 0.00000000, 109.54405212, 11.87107372, 115.11425781, 1.00000000, 0.00000000, 0.00000000, 0.00000000, 0.35769641, 0.40106446, -0.15203649, 0.00000000, 0.00000000, 0.00000000, 0.00000000
1, 3.5700, 357, -0.24293718, -1.28105998, 0.47976339, 0.41093308, -43.70549011, -179.14837646, 0.00000000, 0.00000000, 0.00000000, 109.59366608, 13.64227867, 115.27379608, 1.00000000, 0.00000000, 0.00000000, 0.00000000, 0.46776992, 0.36297828, -0.15341832, 0.00000000, 0.00000000, 0.00000000, 0.00000000
1, 3.5800, 358, -0.21028779, -1.30991685, 0.48509690, 4.67411995, -40.95648575, -189.77262878, 0.00000000, 0.00000000, 0.00000000, 109.70626831, 15.56723118, 115.53445435, 1.00000000, 0.00000000, 0.00000000, 0.00000000, 0.46638364, 0.39963746, -0.15995577, 0.00000000, 0.00000000, 0.00000000, 0.00000000
1, 3.5900, 359, -0.07191052, -1.41187096, 0.37318423, 9.78596401, -47.25351334, -199.49897766, 0.00000000, 0.00000000, 0.00000000, 109.87262726, 17.60439682, 115.77524567, 1.00000000, 0.00000000, 0.00000000, 0.00000000, 0.36148775, 0.51141143, -0.04881243, 0.00000000, 0.00000000, 0.00000000, 0.00000000
1, 3.6000, 360, -0.05878316, -1.50764585, 0.34828773, 15.19959450, -59.89878082, -203.12666321, 0.00000000, 0.00000000, 0.00000000, 110.06824493, 19.71812630, 115.91302490, 1.00000000, 0.00000000, 0.00000000, 0.00000000, 0.38300252, 0.61872065, -0.02489068, 0.00000000, 0.00000000, 0.00000000, 0.00000000
1, 3.6100, 361, 0.07381959, -1.60402334, 0.22545128, 20.88741875, -82.71781921, -205.28523254, 0.00000000, 0.00000000, 0.00000000, 110.25007629, 21.93033981, 115.83905029, 1.00000000, 0.00000000, 0.00000000, 0.00000000, 0.28604123, 0.72838497, 0.09647892, 0.00000000, 0.00000000, 0.00000000, 0.00000000
1, 3.6200, 362, -0.17045988, -1.69781446, 0.14858548, 26.02563095, -113.71031952, -200.88371277, 0.00000000, 0.00000000, 0.00000000, 110.33258820, 24.17305183, 115.40730286, 1.00000000, 0.00000000, 0.00000000, 0.00000000, 0.56669348, 0.83684391, 0.17017668, 0.00000000, 0.00000000, 0.00000000, 0.00000000
1, 3.6300, 363, -0.27672645, -1.88375986, 0.06782641, 32.74266434, -142.63227844, -192.45233154, 0.00000000, 0.00000000, 0.00000000, 110.34292603, 26.47340202, 114.66763306, 1.00000000, 0.00000000, 0.00000000, 0.00000000, 0.70889884, 1.03830504, 0.24571326, 0.00000000, 0.00000000, 0.00000000, 0.00000000
1, 3.6400, 364, -0.11845019, -2.29647326, 0.14064859, 35.89091492, -171.03701782, -190.34083557, 0.00000000, 0.00000000, 0.00000000, 110.20580292, 28.85158348, 113.60066223, 1.00000000, 0.00000000, 0.00000000, 0.00000000, 0.58718145, 1.46787548, 0.16526040, 0.00000000, 0.00000000, 0.00000000, 0.00000000
1, 3.6500, 365, -0.16963959, -2.92859936, 0.29744631, 32.90306091, -198.75543213, -195.30334473, 0.00000000, 0.00000000, 0.00000000, 109.83944702, 31.36758614, 112.21584320, 1.00000000, 0.00000000, 0.00000000, 0.00000000, 0.67575622, 2.11827707, -0.00237489, 0.00000000, 0.00000000, 0.00000000, 0.00000000
1, 3.6600, 366, -1.05903459, -3.10704327, 0.83341914, 10.32553673, -197.19218445, -205.50808716, 0.00000000, 0.00000000, 0.00000000, 109.19232941, 33.96376419, 110.82449341, 1.00000000, 0.00000000, 0.00000000, 0.00000000, 1.60351419, 2.31622148, -0.55417871, 0.00000000, 0.00000000, 0.00000000, 0.00000000
1, 3.6700, 367, -1.48715842, -2.45520020, 1.18090117, -22.84183311, -132.72134399, -222.01618958, 0.00000000, 0.00000000, 0.00000000, 108.59067535, 36.47690582, 110.15954590, 1.00000000, 0.00000000, 0.00000000, 0.00000000, 2.06840944, 1.68501711, -0.91858399, 0.00000000, 0.00000000, 0.00000000, 0.00000000
1, 3.6800, 368, -1.05435991, -2.10184216, 1.15381980, -20.03740692, -55.99686050, -240.09754944, 0.00000000, 0.00000000, 0.00000000, 108.57398987, 38.93138885, 110.45534515, 1.00000000, 0.00000000, 0.00000000, 0.00000000, 1.67026258, 1.35491109, -0.90358686, 0.00000000, 0.00000000, 0.00000000, 0.00000000
1, 3.6900, 369, -1.17129481, -2.01806831, 1.42465138, -30.98138809, -23.53449440, -243.51818848, 0.00000000, 0.00000000, 0.00000000, 108.73474884, 41.31383514, 111.18368530, 1.00000000, 0.00000000, 0.00000000, 0.00000000, 1.81975937, 1.29697871, -1.18095315, 0.00000000, 0.00000000, 0.00000000, 0.00000000
1, 3.7000, 370, -1.25604761, -1.87374580, 1.09461176, -64.11771393, 31.69116974, -232.62699890, 0.00000000, 0.00000000, 0.00000000, 109.05648804, 43.41186905, 112.61082458, 1.00000000, 0.00000000, 0.00000000, 0.00000000, 1.93361998, 1.17818213, -0.85589433, 0.00000000, 0.00000000, 0.00000000, 0.00000000
1, 3.7100, 371, -0.65313184, -1.59554327, 0.08014024, -74.82045746, -0.15123166, -193.77830505, 0.00000000, 0.00000000, 0.00000000, 108.92063904, 45.24470139, 113.48847961, 1.00000000, 0.00000000, 0.00000000, 0.00000000, 1.35488296, 0.92181724, 0.15129010, 0.00000000, 0.00000000, 0.00000000, 0.00000000
1, 3.7200, 372, 0.32027355, -1.26931858, 0.50935072, -9.14640999, 68.76458740, -209.01141357, 0.00000000, 0.00000000, 0.00000000, 110.22397614, 46.94913483, 115.40792847, 1.00000000, 0.00000000, 0.00000000, 0.00000000, 0.40287676, 0.61891097, -0.27712435, 0.00000000, 0.00000000, 0.00000000, 0.00000000
1, 3.7300, 373, 1.47485888, -0.74264365, 0.86233270, -16.66846466, 21.98513794, -195.33155823, 0.00000000, 0.00000000, 0.00000000, 111.03984070, 48.69992065, 116.73803711, 1.00000000, 0.00000000, 0.00000000, 0.00000000, -0.73110914, 0.11787973, -0.62478334, 0.00000000, 0.00000000, 0.00000000, 0.00000000
1, 3.7400, 374, 0.74655730, -1.12818563, 1.24456644, 22.30948448, -35.53483582, -126.08766937, 0.00000000, 0.00000000, 0.00000000, 111.40917206, 50.00385284, 116.93026733, 1.00000000, 0.00000000, 0.00000000, 0.00000000, 0.01482067, 0.52406687, -1.00938964, 0.00000000, 0.00000000, 0.00000000, 0.00000000
1, 3.7500, 375, -0.92239553, -1.23563731, 0.90549624, -33.17570114, -11.64995289, -44.94581604, 0.00000000, 0.00000000, 0.00000000, 111.14360046, 50.46474457, 117.01656342, 1.00000000, 0.00000000, 0.00000000, 0.00000000, 1.69203925, 0.64089119, -0.67329019, 0.00000000, 0.00000000, 0.00000000, 0.00000000
1, 3.7600, 376, -1.06623983, -0.83338767, 0.29612303, -40.75502777, -15.08877563, -1.42569518, 0.00000000, 0.00000000, 0.00000000, 110.57125854, 50.53162766, 116.80307770, 1.00000000, 0.00000000, 0.00000000, 0.00000000, 1.83818316, 0.23903207, -0.07064130, 0.00000000, 0.00000000, 0.00000000, 0.00000000
1, 3.7700, 377, -0.61264032, -0.74729645, -0.00508154, -15.89525318, -17.82626343, 25.55393791, 0.00000000, 0.00000000, 0.00000000, 109.72875977, 49.85182571, 115.79109955, 1.00000000, 0.00000000, 0.00000000, 0.00000000, 1.38221836, 0.14799212, 0.22542664, 0.00000000, 0.00000000, 0.00000000, 0.00000000
1, 3.7800, 378, -0.10485318, -0.63532007, -0.25140774, -25.97760201, -14.20987988, 46.75395966, 0.00000000, 0.00000000, 0.00000000, 109.12807465, 49.45819855, 115.34384918, 1.00000000, 0.00000000, 0.00000000, 0.00000000, 0.86657000, 0.02407144, 0.46624428, 0.00000000, 0.00000000, 0.00000000, 0.00000000
1, 3.7900, 379, 0.23677699, -0.46779311, -0.23828261, -28.61947060, -21.77345276, 62.55136490, 0.00000000, 0.00000000, 0.00000000, 108.37026215, 48.93577957, 114.72077179, 1.00000000, 0.00000000, 0.00000000, 0.00000000, 0.51959848, -0.15190862, 0.44769299, 0.00000000, 0.00000000, 0.00000000, 0.00000000
1, 3.8000, 380, 0.26736236, -0.36655495, -0.11118806, -33.04987335, -34.63134003, 101.82709503, 0.00000000, 0.00000000, 0.00000000, 107.31440735, 48.07251358, 113.75251770, 1.00000000, 0.00000000, 0.00000000, 0.00000000, 0.48083058, -0.26536912, 0.31329286, 0.00000000, 0.00000000, 0.00000000, 0.00000000
1, 3.8100, 381, 0.08785834, -0.29274291, -0.04240746, -41.12326813, -44.54233551, 156.93142700, 0.00000000, 0.00000000, 0.00000000, 105.95103455, 46.69623566, 112.45896912, 1.00000000, 0.00000000, 0.00000000, 0.00000000, 0.64644748, -0.35813960, 0.23495904, 0.00000000, 0.00000000, 0.00000000, 0.00000000
1, 3.8200, 382, -0.12526372, -0.22675534, 0.04548956, -41.16312408, -47.19099426, 197.09622192, 0.00000000, 0.00000000, 0.00000000, 104.54672241, 44.83826447, 111.02543640, 1.00000000, 0.00000000, 0.00000000, 0.00000000, 0.83959496, -0.44897917, 0.13618004, 0.00000000, 0.00000000, 0.00000000, 0.00000000
1, 3.8300, 383, -0.27017510, -0.21862061, 0.13440883, -30.73175430, -19.65402412, 218.62466431, 0.00000000, 0.00000000, 0.00000000, 103.54711151, 42.76502609, 110.02675629, 1.00000000, 0.00000000, 0.00000000, 0.00000000, 0.95926976, -0.48479670, 0.03947589, 0.00000000, 0.00000000, 0.00000000, 0.00000000
1, 3.8400, 384, -0.23413016, -0.24308047, 0.20829159, -18.73005676, 33.38572693, 235.81475830, 0.00000000, 0.00000000, 0.00000000, 103.16361237, 40.39362335, 109.73323822, 1.00000000, 0.00000000, 0.00000000, 0.00000000, 0.89410609, -0.48805177, -0.03584250, 0.00000000, 0.00000000, 0.00000000, 0.00000000
1, 3.8500, 385, -0.10964673, -0.29650545, 0.18933535, -12.38237095, 68.56082153, 250.86854553, 0.00000000, 0.00000000, 0.00000000, 103.11836243, 37.79482651, 109.85890198, 1.00000000, 0.00000000, 0.00000000, 0.00000000, 0.73601484, -0.46257564, -0.01243214, 0.00000000, 0.00000000, 0.00000000, 0.00000000
1, 3.8600, 386, -0.08550922, -0.37620589, 0.19824922, -7.90644026, 88.34550476, 270.01611328, 0.00000000, 0.00000000, 0.00000000, 103.21955872, 34.96444321, 110.16337585, 1.00000000, 0.00000000, 0.00000000, 0.00000000, 0.67386478, -0.41099364, -0.01396750, 0.00000000, 0.00000000, 0.00000000, 0.00000000
1, 3.8700, 387, -0.18068483, -0.47972545, 0.19285884, -7.23588467, 100.08628082, 290.37530518, 0.00000000, 0.00000000, 0.00000000, 103.36256409, 31.83387375, 110.48676300, 1.00000000, 0.00000000, 0.00000000, 0.00000000, 0.72602499, -0.33585000, 0.00001616, 0.00000000, 0.00000000, 0.00000000, 0.00000000
1, 3.8800, 388, -0.22982295, -0.59410042, 0.20429289, -9.86253262, 111.59145355, 308.16476440, 0.00000000, 0.00000000, 0.00000000, 103.47866821, 28.57740211, 110.91480255, 1.00000000, 0.00000000, 0.00000000, 0.00000000, 0.72696924, -0.24968071, -0.00274339, 0.00000000, 0.00000000, 0.00000000, 0.00000000
1, 3.8900, 389, -0.06360378, -0.64325976, 0.14214285, -8.76183605, 128.73283386, 324.40011597, 0.00000000, 0.00000000, 0.00000000, 103.63978577, 25.12210274, 111.46541595, 1.00000000, 0.00000000, 0.00000000, 0.00000000, 0.50861996, -0.22708909, 0.06801307, 0.00000000, 0.00000000, 0.00000000, 0.00000000
1, 3.9000, 390, 0.05308096, -0.71265447, 0.20541957, 0.75156420, 131.89053345, 335.97534180, 0.00000000, 0.00000000, 0.00000000, 103.85571289, 21.54523659, 111.99118805, 1.00000000, 0.00000000, 0.00000000, 0.00000000, 0.33588880, -0.18193500, 0.01390726, 0.00000000, 0.00000000, 0.00000000, 0.00000000
1, 3.9100, 391, -0.00168459, -0.81026953, 0.24849313, -0.61422509, 129.36445618, 347.10922241, 0.00000000, 0.00000000, 0.00000000, 104.00045013, 17.86485672, 112.43720245, 1.00000000, 0.00000000, 0.00000000, 0.00000000, 0.33137891, -0.10579513, -0.02089275, 0.00000000, 0.00000000, 0.00000000, 0.00000000
