SensorId, TimeStamp (s), FrameNumber, AccX (g), AccY (g), AccZ (g), GyroX (deg/s), GyroY (deg/s), GyroZ (deg/s), MagX (uT), MagY (uT), MagZ (uT), EulerX (deg), EulerY (deg), EulerZ (deg), QuatW, QuatX, QuatY, QuatZ, LinAccX (g), LinAccY (g), LinAccZ (g), Pressure (kPa), Altitude (m), Temperature (degC), HeaveMotion (m)
1, -0.0000, 0, -0.00417017, -0.17174198, -0.07752808, 27.30203438, -3.91635513, 115.64288330, 0.00000000, 0.00000000, 0.00000000, 69.01586914, 50.20071030, 42.27772903, 1.00000000, 0.00000000, 0.00000000, 0.00000000, 0.77696538, -0.41951516, -0.15305424, 0.00000000, 0.00000000, 0.00000000, 0.00000000
1, 0.0100, 1, 0.13773538, -0.18104604, -0.04827572, 40.23626328, 32.85779953, 125.85762787, 0.00000000, 0.00000000, 0.00000000, 70.29617310, 49.13475037, 43.43009567, 1.00000000, 0.00000000, 0.00000000, 0.00000000, 0.62304515, -0.42792112, -0.17606069, 0.00000000, 0.00000000, 0.00000000, 0.00000000
1, 0.0200, 2, 0.15897799, -0.20441306, -0.00627280, 55.46290970, 68.18460846, 140.66453552, 0.00000000, 0.00000000, 0.00000000, 72.09613037, 48.02282333, 45.09128952, 1.00000000, 0.00000000, 0.00000000, 0.00000000, 0.58936071, -0.42415869, -0.20543548, 0.00000000, 0.00000000, 0.00000000, 0.00000000
1, 0.0300, 3, 0.07410805, -0.26356623, -0.02577332, 66.27612305, 96.44802856, 162.79183960, 0.00000000, 0.00000000, 0.00000000, 74.28583527, 46.71787643, 47.16212082, 1.00000000, 0.00000000, 0.00000000, 0.00000000, 0.66003627, -0.38721001, -0.16768323, 0.00000000, 0.00000000, 0.00000000, 0.00000000
1, 0.0400, 4, -0.00185723, -0.28713283, -0.00676365, 69.55638123, 116.65764618, 183.67393494, 0.00000000, 0.00000000, 0.00000000, 76.62694550, 45.23254395, 49.45052338, 1.00000000, 0.00000000, 0.00000000, 0.00000000, 0.71882981, -0.38840261, -0.16494176, 0.00000000, 0.00000000, 0.00000000, 0.00000000
1, 0.0500, 5, -0.03890148, -0.34465262, 0.02890436, 82.78064728, 128.60034180, 203.56690979, 0.00000000, 0.00000000, 0.00000000, 79.10418701, 43.51273727, 51.80841827, 1.00000000, 0.00000000, 0.00000000, 0.00000000, 0.73571920, -0.35726503, -0.17590162, 0.00000000, 0.00000000, 0.00000000, 0.00000000
1, 0.0600, 6, -0.00693947, -0.46396992, 0.02002917, 93.94711304, 137.89039612, 220.07646179, 0.00000000, 0.00000000, 0.00000000, 81.62941742, 41.57329178, 54.15317535, 1.00000000, 0.00000000, 0.00000000, 0.00000000, 0.68014669, -0.26562524, -0.13964473, 0.00000000, 0.00000000, 0.00000000, 0.00000000
1, 0.0700, 7, 0.04047827, -0.52418536, 0.00691428, 96.89004517, 155.05421448, 235.50207520, 0.00000000, 0.00000000, 0.00000000, 84.16158295, 39.42779541, 56.55974960, 1.00000000, 0.00000000, 0.00000000, 0.00000000, 0.60556877, -0.23363377, -0.09709290, 0.00000000, 0.00000000, 0.00000000, 0.00000000
1, 0.0800, 8, 0.12511958, -0.60903275, 0.02565525, 113.99043274, 170.95887756, 245.38479614, 0.00000000, 0.00000000, 0.00000000, 86.80506134, 37.09931564, 58.98278046, 1.00000000, 0.00000000, 0.00000000, 0.00000000, 0.49039483, -0.17683907, -0.08319914, 0.00000000, 0.00000000, 0.00000000, 0.00000000
1, 0.0900, 9, 0.23511994, -0.73948485, 0.04490190, 121.13494110, 177.77496338, 253.89979553, 0.00000000, 0.00000000, 0.00000000, 89.36268616, 34.62081909, 61.27939224, 1.00000000, 0.00000000, 0.00000000, 0.00000000, 0.34643903, -0.07355912, -0.06724095, 0.00000000, 0.00000000, 0.00000000, 0.00000000
1, 0.1000, 10, 0.40176582, -0.82608378, 0.06191150, 120.73492432, 173.63285828, 260.83804321, 0.00000000, 0.00000000, 0.00000000, 91.69596863, 31.99641800, 63.32781601, 1.00000000, 0.00000000, 0.00000000, 0.00000000, 0.14268795, -0.01246424, -0.04956277, 0.00000000, 0.00000000, 0.00000000, 0.00000000
1, 0.1100, 11, 0.51910323, -0.93660653, 0.11019874, 121.63771820, 161.81680298, 267.66983032, 0.00000000, 0.00000000, 0.00000000, 93.79437256, 29.24545860, 65.05670166, 1.00000000, 0.00000000, 0.00000000, 0.00000000, -0.01480977, 0.07443237, -0.06452876, 0.00000000, 0.00000000, 0.00000000, 0.00000000
1, 0.1200, 12, 0.57585913, -1.08163190, 0.18305418, 118.41612244, 140.95632935, 281.14770508, 0.00000000, 0.00000000, 0.00000000, 95.59912109, 26.32834625, 66.38369751, 1.00000000, 0.00000000, 0.00000000, 0.00000000, -0.11514683, 0.19754545, -0.10643229, 0.00000000, 0.00000000, 0.00000000, 0.00000000
1, 0.1300, 13, 0.56569332, -1.15961015, 0.21706417, 112.38180542, 108.13234711, 297.05627441, 0.00000000, 0.00000000, 0.00000000, 97.07264709, 23.25837326, 67.20701599, 1.00000000, 0.00000000, 0.00000000, 0.00000000, -0.15232542, 0.25511682, -0.11337854, 0.00000000, 0.00000000, 0.00000000, 0.00000000
1, 0.1400, 14, 0.56561404, -1.21549571, 0.25816450, 112.87832642, 89.52919769, 310.14776611, 0.00000000, 0.00000000, 0.00000000, 98.38911438, 20.06498337, 67.71258545, 1.00000000, 0.00000000, 0.00000000, 0.00000000, -0.20287599, 0.29260674, -0.13003573, 0.00000000, 0.00000000, 0.00000000, 0.00000000
1, 0.1500, 15, 0.61548990, -1.31748605, 0.30789882, 118.18637848, 78.94522858, 319.70501709, 0.00000000, 0.00000000, 0.00000000, 99.66451263, 16.78398705, 68.00585175, 1.00000000, 0.00000000, 0.00000000, 0.00000000, -0.30618694, 0.37887710, -0.15606722, 0.00000000, 0.00000000, 0.00000000, 0.00000000
1, 0.1600, 16, 0.65302491, -1.48633468, 0.38987640, 125.55891418, 72.72356415, 326.64611816, 0.00000000, 0.00000000, 0.00000000, 100.95599365, 13.44030666, 68.14158630, 1.00000000, 0.00000000, 0.00000000, 0.00000000, -0.39931750, 0.53531718, -0.21411087, 0.00000000, 0.00000000, 0.00000000, 0.00000000
1, 0.1700, 17, 0.63136607, -1.63561356, 0.40134183, 126.95569611, 69.08715057, 332.30838013, 0.00000000, 0.00000000, 0.00000000, 102.22796631, 10.04642200, 68.15053558, 1.00000000, 0.00000000, 0.00000000, 0.00000000, -0.43506801, 0.67579818, -0.20156699, 0.00000000, 0.00000000, 0.00000000, 0.00000000
1, 0.1800, 18, 0.69004798, -1.64778054, 0.36037901, 120.20283508, 63.53060150, 334.12789917, 0.00000000, 0.00000000, 0.00000000, 103.41217804, 6.65621233, 68.02597809, 1.00000000, 0.00000000, 0.00000000, 0.00000000, -0.55224669, 0.68275571, -0.13804379, 0.00000000, 0.00000000, 0.00000000, 0.00000000
1, 0.1900, 19, 0.86818802, -1.64266348, 0.34818393, 125.47081757, 58.15325928, 326.68542480, 0.00000000, 0.00000000, 0.00000000, 104.64748383, 3.34594512, 67.79832458, 1.00000000, 0.00000000, 0.00000000, 0.00000000, -0.78839910, 0.67633051, -0.10417823, 0.00000000, 0.00000000, 0.00000000, 0.00000000
1, 0.2000, 20, 0.99783313, -1.75205016, 0.34696403, 140.07264709, 53.81574631, 314.55612183, 0.00000000, 0.00000000, 0.00000000, 106.03891754, 0.17015396, 67.48541260, 1.00000000, 0.00000000, 0.00000000, 0.00000000, -0.97422040, 0.78887105, -0.07967448, 0.00000000, 0.00000000, 0.00000000, 0.00000000
1, 0.2100, 21, 0.92919677, -1.79747534, 0.20823190, 143.83894348, 51.99055481, 303.44650269, 0.00000000, 0.00000000, 0.00000000, 107.48630524, -2.88530803, 67.10812378, 1.00000000, 0.00000000, 0.00000000, 0.00000000, -0.95964432, 0.84144962, 0.08300103, 0.00000000, 0.00000000, 0.00000000, 0.00000000
1, 0.2200, 22, 0.86666745, -2.01874876, 0.17069285, 154.68812561, 69.46751404, 290.64041138, 0.00000000, 0.00000000, 0.00000000, 109.05197144, -5.86326933, 66.85660553, 1.00000000, 0.00000000, 0.00000000, 0.00000000, -0.94954622, 1.07357287, 0.14475045, 0.00000000, 0.00000000, 0.00000000, 0.00000000
1, 0.2300, 23, 0.70881695, -2.04380059, 0.12430455, 129.57386780, 80.45022583, 271.79321289, 0.00000000, 0.00000000, 0.00000000, 110.36100769, -8.68282509, 66.69428253, 1.00000000, 0.00000000, 0.00000000, 0.00000000, -0.84180826, 1.11204886, 0.21323012, 0.00000000, 0.00000000, 0.00000000, 0.00000000
1, 0.2400, 24, 0.76469076, -1.74251020, 0.01290832, 93.68692780, 105.54595947, 245.15959167, 0.00000000, 0.00000000, 0.00000000, 111.27655029, -11.34983826, 66.81097412, 1.00000000, 0.00000000, 0.00000000, 0.00000000, -0.94456965, 0.82392567, 0.33874664, 0.00000000, 0.00000000, 0.00000000, 0.00000000
1, 0.2500, 25, 1.06715178, -1.48319089, -0.06201387, 77.49665833, 115.13965607, 212.06498718, 0.00000000, 0.00000000, 0.00000000, 111.98702240, -13.74573803, 67.10620117, 1.00000000, 0.00000000, 0.00000000, 0.00000000, -1.29000735, 0.57774478, 0.42306912, 0.00000000, 0.00000000, 0.00000000, 0.00000000
1, 0.2600, 26, 1.44213390, -1.20024753, -0.16912368, 56.68383789, 100.63687897, 166.30096436, 0.00000000, 0.00000000, 0.00000000, 112.47430420, -15.66592884, 67.41885376, 1.00000000, 0.00000000, 0.00000000, 0.00000000, -1.70073164, 0.30656853, 0.53570020, 0.00000000, 0.00000000, 0.00000000, 0.00000000
1, 0.2700, 27, 1.83881712, -0.93379760, -0.13348144, 51.01036453, 79.36827850, 117.83950806, 0.00000000, 0.00000000, 0.00000000, 112.90264130, -17.05922127, 67.70875549, 1.00000000, 0.00000000, 0.00000000, 0.00000000, -2.12413645, 0.04987273, 0.50391847, 0.00000000, 0.00000000, 0.00000000, 0.00000000
1, 0.2800, 28, 2.03326654, -0.89128125, -0.07421575, 56.96170425, 46.09670258, 69.32173157, 0.00000000, 0.00000000, 0.00000000, 113.41857147, -17.85155678, 67.86622620, 1.00000000, 0.00000000, 0.00000000, 0.00000000, -2.33584261, 0.01538904, 0.45003814, 0.00000000, 0.00000000, 0.00000000, 0.00000000
1, 0.2900, 29, 1.78564608, -1.03463221, -0.15535960, 39.09911728, -3.43709970, 12.69660950, 0.00000000, 0.00000000, 0.00000000, 113.83621216, -17.95385170, 67.77994537, 1.00000000, 0.00000000, 0.00000000, 0.00000000, -2.09407663, 0.16361400, 0.53771341, 0.00000000, 0.00000000, 0.00000000, 0.00000000
1, 0.3000, 30, 1.30701876, -1.19982338, -0.31367105, -9.41156101, -47.62478256, -44.89029694, 0.00000000, 0.00000000, 0.00000000, 113.82315826, -17.35066986, 67.51336670, 1.00000000, 0.00000000, 0.00000000, 0.00000000, -1.60969424, 0.32819518, 0.69921088, 0.00000000, 0.00000000, 0.00000000, 0.00000000
1, 0.3100, 31, 1.07188892, -1.26242495, -0.30395016, -50.56433105, -47.64580154, -94.20694733, 0.00000000, 0.00000000, 0.00000000, 113.33602905, -16.29639435, 67.45126343, 1.00000000, 0.00000000, 0.00000000, 0.00000000, -1.35958529, 0.38455963, 0.68676555, 0.00000000, 0.00000000, 0.00000000, 0.00000000
1, 0.3200, 32, 1.06141543, -1.19994628, -0.20287557, -86.92382812, -18.40295219, -139.43992615, 0.00000000, 0.00000000, 0.00000000, 112.36357117, -14.93949318, 67.83755493, 1.00000000, 0.00000000, 0.00000000, 0.00000000, -1.32810152, 0.31122154, 0.57567316, 0.00000000, 0.00000000, 0.00000000, 0.00000000
1, 0.3300, 33, 1.05321026, -1.11651385, 0.04449738, -99.32259369, 22.25081444, -179.42443848, 0.00000000, 0.00000000, 0.00000000, 111.14475250, -13.31003189, 68.73224640, 1.00000000, 0.00000000, 0.00000000, 0.00000000, -1.29437602, 0.21429932, 0.31292084, 0.00000000, 0.00000000, 0.00000000, 0.00000000
1, 0.3400, 34, 0.79662853, -0.98812878, 0.60403770, -96.05286407, 76.72383881, -213.99554443, 0.00000000, 0.00000000, 0.00000000, 109.86165619, -11.57346535, 70.23564148, 1.00000000, 0.00000000, 0.00000000, 0.00000000, -1.00836396, 0.07183133, -0.26424831, 0.00000000, 0.00000000, 0.00000000, 0.00000000
1, 0.3500, 35, -1.11131215, -0.96616513, 2.22409678, -50.38619232, 159.42230225, -227.36888123, 0.00000000, 0.00000000, 0.00000000, 108.93338776, -9.95493603, 72.53358459, 1.00000000, 0.00000000, 0.00000000, 0.00000000, 0.92863607, 0.03795950, -1.90007973, 0.00000000, 0.00000000, 0.00000000, 0.00000000
1, 0.3600, 36, -3.36154580, -1.70831859, 1.25563920, 12.49896431, 164.06639099, -129.96604919, 0.00000000, 0.00000000, 0.00000000, 108.72417450, -9.25163746, 74.53304291, 1.00000000, 0.00000000, 0.00000000, 0.00000000, 3.19746685, 0.77394402, -0.93938994, 0.00000000, 0.00000000, 0.00000000, 0.00000000
1, 0.3700, 37, 0.10586701, -1.21063244, -0.39054033, 3.49532676, -109.14419556, -35.64154053, 0.00000000, 0.00000000, 0.00000000, 108.90331268, -8.56116867, 73.60446930, 1.00000000, 0.00000000, 0.00000000, 0.00000000, -0.26036543, 0.27586403, 0.71041882, 0.00000000, 0.00000000, 0.00000000, 0.00000000
1, 0.3800, 38, 1.23504782, -1.28226793, -0.57257646, -56.01520538, -44.72315979, -105.65521240, 0.00000000, 0.00000000, 0.00000000, 108.34043121, -7.39159727, 73.51649475, 1.00000000, 0.00000000, 0.00000000, 0.00000000, -1.37148142, 0.34304899, 0.88755846, 0.00000000, 0.00000000, 0.00000000, 0.00000000
1, 0.3900, 39, 1.01871598, -1.19607437, -0.27005181, -55.02026749, 30.44343376, -127.44263458, 0.00000000, 0.00000000, 0.00000000, 107.70870209, -6.27376556, 74.20531464, 1.00000000, 0.00000000, 0.00000000, 0.00000000, -1.13531494, 0.25128254, 0.57621062, 0.00000000, 0.00000000, 0.00000000, 0.00000000
1, 0.4000, 40, 0.01925248, -1.07440233, 0.21981317, -34.90505219, 36.11694717, -134.79660034, 0.00000000, 0.00000000, 0.00000000, 107.28525543, -5.09643126, 74.95834351, 1.00000000, 0.00000000, 0.00000000, 0.00000000, -0.11565334, 0.12474047, 0.07820150, 0.00000000, 0.00000000, 0.00000000, 0.00000000
1, 0.4100, 41, -0.06731905, -1.22340930, -0.05999983, -28.18054581, 51.60989761, -114.39722443, 0.00000000, 0.00000000, 0.00000000, 106.93646240, -4.15503454, 75.79105377, 1.00000000, 0.00000000, 0.00000000, 0.00000000, -0.01090348, 0.27040198, 0.35263568, 0.00000000, 0.00000000, 0.00000000, 0.00000000
1, 0.4200, 42, 0.17642775, -1.11705124, -0.21718110, -27.29448318, 32.85073090, -95.46765900, 0.00000000, 0.00000000, 0.00000000, 106.62471008, -3.33584070, 76.38237000, 1.00000000, 0.00000000, 0.00000000, 0.00000000, -0.23996565, 0.16134413, 0.50452900, 0.00000000, 0.00000000, 0.00000000, 0.00000000
1, 0.4300, 43, 0.49680009, -1.09269941, 0.16675803, -12.42975998, 38.76070404, -98.22229767, 0.00000000, 0.00000000, 0.00000000, 106.46358490, -2.43795252, 77.02696228, 1.00000000, 0.00000000, 0.00000000, 0.00000000, -0.54567397, 0.13505428, 0.11697919, 0.00000000, 0.00000000, 0.00000000, 0.00000000
1, 0.4400, 44, 0.56933534, -1.17867124, 0.35294306, 18.48596191, 52.92643738, -107.49826050, 0.00000000, 0.00000000, 0.00000000, 106.62024689, -1.55789721, 77.84055328, 1.00000000, 0.00000000, 0.00000000, 0.00000000, -0.60233665, 0.22058265, -0.06841306, 0.00000000, 0.00000000, 0.00000000, 0.00000000
1, 0.4500, 45, 0.30809513, -1.20824599, 0.30883613, 25.56345940, 65.81168365, -110.77531433, 0.00000000, 0.00000000, 0.00000000, 106.85739899, -0.68677509, 78.79014587, 1.00000000, 0.00000000, 0.00000000, 0.00000000, -0.32574990, 0.25096640, -0.02024471, 0.00000000, 0.00000000, 0.00000000, 0.00000000
1, 0.4600, 46, 0.05421484, -1.04931474, 0.21948476, 13.29084778, 55.27075958, -107.51203156, 0.00000000, 0.00000000, 0.00000000, 106.98618317, 0.18079886, 79.63203430, 1.00000000, 0.00000000, 0.00000000, 0.00000000, -0.05675710, 0.09276444, 0.07204016, 0.00000000, 0.00000000, 0.00000000, 0.00000000
1, 0.4700, 47, 0.13150147, -0.81199205, 0.51972944, -5.85779524, 29.69391441, -99.68706512, 0.00000000, 0.00000000, 0.00000000, 106.93362427, 1.04751098, 80.20712280, 1.00000000, 0.00000000, 0.00000000, 0.00000000, -0.11883800, -0.14438227, -0.22789055, 0.00000000, 0.00000000, 0.00000000, 0.00000000
1, 0.4800, 48, 0.48162964, -0.62067634, 0.73909312, -9.01691723, 8.91509438, -89.86634827, 0.00000000, 0.00000000, 0.00000000, 106.97899628, 2.00905824, 80.53924561, 1.00000000, 0.00000000, 0.00000000, 0.00000000, -0.45368573, -0.33577347, -0.44857851, 0.00000000, 0.00000000, 0.00000000, 0.00000000
1, 0.4900, 49, 0.59636009, -0.76146150, 0.60214049, 21.69290161, -41.83697891, -78.85364532, 0.00000000, 0.00000000, 0.00000000, 107.18788910, 2.88587976, 80.37062836, 1.00000000, 0.00000000, 0.00000000, 0.00000000, -0.55185366, -0.19338541, -0.30842879, 0.00000000, 0.00000000, 0.00000000, 0.00000000
1, 0.5000, 50, 0.54927784, -0.91586936, 0.46827963, 17.13497925, -101.23851776, -68.61368561, 0.00000000, 0.00000000, 0.00000000, 107.31398010, 3.84158659, 79.60610962, 1.00000000, 0.00000000, 0.00000000, 0.00000000, -0.48858669, -0.03723575, -0.17182565, 0.00000000, 0.00000000, 0.00000000, 0.00000000
1, 0.5100, 51, 0.23554818, -1.01101720, 0.39183769, 20.38388062, -103.00867462, -67.43188477, 0.00000000, 0.00000000, 0.00000000, 107.45899200, 4.79278469, 78.82225800, 1.00000000, 0.00000000, 0.00000000, 0.00000000, -0.15814279, 0.05964486, -0.09371512, 0.00000000, 0.00000000, 0.00000000, 0.00000000
1, 0.5200, 52, -0.14387478, -1.11525989, 0.26004347, 15.14039612, -84.47562408, -68.60164642, 0.00000000, 0.00000000, 0.00000000, 107.55553436, 5.70128250, 78.22073364, 1.00000000, 0.00000000, 0.00000000, 0.00000000, 0.23737581, 0.16591008, 0.03991179, 0.00000000, 0.00000000, 0.00000000, 0.00000000
1, 0.5300, 53, -0.05470518, -1.01048481, 0.33738485, -5.15231752, -59.05472565, -69.47100830, 0.00000000, 0.00000000, 0.00000000, 107.48135376, 6.52190542, 77.86933136, 1.00000000, 0.00000000, 0.00000000, 0.00000000, 0.16320078, 0.06244320, -0.03833614, 0.00000000, 0.00000000, 0.00000000, 0.00000000
1, 0.5400, 54, 0.12884220, -0.97023374, 0.15872753, -1.02805853, -19.51037598, -66.86788177, 0.00000000, 0.00000000, 0.00000000, 107.47311401, 7.21830797, 77.88409424, 1.00000000, 0.00000000, 0.00000000, 0.00000000, -0.00754567, 0.02339830, 0.13923043, 0.00000000, 0.00000000, 0.00000000, 0.00000000
1, 0.5500, 55, 0.19732776, -1.03826344, 0.06888315, -0.08739033, -3.40039396, -67.98440552, 0.00000000, 0.00000000, 0.00000000, 107.49506378, 7.87695694, 78.05744934, 1.00000000, 0.00000000, 0.00000000, 0.00000000, -0.06459443, 0.09293181, 0.22897498, 0.00000000, 0.00000000, 0.00000000, 0.00000000
1, 0.5600, 56, 0.23726167, -1.03330159, 0.18164088, -6.65220785, 10.75675964, -69.85454559, 0.00000000, 0.00000000, 0.00000000, 107.47370911, 8.51088142, 78.37321472, 1.00000000, 0.00000000, 0.00000000, 0.00000000, -0.09326538, 0.08945575, 0.11569864, 0.00000000, 0.00000000, 0.00000000, 0.00000000
1, 0.5700, 57, 0.35976735, -0.96822786, 0.22350134, -8.74946308, 6.71472073, -64.62678528, 0.00000000, 0.00000000, 0.00000000, 107.42601013, 9.10724354, 78.63412476, 1.00000000, 0.00000000, 0.00000000, 0.00000000, -0.20533428, 0.02566984, 0.07268503, 0.00000000, 0.00000000, 0.00000000, 0.00000000
1, 0.5800, 58, 0.55154133, -0.91345525, 0.30134416, -7.62894440, -12.59688377, -59.49593735, 0.00000000, 0.00000000, 0.00000000, 107.37125397, 9.82003975, 78.67868042, 1.00000000, 0.00000000, 0.00000000, 0.00000000, -0.38628289, -0.02771847, -0.00660983, 0.00000000, 0.00000000, 0.00000000, 0.00000000
1, 0.5900, 59, 0.41138446, -0.87376124, 0.30649447, -0.91024417, -27.75350952, -52.87968826, 0.00000000, 0.00000000, 0.00000000, 107.34284973, 10.40752792, 78.56979370, 1.00000000, 0.00000000, 0.00000000, 0.00000000, -0.23447835, -0.06567290, -0.01296481, 0.00000000, 0.00000000, 0.00000000, 0.00000000
1, 0.6000, 60, 0.39160240, -0.85878307, 0.31969166, -1.05607605, -49.92606354, -43.63726425, 0.00000000, 0.00000000, 0.00000000, 107.26667786, 10.97266293, 78.21681976, 1.00000000, 0.00000000, 0.00000000, 0.00000000, -0.20487410, -0.07919161, -0.02758122, 0.00000000, 0.00000000, 0.00000000, 0.00000000
1, 0.6100, 61, 0.35996765, -0.88696527, 0.28426501, 6.34652472, -48.31291580, -39.00157928, 0.00000000, 0.00000000, 0.00000000, 107.26153564, 11.48842907, 77.86436462, 1.00000000, 0.00000000, 0.00000000, 0.00000000, -0.16401689, -0.04951057, 0.00661322, 0.00000000, 0.00000000, 0.00000000, 0.00000000
1, 0.6200, 62, 0.20541631, -0.89950579, 0.29071295, 2.51620626, -37.95087051, -36.24266052, 0.00000000, 0.00000000, 0.00000000, 107.23384857, 11.94711781, 77.60402679, 1.00000000, 0.00000000, 0.00000000, 0.00000000, -0.00128938, -0.03539377, -0.00038555, 0.00000000, 0.00000000, 0.00000000, 0.00000000
1, 0.6300, 63, 0.17103224, -0.89015645, 0.27693567, 3.59987330, -25.77309608, -35.65737534, 0.00000000, 0.00000000, 0.00000000, 107.24353027, 12.35289288, 77.46291351, 1.00000000, 0.00000000, 0.00000000, 0.00000000, 0.04044676, -0.04336700, 0.01255865, 0.00000000, 0.00000000, 0.00000000, 0.00000000
1, 0.6400, 64, 0.22430074, -0.92474449, 0.32657766, 1.10914719, -13.19070911, -38.19092178, 0.00000000, 0.00000000, 0.00000000, 107.25185394, 12.75673580, 77.44989777, 1.00000000, 0.00000000, 0.00000000, 0.00000000, -0.00607559, -0.00724924, -0.03716198, 0.00000000, 0.00000000, 0.00000000, 0.00000000
1, 0.6500, 65, 0.21455526, -0.92383039, 0.35021272, -0.92351782, -6.65190697, -38.47393036, 0.00000000, 0.00000000, 0.00000000, 107.25428009, 13.14389610, 77.50181580, 1.00000000, 0.00000000, 0.00000000, 0.00000000, 0.01041338, -0.00668241, -0.06119435, 0.00000000, 0.00000000, 0.00000000, 0.00000000
1, 0.6600, 66, 0.32688016, -0.89164656, 0.38570541, -5.11131334, -8.13007736, -36.63769150, 0.00000000, 0.00000000, 0.00000000, 107.21044922, 13.51791668, 77.53355408, 1.00000000, 0.00000000, 0.00000000, 0.00000000, -0.09553071, -0.03756987, -0.09755482, 0.00000000, 0.00000000, 0.00000000, 0.00000000
1, 0.6700, 67, 0.31907263, -0.87508434, 0.34811008, -1.76512194, -14.29465294, -35.66637802, 0.00000000, 0.00000000, 0.00000000, 107.18516541, 13.90090179, 77.50151825, 1.00000000, 0.00000000, 0.00000000, 0.00000000, -0.08126421, -0.05281554, -0.06097690, 0.00000000, 0.00000000, 0.00000000, 0.00000000
1, 0.6800, 68, 0.33446962, -0.85625321, 0.29169476, -2.25803709, -23.79413986, -34.14491272, 0.00000000, 0.00000000, 0.00000000, 107.12713623, 14.33120728, 77.36484528, 1.00000000, 0.00000000, 0.00000000, 0.00000000, -0.08992238, -0.07027188, -0.00578694, 0.00000000, 0.00000000, 0.00000000, 0.00000000
1, 0.6900, 69, 0.21468246, -0.90540844, 0.28807122, 1.78058517, -22.77633095, -35.96725845, 0.00000000, 0.00000000, 0.00000000, 107.11600494, 14.74200344, 77.24940491, 1.00000000, 0.00000000, 0.00000000, 0.00000000, 0.03717535, -0.01946178, -0.00315268, 0.00000000, 0.00000000, 0.00000000, 0.00000000
1, 0.7000, 70, 0.08531919, -0.93804818, 0.35482991, -5.84137249, -10.53128815, -38.98445511, 0.00000000, 0.00000000, 0.00000000, 107.06140137, 15.14560795, 77.26382446, 1.00000000, 0.00000000, 0.00000000, 0.00000000, 0.17344721, 0.01472569, -0.07108413, 0.00000000, 0.00000000, 0.00000000, 0.00000000
1, 0.7100, 71, 0.16228393, -0.93484014, 0.35405910, -9.24330139, 5.92591476, -41.58366013, 0.00000000, 0.00000000, 0.00000000, 107.01800537, 15.52584457, 77.44895172, 1.00000000, 0.00000000, 0.00000000, 0.00000000, 0.10298286, 0.01296583, -0.07160959, 0.00000000, 0.00000000, 0.00000000, 0.00000000
1, 0.7200, 72, 0.24968912, -0.91895258, 0.36680517, -14.54136372, 19.30186272, -45.61340714, 0.00000000, 0.00000000, 0.00000000, 106.96205139, 15.90566540, 77.77916718, 1.00000000, 0.00000000, 0.00000000, 0.00000000, 0.02195587, -0.00146748, -0.08567827, 0.00000000, 0.00000000, 0.00000000, 0.00000000
1, 0.7300, 73, 0.22413675, -0.89314616, 0.30507684, -11.59038734, 15.71695614, -45.86678696, 0.00000000, 0.00000000, 0.00000000, 106.93995667, 16.27762794, 78.08169556, 1.00000000, 0.00000000, 0.00000000, 0.00000000, 0.05393291, -0.02573475, -0.02519839, 0.00000000, 0.00000000, 0.00000000, 0.00000000
1, 0.7400, 74, 0.29439175, -0.90087104, 0.35298741, -9.20990944, 10.90772629, -46.26760101, 0.00000000, 0.00000000, 0.00000000, 106.91857910, 16.68848610, 78.33101654, 1.00000000, 0.00000000, 0.00000000, 0.00000000, -0.00982450, -0.01624535, -0.07385474, 0.00000000, 0.00000000, 0.00000000, 0.00000000
1, 0.7500, 75, 0.35982323, -0.92955428, 0.31426796, -10.52922440, 10.80132580, -48.28261566, 0.00000000, 0.00000000, 0.00000000, 106.88732910, 17.11905479, 78.58575439, 1.00000000, 0.00000000, 0.00000000, 0.00000000, -0.06818322, 0.01433797, -0.03620170, 0.00000000, 0.00000000, 0.00000000, 0.00000000
1, 0.7600, 76, 0.30256689, -0.94254583, 0.19875199, -8.33363914, 0.01173247, -47.07175064, 0.00000000, 0.00000000, 0.00000000, 106.84656525, 17.56947327, 78.72891998, 1.00000000, 0.00000000, 0.00000000, 0.00000000, -0.00356222, 0.02933359, 0.07807788, 0.00000000, 0.00000000, 0.00000000, 0.00000000
1, 0.7700, 77, 0.33936775, -0.95968199, 0.26102486, -8.74316406, -7.30534935, -48.90292358, 0.00000000, 0.00000000, 0.00000000, 106.78211975, 18.05874062, 78.80405426, 1.00000000, 0.00000000, 0.00000000, 0.00000000, -0.03244945, 0.04859680, 0.01414620, 0.00000000, 0.00000000, 0.00000000, 0.00000000
1, 0.7800, 78, 0.25741801, -0.97081143, 0.23669755, -6.86045551, -6.90667200, -49.76122284, 0.00000000, 0.00000000, 0.00000000, 106.72817230, 18.52625656, 78.88614655, 1.00000000, 0.00000000, 0.00000000, 0.00000000, 0.05760022, 0.06201233, 0.03687631, 0.00000000, 0.00000000, 0.00000000, 0.00000000
1, 0.7900, 79, 0.34533748, -0.96464366, 0.28132513, -8.74785423, -4.15772247, -51.01815796, 0.00000000, 0.00000000, 0.00000000, 106.67701721, 19.02687645, 78.99895477, 1.00000000, 0.00000000, 0.00000000, 0.00000000, -0.02243803, 0.05811277, -0.00942132, 0.00000000, 0.00000000, 0.00000000, 0.00000000
1, 0.8000, 80, 0.31047475, -0.95006800, 0.30068201, -10.34037685, -2.64027333, -52.60818863, 0.00000000, 0.00000000, 0.00000000, 106.61742401, 19.53846741, 79.13178253, 1.00000000, 0.00000000, 0.00000000, 0.00000000, 0.02080297, 0.04604498, -0.03051360, 0.00000000, 0.00000000, 0.00000000, 0.00000000
1, 0.8100, 81, 0.35133544, -0.95950037, 0.30910960, -9.49284458, -8.10027313, -51.07300949, 0.00000000, 0.00000000, 0.00000000, 106.54698181, 20.05107880, 79.20418549, 1.00000000, 0.00000000, 0.00000000, 0.00000000, -0.01163462, 0.05804667, -0.04082196, 0.00000000, 0.00000000, 0.00000000, 0.00000000
1, 0.8200, 82, 0.37579671, -0.98040068, 0.34175438, -9.03291512, -5.69181633, -51.27773666, 0.00000000, 0.00000000, 0.00000000, 106.49044800, 20.55886459, 79.30146790, 1.00000000, 0.00000000, 0.00000000, 0.00000000, -0.02774379, 0.08159180, -0.07530435, 0.00000000, 0.00000000, 0.00000000, 0.00000000
1, 0.8300, 83, 0.30613205, -0.98856211, 0.31127271, -9.12996387, -5.96464825, -53.27466583, 0.00000000, 0.00000000, 0.00000000, 106.43933105, 21.03844261, 79.41072083, 1.00000000, 0.00000000, 0.00000000, 0.00000000, 0.05019369, 0.09247002, -0.04661159, 0.00000000, 0.00000000, 0.00000000, 0.00000000
1, 0.8400, 84, 0.25711879, -0.99491197, 0.34013981, -10.03239918, -8.29212189, -54.02602768, 0.00000000, 0.00000000, 0.00000000, 106.36750031, 21.58012009, 79.48916626, 1.00000000, 0.00000000, 0.00000000, 0.00000000, 0.10736248, 0.10159007, -0.07722865, 0.00000000, 0.00000000, 0.00000000, 0.00000000
1, 0.8500, 85, 0.40351847, -0.97697383, 0.29709283, -12.07419395, -9.37302399, -57.23362732, 0.00000000, 0.00000000, 0.00000000, 106.27517700, 22.15573120, 79.56550598, 1.00000000, 0.00000000, 0.00000000, 0.00000000, -0.02994521, 0.08669342, -0.03664038, 0.00000000, 0.00000000, 0.00000000, 0.00000000
1, 0.8600, 86, 0.25486562, -1.02110136, 0.30455837, -10.82983780, -14.13480186, -59.85987091, 0.00000000, 0.00000000, 0.00000000, 106.17989349, 22.76996231, 79.59968567, 1.00000000, 0.00000000, 0.00000000, 0.00000000, 0.12842298, 0.13424248, -0.04656248, 0.00000000, 0.00000000, 0.00000000, 0.00000000
1, 0.8700, 87, 0.32682410, -1.04206407, 0.31268823, -14.54982662, -21.09562111, -61.43632507, 0.00000000, 0.00000000, 0.00000000, 106.02059937, 23.41871071, 79.56455231, 1.00000000, 0.00000000, 0.00000000, 0.00000000, 0.06665408, 0.15871242, -0.05802378, 0.00000000, 0.00000000, 0.00000000, 0.00000000
1, 0.8800, 88, 0.26089314, -1.05553329, 0.32645643, -14.88292122, -23.69761086, -66.80017090, 0.00000000, 0.00000000, 0.00000000, 105.85142517, 24.08156395, 79.52238464, 1.00000000, 0.00000000, 0.00000000, 0.00000000, 0.14338696, 0.17597489, -0.07561035, 0.00000000, 0.00000000, 0.00000000, 0.00000000
1, 0.8900, 89, 0.27088487, -1.07594931, 0.33245772, -16.14418411, -29.04576683, -69.89263916, 0.00000000, 0.00000000, 0.00000000, 105.64913940, 24.83308792, 79.42369843, 1.00000000, 0.00000000, 0.00000000, 0.00000000, 0.14457333, 0.20039248, -0.08592131, 0.00000000, 0.00000000, 0.00000000, 0.00000000
1, 0.9000, 90, 0.30634633, -1.09140921, 0.37589574, -18.84869957, -25.88263321, -74.65200806, 0.00000000, 0.00000000, 0.00000000, 105.43747711, 25.62166786, 79.36920929, 1.00000000, 0.00000000, 0.00000000, 0.00000000, 0.12137105, 0.22045697, -0.13406026, 0.00000000, 0.00000000, 0.00000000, 0.00000000
1, 0.9100, 91, 0.28514090, -1.08825874, 0.32269236, -19.92646980, -29.72172928, -78.44639587, 0.00000000, 0.00000000, 0.00000000, 105.19935608, 26.45676231, 79.28081512, 1.00000000, 0.00000000, 0.00000000, 0.00000000, 0.15542002, 0.22232819, -0.08593879, 0.00000000, 0.00000000, 0.00000000, 0.00000000
1, 0.9200, 92, 0.33347464, -1.08916736, 0.34044892, -21.35760117, -31.43492317, -82.43888855, 0.00000000, 0.00000000, 0.00000000, 104.94052124, 27.33453178, 79.18077850, 1.00000000, 0.00000000, 0.00000000, 0.00000000, 0.12054633, 0.22869819, -0.10928228, 0.00000000, 0.00000000, 0.00000000, 0.00000000
1, 0.9300, 93, 0.35220566, -1.08850396, 0.31692782, -21.53181648, -36.46505737, -86.01338959, 0.00000000, 0.00000000, 0.00000000, 104.65821075, 28.22687721, 79.03689575, 1.00000000, 0.00000000, 0.00000000, 0.00000000, 0.11572895, 0.23393793, -0.09168723, 0.00000000, 0.00000000, 0.00000000, 0.00000000
1, 0.9400, 94, 0.32355237, -1.10139561, 0.30451152, -20.04676437, -43.34028244, -87.75754547, 0.00000000, 0.00000000, 0.00000000, 104.34821320, 29.18501472, 78.80908203, 1.00000000, 0.00000000, 0.00000000, 0.00000000, 0.15855317, 0.25308451, -0.08560851, 0.00000000, 0.00000000, 0.00000000, 0.00000000
1, 0.9500, 95, 0.40418646, -1.10964191, 0.28970218, -21.77101326, -48.30641937, -90.97982025, 0.00000000, 0.00000000, 0.00000000, 103.99040985, 30.18537521, 78.52625275, 1.00000000, 0.00000000, 0.00000000, 0.00000000, 0.09288579, 0.26818103, -0.07795651, 0.00000000, 0.00000000, 0.00000000, 0.00000000
1, 0.9600, 96, 0.31233406, -1.13211036, 0.25223193, -20.70841217, -54.44017792, -92.93754578, 0.00000000, 0.00000000, 0.00000000, 103.60086823, 31.21774864, 78.16918182, 1.00000000, 0.00000000, 0.00000000, 0.00000000, 0.20012487, 0.29804555, -0.04804159, 0.00000000, 0.00000000, 0.00000000, 0.00000000
1, 0.9700, 97, 0.39693061, -1.13552356, 0.25276530, -24.05418968, -61.91567993, -94.76964569, 0.00000000, 0.00000000, 0.00000000, 103.12302399, 32.28287506, 77.71832275, 1.00000000, 0.00000000, 0.00000000, 0.00000000, 0.13120535, 0.30918103, -0.05731917, 0.00000000, 0.00000000, 0.00000000, 0.00000000
1, 0.9800, 98, 0.36400139, -1.14322340, 0.22535212, -25.86836624, -69.26985168, -96.60155487, 0.00000000, 0.00000000, 0.00000000, 102.56359100, 33.34503555, 77.17338562, 1.00000000, 0.00000000, 0.00000000, 0.00000000, 0.18000710, 0.32495785, -0.03970702, 0.00000000, 0.00000000, 0.00000000, 0.00000000
1, 0.9900, 99, 0.38616788, -1.17046142, 0.23318556, -26.37711716, -81.26911926, -96.73679352, 0.00000000, 0.00000000, 0.00000000, 101.90361023, 34.46259689, 76.46339417, 1.00000000, 0.00000000, 0.00000000, 0.00000000, 0.17362449, 0.36043596, -0.05867416, 0.00000000, 0.00000000, 0.00000000, 0.00000000
1, 1.0000, 100, 0.34813389, -1.23096800, 0.26130420, -23.75792313, -94.03087616, -97.40928650, 0.00000000, 0.00000000, 0.00000000, 101.15640259, 35.60496521, 75.57595062, 1.00000000, 0.00000000, 0.00000000, 0.00000000, 0.22791937, 0.42983690, -0.09909697, 0.00000000, 0.00000000, 0.00000000, 0.00000000
1, 1.0100, 101, 0.20276201, -1.31260860, 0.27012664, -20.25711060, -112.30588531, -96.35514069, 0.00000000, 0.00000000, 0.00000000, 100.27742004, 36.76050568, 74.43077850, 1.00000000, 0.00000000, 0.00000000, 0.00000000, 0.38962930, 0.52078420, -0.12165925, 0.00000000, 0.00000000, 0.00000000, 0.00000000
1, 1.0200, 102, 0.16749239, -1.46967232, 0.33735010, -19.42110825, -128.11503601, -96.53425598, 0.00000000, 0.00000000, 0.00000000, 99.24446869, 37.92911911, 73.04850006, 1.00000000, 0.00000000, 0.00000000, 0.00000000, 0.44110218, 0.68744266, -0.20438413, 0.00000000, 0.00000000, 0.00000000, 0.00000000
1, 1.0300, 103, -0.02078932, -1.60601819, 0.37700146, -21.67123604, -140.44544983, -97.89453125, 0.00000000, 0.00000000, 0.00000000, 98.04605103, 39.07566833, 71.47084045, 1.00000000, 0.00000000, 0.00000000, 0.00000000, 0.64544642, 0.83374369, -0.26148942, 0.00000000, 0.00000000, 0.00000000, 0.00000000
1, 1.0400, 104, -0.14125894, -1.69541264, 0.44811329, -22.36143494, -157.92694092, -98.70465088, 0.00000000, 0.00000000, 0.00000000, 96.62779236, 40.25634766, 69.59973145, 1.00000000, 0.00000000, 0.00000000, 0.00000000, 0.78152728, 0.93331760, -0.35217044, 0.00000000, 0.00000000, 0.00000000, 0.00000000
1, 1.0500, 105, -0.23672983, -1.77181458, 0.45287833, -21.19730377, -175.15220642, -101.68683624, 0.00000000, 0.00000000, 0.00000000, 94.99761963, 41.44550705, 67.43225098, 1.00000000, 0.00000000, 0.00000000, 0.00000000, 0.89275295, 1.02077043, -0.37875161, 0.00000000, 0.00000000, 0.00000000, 0.00000000
1, 1.0600, 106, -0.28082246, -1.83505428, 0.46170735, -24.56393814, -191.18957520, -106.24447632, 0.00000000, 0.00000000, 0.00000000, 93.09959412, 42.64046097, 64.96517181, 1.00000000, 0.00000000, 0.00000000, 0.00000000, 0.95242429, 1.09585023, -0.41224694, 0.00000000, 0.00000000, 0.00000000, 0.00000000
1, 1.0700, 107, -0.24554697, -1.92098927, 0.47389361, -23.51603127, -190.46810913, -115.94334412, 0.00000000, 0.00000000, 0.00000000, 91.11402130, 43.86951447, 62.41027451, 1.00000000, 0.00000000, 0.00000000, 0.00000000, 0.93265641, 1.19487870, -0.45027110, 0.00000000, 0.00000000, 0.00000000, 0.00000000
1, 1.0800, 108, -0.21702209, -1.99352479, 0.49469879, -33.97981262, -168.89143372, -133.02505493, 0.00000000, 0.00000000, 0.00000000, 89.12612915, 45.18465805, 60.05513000, 1.00000000, 0.00000000, 0.00000000, 0.00000000, 0.92028069, 1.28265500, -0.49632373, 0.00000000, 0.00000000, 0.00000000, 0.00000000
1, 1.0900, 109, -0.17564784, -2.00154662, 0.59310156, -50.98811722, -124.57947540, -149.14614868, 0.00000000, 0.00000000, 0.00000000, 87.28382111, 46.63699722, 58.19838715, 1.00000000, 0.00000000, 0.00000000, 0.00000000, 0.89593500, 1.30837834, -0.61790609, 0.00000000, 0.00000000, 0.00000000, 0.00000000
1, 1.1000, 110, -0.16408589, -1.98777628, 0.69037503, -66.10452271, -78.29765320, -159.82495117, 0.00000000, 0.00000000, 0.00000000, 85.66746521, 48.18504333, 56.89955902, 1.00000000, 0.00000000, 0.00000000, 0.00000000, 0.90254182, 1.31496239, -0.73418313, 0.00000000, 0.00000000, 0.00000000, 0.00000000
1, 1.1100, 111, 0.09752964, -1.69304550, 0.88484663, -115.06851196, -28.10641289, -161.57377625, 0.00000000, 0.00000000, 0.00000000, 84.02999115, 49.76987839, 56.25326920, 1.00000000, 0.00000000, 0.00000000, 0.00000000, 0.65914112, 1.04216671, -0.94582653, 0.00000000, 0.00000000, 0.00000000, 0.00000000
1, 1.1200, 112, 0.06371911, -1.43998826, 0.76142883, -118.64138031, -24.35064507, -154.50360107, 0.00000000, 0.00000000, 0.00000000, 82.32585144, 51.27425766, 55.58378601, 1.00000000, 0.00000000, 0.00000000, 0.00000000, 0.71040982, 0.81176543, -0.83875781, 0.00000000, 0.00000000, 0.00000000, 0.00000000
1, 1.1300, 113, -0.07008678, -1.42211628, 0.61955726, -81.12002563, -55.49433136, -126.50891113, 0.00000000, 0.00000000, 0.00000000, 80.62639618, 52.39811325, 54.43836212, 1.00000000, 0.00000000, 0.00000000, 0.00000000, 0.85830331, 0.81390637, -0.71305799, 0.00000000, 0.00000000, 0.00000000, 0.00000000
1, 1.1400, 114, 0.06321471, -1.27175736, 0.38200751, -106.23693085, -73.02727509, -102.17185974, 0.00000000, 0.00000000, 0.00000000, 78.37185669, 53.27003479, 52.94291306, 1.00000000, 0.00000000, 0.00000000, 0.00000000, 0.73500997, 0.67998058, -0.49414015, 0.00000000, 0.00000000, 0.00000000, 0.00000000
1, 1.1500, 115, 0.57569176, -0.72437847, 0.14542438, -135.53543091, -91.14704132, -88.36003113, 0.00000000, 0.00000000, 0.00000000, 75.54167938, 53.92490768, 51.11107635, 1.00000000, 0.00000000, 0.00000000, 0.00000000, 0.23016097, 0.14837304, -0.28231928, 0.00000000, 0.00000000, 0.00000000, 0.00000000
1, 1.1600, 116, 1.23504961, -0.28694555, -0.13355179, -95.73043823, -107.36395264, -82.89621735, 0.00000000, 0.00000000, 0.00000000, 72.83943939, 54.42863464, 48.95963669, 1.00000000, 0.00000000, 0.00000000, 0.00000000, -0.42340401, -0.27399993, -0.02926491, 0.00000000, 0.00000000, 0.00000000, 0.00000000
1, 1.1700, 117, 1.80760908, -0.31243289, 0.38700926, -16.76218224, -116.31581116, -59.20699310, 0.00000000, 0.00000000, 0.00000000, 70.86196899, 54.62802505, 46.73673630, 1.00000000, 0.00000000, 0.00000000, 0.00000000, -0.99312091, -0.23775762, -0.57104945, 0.00000000, 0.00000000, 0.00000000, 0.00000000
1, 1.1800, 118, 0.64874417, -0.61167991, 0.68988967, 33.23551178, -52.05176926, -61.77368546, 0.00000000, 0.00000000, 0.00000000, 70.47565460, 55.01181793, 45.75761414, 1.00000000, 0.00000000, 0.00000000, 0.00000000, 0.16946755, 0.06984325, -0.88208377, 0.00000000, 0.00000000, 0.00000000, 0.00000000
1, 1.1900, 119, -0.07949008, -0.58565927, 0.43850356, 12.17341805, -43.89535522, -18.31931686, 0.00000000, 0.00000000, 0.00000000, 69.91801453, 55.03582382, 44.92880630, 1.00000000, 0.00000000, 0.00000000, 0.00000000, 0.89923608, 0.04696910, -0.63299471, 0.00000000, 0.00000000, 0.00000000, 0.00000000
1, 1.2000, 120, -0.33013710, -0.35365766, 0.24805507, -15.20635509, -49.93625641, 30.97721863, 0.00000000, 0.00000000, 0.00000000, 69.25564575, 54.57125854, 44.30462265, 1.00000000, 0.00000000, 0.00000000, 0.00000000, 1.14712453, -0.18645754, -0.45003754, 0.00000000, 0.00000000, 0.00000000, 0.00000000
1, 1.2100, 121, -0.18784627, -0.18492480, -0.00652923, 3.11136913, -68.25517273, 67.96773529, 0.00000000, 0.00000000, 0.00000000, 68.74237061, 53.69204330, 43.63300705, 1.00000000, 0.00000000, 0.00000000, 0.00000000, 0.99729663, -0.36297375, -0.20459877, 0.00000000, 0.00000000, 0.00000000, 0.00000000
1, 1.2200, 122, -0.05317936, -0.08802667, -0.11774580, -0.09266668, -79.10034180, 102.36991882, 0.00000000, 0.00000000, 0.00000000, 68.26109314, 52.44968033, 43.03244781, 1.00000000, 0.00000000, 0.00000000, 0.00000000, 0.85108578, -0.47250992, -0.10384843, 0.00000000, 0.00000000, 0.00000000, 0.00000000
1, 1.2300, 123, -0.01287792, -0.01983080, -0.07568049, 19.11599731, -71.26388550, 117.34648132, 0.00000000, 0.00000000, 0.00000000, 68.13747406, 51.06475449, 42.65100861, 1.00000000, 0.00000000, 0.00000000, 0.00000000, 0.79649812, -0.55671668, -0.15559058, 0.00000000, 0.00000000, 0.00000000, 0.00000000
1, 1.2400, 124, -0.05024412, -0.07461891, -0.00345713, 48.58543396, -36.43392944, 123.32862091, 0.00000000, 0.00000000, 0.00000000, 68.76115417, 49.78359604, 42.83079529, 1.00000000, 0.00000000, 0.00000000, 0.00000000, 0.81914413, -0.52012390, -0.23112859, 0.00000000, 0.00000000, 0.00000000, 0.00000000
1, 1.2500, 125, -0.08184561, -0.12798584, 0.00671987, 58.51062393, 8.52553272, 133.86920166, 0.00000000, 0.00000000, 0.00000000, 69.98381042, 48.56040573, 43.67431641, 1.00000000, 0.00000000, 0.00000000, 0.00000000, 0.83674008, -0.48623908, -0.23652369, 0.00000000, 0.00000000, 0.00000000, 0.00000000
1, 1.2600, 126, -0.06242067, -0.13094923, 0.05618363, 67.33952332, 47.20872116, 149.73893738, 0.00000000, 0.00000000, 0.00000000, 71.69551849, 47.30070114, 45.07360077, 1.00000000, 0.00000000, 0.00000000, 0.00000000, 0.80297858, -0.50446332, -0.27470788, 0.00000000, 0.00000000, 0.00000000, 0.00000000
1, 1.2700, 127, -0.02535245, -0.15710853, 0.05173317, 81.59984589, 74.54114532, 166.61582947, 0.00000000, 0.00000000, 0.00000000, 73.78762817, 45.93046188, 46.82974243, 1.00000000, 0.00000000, 0.00000000, 0.00000000, 0.75015014, -0.50162858, -0.25331861, 0.00000000, 0.00000000, 0.00000000, 0.00000000
1, 1.2800, 128, -0.01189598, -0.22278787, 0.05256657, 90.02885437, 98.62580109, 178.15351868, 0.00000000, 0.00000000, 0.00000000, 76.13348389, 44.44005966, 48.85755157, 1.00000000, 0.00000000, 0.00000000, 0.00000000, 0.71917057, -0.46072251, -0.23271948, 0.00000000, 0.00000000, 0.00000000, 0.00000000
1, 1.2900, 129, -0.01797926, -0.35201898, 0.03454817, 99.15375519, 118.56865692, 189.23143005, 0.00000000, 0.00000000, 0.00000000, 78.62316895, 42.85226440, 51.02792740, 1.00000000, 0.00000000, 0.00000000, 0.00000000, 0.70579994, -0.35707211, -0.18931405, 0.00000000, 0.00000000, 0.00000000, 0.00000000
1, 1.3000, 130, -0.01836758, -0.44865534, 0.02589051, 100.73762512, 140.17601013, 202.59115601, 0.00000000, 0.00000000, 0.00000000, 81.19129944, 41.10265732, 53.36172104, 1.00000000, 0.00000000, 0.00000000, 0.00000000, 0.68448353, -0.28625348, -0.15252244, 0.00000000, 0.00000000, 0.00000000, 0.00000000
1, 1.3100, 131, 0.07709399, -0.52276653, -0.00964930, 111.46109772, 167.02755737, 219.89064026, 0.00000000, 0.00000000, 0.00000000, 83.94181824, 39.13808823, 55.89980698, 1.00000000, 0.00000000, 0.00000000, 0.00000000, 0.56419992, -0.23852743, -0.08507168, 0.00000000, 0.00000000, 0.00000000, 0.00000000
1, 1.3200, 132, 0.20144469, -0.63783097, 0.04537136, 122.94172668, 181.93395996, 231.17781067, 0.00000000, 0.00000000, 0.00000000, 86.73847961, 36.98133469, 58.44124985, 1.00000000, 0.00000000, 0.00000000, 0.00000000, 0.41148394, -0.14993736, -0.10462098, 0.00000000, 0.00000000, 0.00000000, 0.00000000
1, 1.3300, 133, 0.31430849, -0.75209016, 0.07378571, 122.01977539, 191.75846863, 239.40701294, 0.00000000, 0.00000000, 0.00000000, 89.40544128, 34.64415359, 60.90793991, 1.00000000, 0.00000000, 0.00000000, 0.00000000, 0.26686761, -0.06123275, -0.09610154, 0.00000000, 0.00000000, 0.00000000, 0.00000000
1, 1.3400, 134, 0.42706892, -0.82922775, 0.07205229, 116.30349731, 187.89936829, 247.55110168, 0.00000000, 0.00000000, 0.00000000, 91.79108429, 32.14894104, 63.12690353, 1.00000000, 0.00000000, 0.00000000, 0.00000000, 0.11897288, -0.00827630, -0.05854735, 0.00000000, 0.00000000, 0.00000000, 0.00000000
1, 1.3500, 135, 0.54557538, -0.90391105, 0.08387850, 115.79699707, 170.26219177, 258.84634399, 0.00000000, 0.00000000, 0.00000000, 93.88845062, 29.47958565, 64.95729828, 1.00000000, 0.00000000, 0.00000000, 0.00000000, -0.03818735, 0.04362212, -0.03683363, 0.00000000, 0.00000000, 0.00000000, 0.00000000
1, 1.3600, 136, 0.64698303, -1.00789237, 0.11761324, 113.72895813, 138.22468567, 270.04339600, 0.00000000, 0.00000000, 0.00000000, 95.64255524, 26.67409134, 66.26370239, 1.00000000, 0.00000000, 0.00000000, 0.00000000, -0.18165097, 0.12628369, -0.04022709, 0.00000000, 0.00000000, 0.00000000, 0.00000000
1, 1.3700, 137, 0.73889965, -1.07884359, 0.18561891, 110.41009521, 106.66661835, 280.64892578, 0.00000000, 0.00000000, 0.00000000, 97.10066986, 23.76700592, 67.09093475, 1.00000000, 0.00000000, 0.00000000, 0.00000000, -0.31845161, 0.17762396, -0.08177461, 0.00000000, 0.00000000, 0.00000000, 0.00000000
1, 1.3800, 138, 0.76456696, -1.15593636, 0.25715947, 114.40839386, 86.75212097, 292.94711304, 0.00000000, 0.00000000, 0.00000000, 98.43838501, 20.75622559, 67.59114838, 1.00000000, 0.00000000, 0.00000000, 0.00000000, -0.39176545, 0.23705845, -0.12898630, 0.00000000, 0.00000000, 0.00000000, 0.00000000
1, 1.3900, 139, 0.70748645, -1.31189036, 0.35090771, 121.60457611, 68.85382843, 301.64260864, 0.00000000, 0.00000000, 0.00000000, 99.72599030, 17.66915321, 67.80683899, 1.00000000, 0.00000000, 0.00000000, 0.00000000, -0.38475960, 0.37784117, -0.19879964, 0.00000000, 0.00000000, 0.00000000, 0.00000000
1, 1.4000, 140, 0.64450628, -1.43244076, 0.40766001, 118.26367950, 67.21154785, 305.68893433, 0.00000000, 0.00000000, 0.00000000, 100.94139099, 14.54136181, 67.92405701, 1.00000000, 0.00000000, 0.00000000, 0.00000000, -0.37365142, 0.48605162, -0.23239009, 0.00000000, 0.00000000, 0.00000000, 0.00000000
1, 1.4100, 141, 0.60398060, -1.54328239, 0.42751673, 115.74096680, 75.08848572, 305.49768066, 0.00000000, 0.00000000, 0.00000000, 102.12728119, 11.39783573, 68.05220032, 1.00000000, 0.00000000, 0.00000000, 0.00000000, -0.38627326, 0.58762157, -0.22990800, 0.00000000, 0.00000000, 0.00000000, 0.00000000
1, 1.4200, 142, 0.65532899, -1.63944542, 0.38265198, 113.56288910, 86.44359589, 300.09347534, 0.00000000, 0.00000000, 0.00000000, 103.29440308, 8.28015518, 68.23763275, 1.00000000, 0.00000000, 0.00000000, 0.00000000, -0.49124128, 0.67788452, -0.16307449, 0.00000000, 0.00000000, 0.00000000, 0.00000000
1, 1.4300, 143, 0.78685087, -1.61784077, 0.35077447, 105.96845245, 93.88496399, 290.75463867, 0.00000000, 0.00000000, 0.00000000, 104.37847137, 5.24372435, 68.45317078, 1.00000000, 0.00000000, 0.00000000, 0.00000000, -0.67590702, 0.65355372, -0.11078078, 0.00000000, 0.00000000, 0.00000000, 0.00000000
1, 1.4400, 144, 0.92229468, -1.57598722, 0.32330403, 110.44522095, 98.17404938, 277.74850464, 0.00000000, 0.00000000, 0.00000000, 105.49832153, 2.30707335, 68.68675995, 1.00000000, 0.00000000, 0.00000000, 0.00000000, -0.86301643, 0.61220217, -0.06374487, 0.00000000, 0.00000000, 0.00000000, 0.00000000
1, 1.4500, 145, 0.95732337, -1.52813637, 0.28933993, 116.23238373, 99.90451813, 266.42864990, 0.00000000, 0.00000000, 0.00000000, 106.66415405, -0.52964276, 68.90905762, 1.00000000, 0.00000000, 0.00000000, 0.00000000, -0.94810939, 0.56810427, -0.01000005, 0.00000000, 0.00000000, 0.00000000, 0.00000000
1, 1.4600, 146, 0.96185046, -1.46440411, 0.16256803, 120.12101746, 99.52516937, 258.11697388, 0.00000000, 0.00000000, 0.00000000, 107.85923767, -3.28983426, 69.09401703, 1.00000000, 0.00000000, 0.00000000, 0.00000000, -1.00129640, 0.51104301, 0.13631737, 0.00000000, 0.00000000, 0.00000000, 0.00000000
1, 1.4700, 147, 1.09561503, -1.61657369, 0.18520060, 131.72912598, 99.82064819, 243.69902039, 0.00000000, 0.00000000, 0.00000000, 109.16265869, -5.91755676, 69.26826477, 1.00000000, 0.00000000, 0.00000000, 0.00000000, -1.18187928, 0.67278922, 0.13358967, 0.00000000, 0.00000000, 0.00000000, 0.00000000
1, 1.4800, 148, 1.09682715, -1.64263642, 0.13375790, 118.93521118, 80.77194977, 228.35427856, 0.00000000, 0.00000000, 0.00000000, 110.34714508, -8.31916142, 69.25337219, 1.00000000, 0.00000000, 0.00000000, 0.00000000, -1.22637248, 0.71049035, 0.20411259, 0.00000000, 0.00000000, 0.00000000, 0.00000000
1, 1.4900, 149, 1.11283028, -1.46771657, 0.05753520, 102.69004059, 62.78608704, 208.75953674, 0.00000000, 0.00000000, 0.00000000, 111.40042114, -10.49329567, 69.09420013, 1.00000000, 0.00000000, 0.00000000, 0.00000000, -1.28127694, 0.54759324, 0.29582629, 0.00000000, 0.00000000, 0.00000000, 0.00000000
1, 1.5000, 150, 1.15582323, -1.28229547, -0.02689959, 90.45726776, 42.93927765, 184.00144958, 0.00000000, 0.00000000, 0.00000000, 112.36361694, -12.36052513, 68.80110168, 1.00000000, 0.00000000, 0.00000000, 0.00000000, -1.35841894, 0.37446570, 0.39391533, 0.00000000, 0.00000000, 0.00000000, 0.00000000
1, 1.5100, 151, 1.19020104, -1.13733840, -0.12888004, 75.62503052, 11.14671898, 149.22985840, 0.00000000, 0.00000000, 0.00000000, 113.23085022, -13.77919483, 68.31333923, 1.00000000, 0.00000000, 0.00000000, 0.00000000, -1.42001772, 0.24089536, 0.50771201, 0.00000000, 0.00000000, 0.00000000, 0.00000000
1, 1.5200, 152, 1.26559687, -1.07694745, -0.10727758, 65.81509399, -9.16116238, 109.38744354, 0.00000000, 0.00000000, 0.00000000, 114.02187347, -14.74467564, 67.77459717, 1.00000000, 0.00000000, 0.00000000, 0.00000000, -1.51449764, 0.19035961, 0.49711964, 0.00000000, 0.00000000, 0.00000000, 0.00000000
1, 1.5300, 153, 1.37207997, -1.01848042, -0.08418837, 52.04907608, -6.83196115, 70.92775726, 0.00000000, 0.00000000, 0.00000000, 114.61841583, -15.30341339, 67.40190887, 1.00000000, 0.00000000, 0.00000000, 0.00000000, -1.63331342, 0.13953587, 0.48318726, 0.00000000, 0.00000000, 0.00000000, 0.00000000
1, 1.5400, 154, 1.37343514, -0.99992216, -0.07550400, 38.15438080, -14.24940681, 30.42984200, 0.00000000, 0.00000000, 0.00000000, 115.07095337, -15.51964188, 67.13532257, 1.00000000, 0.00000000, 0.00000000, 0.00000000, -1.64021540, 0.12586080, 0.48150927, 0.00000000, 0.00000000, 0.00000000, 0.00000000
1, 1.5500, 155, 1.18106902, -0.99374038, -0.10246823, 17.63047981, -30.05824852, -14.93313885, 0.00000000, 0.00000000, 0.00000000, 115.30474091, -15.25652504, 66.91935730, 1.00000000, 0.00000000, 0.00000000, 0.00000000, -1.44653368, 0.12167002, 0.51358658, 0.00000000, 0.00000000, 0.00000000, 0.00000000
1, 1.5600, 156, 1.00110936, -1.02752030, -0.12188146, -11.38338757, -41.46488571, -57.04295349, 0.00000000, 0.00000000, 0.00000000, 115.22611237, -14.56360054, 66.78349304, 1.00000000, 0.00000000, 0.00000000, 0.00000000, -1.25759315, 0.15357699, 0.53470647, 0.00000000, 0.00000000, 0.00000000, 0.00000000
1, 1.5700, 157, 0.88648129, -1.14100897, -0.02610425, -33.83264542, -36.13426971, -100.27823639, 0.00000000, 0.00000000, 0.00000000, 114.86392975, -13.50201035, 66.88371277, 1.00000000, 0.00000000, 0.00000000, 0.00000000, -1.12710845, 0.26147735, 0.43657970, 0.00000000, 0.00000000, 0.00000000, 0.00000000
1, 1.5800, 158, 0.85070175, -1.17266369, -0.03539162, -56.06905746, -19.68552780, -135.91288757, 0.00000000, 0.00000000, 0.00000000, 114.19187164, -12.12417126, 67.27378082, 1.00000000, 0.00000000, 0.00000000, 0.00000000, -1.07031465, 0.28477228, 0.43956816, 0.00000000, 0.00000000, 0.00000000, 0.00000000
1, 1.5900, 159, -0.24522838, -1.12239540, 1.41824901, -68.82703400, 56.07932663, -177.57894897, 0.00000000, 0.00000000, 0.00000000, 113.25969696, -10.72197533, 68.52644348, 1.00000000, 0.00000000, 0.00000000, 0.00000000, 0.05071729, 0.22369474, -1.02526546, 0.00000000, 0.00000000, 0.00000000, 0.00000000
1, 1.6000, 160, -2.52424002, -1.97366047, 1.06597471, -2.08890390, 191.68643188, -134.79913330, 0.00000000, 0.00000000, 0.00000000, 112.81771851, -10.22882462, 70.85620880, 1.00000000, 0.00000000, 0.00000000, 0.00000000, 2.34475708, 1.06744933, -0.68314171, 0.00000000, 0.00000000, 0.00000000, 0.00000000
1, 1.6100, 161, -1.84090281, -2.28063560, -0.32851911, -27.90352631, -0.13853644, -52.39872742, 0.00000000, 0.00000000, 0.00000000, 112.50227356, -9.74544621, 71.06066132, 1.00000000, 0.00000000, 0.00000000, 0.00000000, 1.66735280, 1.37230694, 0.70905185, 0.00000000, 0.00000000, 0.00000000, 0.00000000
1, 1.6200, 162, 0.09244303, -1.39743030, -0.50486630, -144.45285034, -11.40764427, -109.18475342, 0.00000000, 0.00000000, 0.00000000, 111.01004028, -8.68795204, 71.36262512, 1.00000000, 0.00000000, 0.00000000, 0.00000000, -0.25068274, 0.47920269, 0.86781991, 0.00000000, 0.00000000, 0.00000000, 0.00000000
1, 1.6300, 163, 1.36460602, -0.94800639, -0.08517589, -60.97234344, 30.41338348, -149.08659363, 0.00000000, 0.00000000, 0.00000000, 110.28253937, -7.35892248, 72.17273712, 1.00000000, 0.00000000, 0.00000000, 0.00000000, -1.50188982, 0.02014254, 0.43182990, 0.00000000, 0.00000000, 0.00000000, 0.00000000
1, 1.6400, 164, 0.78979290, -1.37221611, 0.27159485, -25.43559265, 55.11642456, -164.17459106, 0.00000000, 0.00000000, 0.00000000, 109.90142059, -6.00625992, 73.26153564, 1.00000000, 0.00000000, 0.00000000, 0.00000000, -0.90319991, 0.43881083, 0.06876902, 0.00000000, 0.00000000, 0.00000000, 0.00000000
1, 1.6500, 165, 0.08370890, -1.54416120, -0.19812845, -19.80580521, 9.12086678, -155.77368164, 0.00000000, 0.00000000, 0.00000000, 109.64542389, -4.57149649, 73.87723541, 1.00000000, 0.00000000, 0.00000000, 0.00000000, -0.17283109, 0.60674196, 0.53465688, 0.00000000, 0.00000000, 0.00000000, 0.00000000
1, 1.6600, 166, 0.00572800, -1.20661080, -0.18996325, -38.02441788, -7.16202021, -147.93806458, 0.00000000, 0.00000000, 0.00000000, 109.23703766, -3.15251565, 74.30319214, 1.00000000, 0.00000000, 0.00000000, 0.00000000, -0.06985285, 0.26531941, 0.52133459, 0.00000000, 0.00000000, 0.00000000, 0.00000000
1, 1.6700, 167, 0.33691290, -0.81081164, 0.09383917, -35.32921219, 39.56317139, -143.39535522, 0.00000000, 0.00000000, 0.00000000, 108.84742737, -1.92589080, 75.14595032, 1.00000000, 0.00000000, 0.00000000, 0.00000000, -0.37820202, -0.13391881, 0.23134080, 0.00000000, 0.00000000, 0.00000000, 0.00000000
1, 1.6800, 168, 0.41948199, -0.52255392, 0.60269201, -31.37818146, 62.96793365, -131.04086304, 0.00000000, 0.00000000, 0.00000000, 108.58567810, -0.83535349, 76.15007019, 1.00000000, 0.00000000, 0.00000000, 0.00000000, -0.44138691, -0.42474598, -0.28314006, 0.00000000, 0.00000000, 0.00000000, 0.00000000
1, 1.6900, 169, 0.38883498, -0.46157682, 0.75316656, -6.01523781, 61.92774200, -119.28916168, 0.00000000, 0.00000000, 0.00000000, 108.51931763, 0.09884828, 77.11643219, 1.00000000, 0.00000000, 0.00000000, 0.00000000, -0.39308247, -0.48659492, -0.43546841, 0.00000000, 0.00000000, 0.00000000, 0.00000000
1, 1.7000, 170, 0.56585509, -0.59729236, 0.64792621, 1.77265549, 48.60847855, -110.79192352, 0.00000000, 0.00000000, 0.00000000, 108.54458618, 0.99485028, 77.92945099, 1.00000000, 0.00000000, 0.00000000, 0.00000000, -0.55440068, -0.35077557, -0.33009458, 0.00000000, 0.00000000, 0.00000000, 0.00000000
1, 1.7100, 171, 0.66527402, -0.85454458, 0.69522804, 13.75652122, 33.43996048, -113.09483337, 0.00000000, 0.00000000, 0.00000000, 108.69942474, 1.95999479, 78.60749054, 1.00000000, 0.00000000, 0.00000000, 0.00000000, -0.63747287, -0.09269449, -0.37594473, 0.00000000, 0.00000000, 0.00000000, 0.00000000
1, 1.7200, 172, 0.55201149, -1.11105871, 0.60443348, 1.72648358, 13.91689396, -109.69541931, 0.00000000, 0.00000000, 0.00000000, 108.73693085, 2.95394206, 79.09249115, 1.00000000, 0.00000000, 0.00000000, 0.00000000, -0.50699902, 0.16518000, -0.28308702, 0.00000000, 0.00000000, 0.00000000, 0.00000000
1, 1.7300, 173, 0.50894624, -0.91758460, 0.49313700, -31.21144295, -51.94728088, -88.00234222, 0.00000000, 0.00000000, 0.00000000, 108.43788910, 4.01346970, 78.86952209, 1.00000000, 0.00000000, 0.00000000, 0.00000000, -0.44627875, -0.02870782, -0.17600289, 0.00000000, 0.00000000, 0.00000000, 0.00000000
1, 1.7400, 174, 0.60882270, -0.86335450, 0.40071177, -2.49712086, -116.65584564, -68.39766693, 0.00000000, 0.00000000, 0.00000000, 108.34169769, 5.03031111, 77.97527313, 1.00000000, 0.00000000, 0.00000000, 0.00000000, -0.52779925, -0.08256944, -0.08664475, 0.00000000, 0.00000000, 0.00000000, 0.00000000
1, 1.7500, 175, 0.47118816, -0.94460022, 0.16779484, 1.38746297, -145.43850708, -58.89752197, 0.00000000, 0.00000000, 0.00000000, 108.23943329, 6.04608011, 76.77368927, 1.00000000, 0.00000000, 0.00000000, 0.00000000, -0.37244472, -0.00026163, 0.14439249, 0.00000000, 0.00000000, 0.00000000, 0.00000000
1, 1.7600, 176, 0.08427828, -1.05211592, 0.06939479, 4.22739506, -134.11489868, -58.50130081, 0.00000000, 0.00000000, 0.00000000, 108.15705109, 7.02053976, 75.67507935, 1.00000000, 0.00000000, 0.00000000, 0.00000000, 0.03171969, 0.10845211, 0.24047703, 0.00000000, 0.00000000, 0.00000000, 0.00000000
1, 1.7700, 177, -0.28573951, -1.17629945, -0.00199332, 2.82157564, -81.21895599, -62.83024597, 0.00000000, 0.00000000, 0.00000000, 108.11060333, 7.87054348, 75.09409332, 1.00000000, 0.00000000, 0.00000000, 0.00000000, 0.41733089, 0.23425588, 0.31057221, 0.00000000, 0.00000000, 0.00000000, 0.00000000
1, 1.7800, 178, -0.35220733, -1.08840835, 0.17814775, -19.88884735, -20.85769653, -75.07002258, 0.00000000, 0.00000000, 0.00000000, 107.91030884, 8.54591846, 75.14754486, 1.00000000, 0.00000000, 0.00000000, 0.00000000, 0.49715382, 0.14734338, 0.12742691, 0.00000000, 0.00000000, 0.00000000, 0.00000000
1, 1.7900, 179, -0.25678560, -0.99454588, 0.30940104, -20.60420418, 40.02083206, -85.80548096, 0.00000000, 0.00000000, 0.00000000, 107.80562592, 9.24000549, 75.79952240, 1.00000000, 0.00000000, 0.00000000, 0.00000000, 0.41301149, 0.05433489, -0.00676993, 0.00000000, 0.00000000, 0.00000000, 0.00000000
1, 1.8000, 180, 0.17922653, -0.88380003, 0.30926248, -36.50386429, 69.32310486, -85.77288818, 0.00000000, 0.00000000, 0.00000000, 107.59559631, 9.84623432, 76.73378754, 1.00000000, 0.00000000, 0.00000000, 0.00000000, -0.01205059, -0.05553575, -0.00977847, 0.00000000, 0.00000000, 0.00000000, 0.00000000
1, 1.8100, 181, 0.41944066, -0.84791625, 0.34916097, -30.25080299, 77.73744965, -81.14794922, 0.00000000, 0.00000000, 0.00000000, 107.46888733, 10.38595581, 77.73500061, 1.00000000, 0.00000000, 0.00000000, 0.00000000, -0.24260823, -0.09071989, -0.05304389, 0.00000000, 0.00000000, 0.00000000, 0.00000000
1, 1.8200, 182, 0.46848270, -0.84399635, 0.38495016, -28.62093925, 50.60168457, -73.59569550, 0.00000000, 0.00000000, 0.00000000, 107.31463623, 10.93685818, 78.45018768, 1.00000000, 0.00000000, 0.00000000, 0.00000000, -0.28238010, -0.09367785, -0.09147973, 0.00000000, 0.00000000, 0.00000000, 0.00000000
1, 1.8300, 183, 0.52393633, -0.80846322, 0.48355180, -22.50376701, 15.35265160, -66.54399109, 0.00000000, 0.00000000, 0.00000000, 107.21524811, 11.62149143, 78.79188538, 1.00000000, 0.00000000, 0.00000000, 0.00000000, -0.32752746, -0.12808633, -0.19323070, 0.00000000, 0.00000000, 0.00000000, 0.00000000
1, 1.8400, 184, 0.50183588, -0.85214549, 0.39710689, -11.56613445, -14.73750591, -58.49303055, 0.00000000, 0.00000000, 0.00000000, 107.10607147, 12.22383118, 78.82434082, 1.00000000, 0.00000000, 0.00000000, 0.00000000, -0.29396635, -0.08251189, -0.10866821, 0.00000000, 0.00000000, 0.00000000, 0.00000000
1, 1.8500, 185, 0.35987172, -0.90160412, 0.23963554, -10.43339443, -33.10634613, -53.63119507, 0.00000000, 0.00000000, 0.00000000, 106.96620178, 12.83356380, 78.66099548, 1.00000000, 0.00000000, 0.00000000, 0.00000000, -0.14166984, -0.03156890, 0.04596329, 0.00000000, 0.00000000, 0.00000000, 0.00000000
1, 1.8600, 186, 0.21821937, -0.95191514, 0.19378749, -10.71830559, -36.77614212, -52.11354828, 0.00000000, 0.00000000, 0.00000000, 106.81229401, 13.43910027, 78.45516205, 1.00000000, 0.00000000, 0.00000000, 0.00000000, 0.01036673, 0.02031489, 0.08880796, 0.00000000, 0.00000000, 0.00000000, 0.00000000
1, 1.8700, 187, 0.13242973, -0.96744943, 0.14122297, -12.04797173, -22.69264221, -53.55865860, 0.00000000, 0.00000000, 0.00000000, 106.67652130, 14.01738644, 78.39027405, 1.00000000, 0.00000000, 0.00000000, 0.00000000, 0.10615270, 0.03738792, 0.13816206, 0.00000000, 0.00000000, 0.00000000, 0.00000000
1, 1.8800, 188, 0.19917543, -0.96598387, 0.20818712, -15.61485195, -3.00436020, -55.82026291, 0.00000000, 0.00000000, 0.00000000, 106.52769470, 14.54816818, 78.52159882, 1.00000000, 0.00000000, 0.00000000, 0.00000000, 0.04878723, 0.03756754, 0.06849065, 0.00000000, 0.00000000, 0.00000000, 0.00000000
1, 1.8900, 189, 0.18493775, -0.97241443, 0.19376957, -14.66619968, 18.49612427, -57.34581375, 0.00000000, 0.00000000, 0.00000000, 106.47101593, 15.04550457, 78.87348938, 1.00000000, 0.00000000, 0.00000000, 0.00000000, 0.07157354, 0.04563259, 0.08058741, 0.00000000, 0.00000000, 0.00000000, 0.00000000
1, 1.9000, 190, 0.29543513, -0.91055793, 0.32562605, -23.96736717, 25.53049660, -54.96164703, 0.00000000, 0.00000000, 0.00000000, 106.34067535, 15.50061893, 79.28832245, 1.00000000, 0.00000000, 0.00000000, 0.00000000, -0.03101121, -0.01463833, -0.05343755, 0.00000000, 0.00000000, 0.00000000, 0.00000000
1, 1.9100, 191, 0.41156751, -0.86864996, 0.30862892, -17.05094337, 26.30916023, -54.19716263, 0.00000000, 0.00000000, 0.00000000, 106.28401184, 15.94691944, 79.70870209, 1.00000000, 0.00000000, 0.00000000, 0.00000000, -0.13963610, -0.05499341, -0.03857072, 0.00000000, 0.00000000, 0.00000000, 0.00000000
1, 1.9200, 192, 0.44400373, -0.89747524, 0.31745431, -15.86871433, 13.94922256, -52.13495636, 0.00000000, 0.00000000, 0.00000000, 106.20639801, 16.40838623, 80.00004578, 1.00000000, 0.00000000, 0.00000000, 0.00000000, -0.16442789, -0.02432041, -0.04889359, 0.00000000, 0.00000000, 0.00000000, 0.00000000
1, 1.9300, 193, 0.45592934, -0.85826778, 0.28059679, -15.74260139, -1.81613827, -48.56004333, 0.00000000, 0.00000000, 0.00000000, 106.08829498, 16.94757462, 80.11039734, 1.00000000, 0.00000000, 0.00000000, 0.00000000, -0.16828275, -0.06177601, -0.01456818, 0.00000000, 0.00000000, 0.00000000, 0.00000000
1, 1.9400, 194, 0.33455381, -0.92158294, 0.24912989, -7.09576035, -12.71345615, -48.39186859, 0.00000000, 0.00000000, 0.00000000, 106.02091980, 17.44777298, 80.12255096, 1.00000000, 0.00000000, 0.00000000, 0.00000000, -0.03784915, 0.00380753, 0.01478038, 0.00000000, 0.00000000, 0.00000000, 0.00000000
1, 1.9500, 195, 0.23693873, -0.96360302, 0.19199699, -9.51605511, -13.86790752, -46.50344467, 0.00000000, 0.00000000, 0.00000000, 105.92407227, 17.93302155, 80.11695862, 1.00000000, 0.00000000, 0.00000000, 0.00000000, 0.06795491, 0.04795380, 0.06995821, 0.00000000, 0.00000000, 0.00000000, 0.00000000
1, 1.9600, 196, 0.30336827, -0.96194929, 0.15575925, -7.49617386, -9.56611538, -47.98237991, 0.00000000, 0.00000000, 0.00000000, 105.86206055, 18.42070580, 80.15834808, 1.00000000, 0.00000000, 0.00000000, 0.00000000, 0.00958245, 0.04842065, 0.10408990, 0.00000000, 0.00000000, 0.00000000, 0.00000000
1, 1.9700, 197, 0.36899063, -0.95715874, 0.15953910, -7.58403683, -6.73480129, -48.99787903, 0.00000000, 0.00000000, 0.00000000, 105.80951691, 18.91046715, 80.23110962, 1.00000000, 0.00000000, 0.00000000, 0.00000000, -0.04792929, 0.04603332, 0.09884868, 0.00000000, 0.00000000, 0.00000000, 0.00000000
1, 1.9800, 198, 0.33508328, -0.88694084, 0.18448074, -8.65010548, -4.59756994, -47.66469574, 0.00000000, 0.00000000, 0.00000000, 105.72499084, 19.41040230, 80.30648804, 1.00000000, 0.00000000, 0.00000000, 0.00000000, -0.00597396, -0.02183613, 0.07204493, 0.00000000, 0.00000000, 0.00000000, 0.00000000
1, 1.9900, 199, 0.42235410, -0.88643247, 0.23043239, -3.59544539, -0.70666075, -48.67814255, 0.00000000, 0.00000000, 0.00000000, 105.73371124, 19.88088417, 80.43930817, 1.00000000, 0.00000000, 0.00000000, 0.00000000, -0.08520497, -0.01978683, 0.02469837, 0.00000000, 0.00000000, 0.00000000, 0.00000000
1, 2.0000, 200, 0.32111809, -0.93880320, 0.24931318, -2.29650974, -0.14255358, -48.17991257, 0.00000000, 0.00000000, 0.00000000, 105.75809479, 20.34497833, 80.57712555, 1.00000000, 0.00000000, 0.00000000, 0.00000000, 0.02371921, 0.03541233, 0.00557338, 0.00000000, 0.00000000, 0.00000000, 0.00000000
1, 2.0100, 201, 0.42606291, -0.90905815, 0.33048734, -6.27447319, -6.02772141, -47.22065353, 0.00000000, 0.00000000, 0.00000000, 105.72163391, 20.81582451, 80.65194702, 1.00000000, 0.00000000, 0.00000000, 0.00000000, -0.07359546, 0.00830144, -0.07671823, 0.00000000, 0.00000000, 0.00000000, 0.00000000
1, 2.0200, 202, 0.40262806, -0.91012567, 0.35268134, 0.09374323, -7.85709095, -46.81269073, 0.00000000, 0.00000000, 0.00000000, 105.74226379, 21.28771973, 80.70686340, 1.00000000, 0.00000000, 0.00000000, 0.00000000, -0.04245836, 0.01218167, -0.09976037, 0.00000000, 0.00000000, 0.00000000, 0.00000000
1, 2.0300, 203, 0.42058676, -0.92667896, 0.35620019, -0.01261293, -16.65830231, -45.41022491, 0.00000000, 0.00000000, 0.00000000, 105.76381683, 21.78351021, 80.67808533, 1.00000000, 0.00000000, 0.00000000, 0.00000000, -0.05259870, 0.03174907, -0.10385270, 0.00000000, 0.00000000, 0.00000000, 0.00000000
1, 2.0400, 204, 0.46743095, -0.93758976, 0.31935701, 2.84111023, -23.48381615, -44.56316757, 0.00000000, 0.00000000, 0.00000000, 105.74967957, 22.27616882, 80.56479645, 1.00000000, 0.00000000, 0.00000000, 0.00000000, -0.09137443, 0.04580940, -0.06775533, 0.00000000, 0.00000000, 0.00000000, 0.00000000
1, 2.0500, 205, 0.38326159, -0.95389307, 0.27059075, 3.52902722, -29.56381035, -44.34577942, 0.00000000, 0.00000000, 0.00000000, 105.71675873, 22.78316689, 80.38689423, 1.00000000, 0.00000000, 0.00000000, 0.00000000, 0.00092349, 0.06521101, -0.02031121, 0.00000000, 0.00000000, 0.00000000, 0.00000000
1, 2.0600, 206, 0.36870053, -0.98590899, 0.26694506, 3.41159678, -35.24183655, -44.18379974, 0.00000000, 0.00000000, 0.00000000, 105.65737152, 23.30384636, 80.14806366, 1.00000000, 0.00000000, 0.00000000, 0.00000000, 0.02374282, 0.10038409, -0.01829435, 0.00000000, 0.00000000, 0.00000000, 0.00000000
1, 2.0700, 207, 0.42391980, -1.00344670, 0.24690759, 1.69971156, -38.08361053, -45.84127045, 0.00000000, 0.00000000, 0.00000000, 105.56814575, 23.84783173, 79.88249969, 1.00000000, 0.00000000, 0.00000000, 0.00000000, -0.02290600, 0.12113479, -0.00052107, 0.00000000, 0.00000000, 0.00000000, 0.00000000
1, 2.0800, 208, 0.31519923, -1.07752597, 0.22687663, 3.17805862, -43.52754211, -46.95598984, 0.00000000, 0.00000000, 0.00000000, 105.45335388, 24.37855148, 79.56190491, 1.00000000, 0.00000000, 0.00000000, 0.00000000, 0.09461724, 0.19856124, 0.01697714, 0.00000000, 0.00000000, 0.00000000, 0.00000000
1, 2.0900, 209, 0.36229289, -1.05421364, 0.27967986, -4.25395966, -41.66795731, -49.66046143, 0.00000000, 0.00000000, 0.00000000, 105.28678131, 24.96785545, 79.26462555, 1.00000000, 0.00000000, 0.00000000, 0.00000000, 0.05628913, 0.17843378, -0.03928494, 0.00000000, 0.00000000, 0.00000000, 0.00000000
1, 2.1000, 210, 0.32940081, -1.03644419, 0.29614288, -0.70814085, -39.09121323, -53.22581482, 0.00000000, 0.00000000, 0.00000000, 105.16756439, 25.58408546, 79.00205994, 1.00000000, 0.00000000, 0.00000000, 0.00000000, 0.09874373, 0.16440590, -0.05901010, 0.00000000, 0.00000000, 0.00000000, 0.00000000
1, 2.1100, 211, 0.34266335, -1.05851424, 0.31216025, -2.54637074, -41.01607132, -55.97337723, 0.00000000, 0.00000000, 0.00000000, 105.02053070, 26.23132706, 78.72385406, 1.00000000, 0.00000000, 0.00000000, 0.00000000, 0.09546895, 0.19055679, -0.07832419, 0.00000000, 0.00000000, 0.00000000, 0.00000000
1, 2.1200, 212, 0.35593009, -1.06221211, 0.34249535, -5.75085545, -40.85654068, -60.88452911, 0.00000000, 0.00000000, 0.00000000, 104.84407806, 26.92489243, 78.45789337, 1.00000000, 0.00000000, 0.00000000, 0.00000000, 0.09277757, 0.19864088, -0.11250806, 0.00000000, 0.00000000, 0.00000000, 0.00000000
1, 2.1300, 213, 0.31942055, -1.09050560, 0.33015683, -8.49538898, -42.80879211, -65.37124634, 0.00000000, 0.00000000, 0.00000000, 104.64109039, 27.61894226, 78.19308472, 1.00000000, 0.00000000, 0.00000000, 0.00000000, 0.14035913, 0.23161180, -0.10456495, 0.00000000, 0.00000000, 0.00000000, 0.00000000
1, 2.1400, 214, 0.33163160, -1.12314248, 0.32753602, -14.85799026, -45.23057938, -70.67665100, 0.00000000, 0.00000000, 0.00000000, 104.35368347, 28.41646385, 77.89752960, 1.00000000, 0.00000000, 0.00000000, 0.00000000, 0.13954735, 0.26908839, -0.10716156, 0.00000000, 0.00000000, 0.00000000, 0.00000000
1, 2.1500, 215, 0.29487973, -1.14855564, 0.31661770, -16.69110870, -47.58353424, -77.40163422, 0.00000000, 0.00000000, 0.00000000, 104.03716278, 29.28352737, 77.58753204, 1.00000000, 0.00000000, 0.00000000, 0.00000000, 0.18925448, 0.30014563, -0.10262070, 0.00000000, 0.00000000, 0.00000000, 0.00000000
1, 2.1600, 216, 0.31707311, -1.16295886, 0.32618728, -19.97029305, -52.54211044, -79.65985107, 0.00000000, 0.00000000, 0.00000000, 103.65496063, 30.18273544, 77.21961975, 1.00000000, 0.00000000, 0.00000000, 0.00000000, 0.18052253, 0.32061321, -0.11923296, 0.00000000, 0.00000000, 0.00000000, 0.00000000
1, 2.1700, 217, 0.37924668, -1.19641042, 0.34166318, -16.86648560, -52.36946487, -85.57551575, 0.00000000, 0.00000000, 0.00000000, 103.30259705, 31.13696861, 76.85939026, 1.00000000, 0.00000000, 0.00000000, 0.00000000, 0.13242391, 0.36074686, -0.14207485, 0.00000000, 0.00000000, 0.00000000, 0.00000000
1, 2.1800, 218, 0.37123397, -1.24157822, 0.27787483, -18.58880424, -58.78943253, -88.77997589, 0.00000000, 0.00000000, 0.00000000, 102.88491058, 32.10694885, 76.42715454, 1.00000000, 0.00000000, 0.00000000, 0.00000000, 0.15497892, 0.41320336, -0.08586101, 0.00000000, 0.00000000, 0.00000000, 0.00000000
1, 2.1900, 219, 0.38256767, -1.28276336, 0.32527241, -18.78211784, -66.69918060, -91.56573486, 0.00000000, 0.00000000, 0.00000000, 102.40878296, 33.14643097, 75.89250183, 1.00000000, 0.00000000, 0.00000000, 0.00000000, 0.15845490, 0.46200570, -0.14191064, 0.00000000, 0.00000000, 0.00000000, 0.00000000
1, 2.2000, 220, 0.22519086, -1.35225618, 0.29570863, -16.15499496, -75.96543884, -93.03705597, 0.00000000, 0.00000000, 0.00000000, 101.88249207, 34.21575165, 75.23519135, 1.00000000, 0.00000000, 0.00000000, 0.00000000, 0.33130687, 0.53984189, -0.12175073, 0.00000000, 0.00000000, 0.00000000, 0.00000000
1, 2.2100, 221, 0.22935739, -1.47887075, 0.41198257, -19.02636719, -82.39170074, -94.12763214, 0.00000000, 0.00000000, 0.00000000, 101.26328278, 35.30329132, 74.48275757, 1.00000000, 0.00000000, 0.00000000, 0.00000000, 0.34268093, 0.67514408, -0.24839479, 0.00000000, 0.00000000, 0.00000000, 0.00000000
1, 2.2200, 222, 0.14363192, -1.54160714, 0.50550145, -24.76470947, -81.54315948, -98.61467743, 0.00000000, 0.00000000, 0.00000000, 100.57174683, 36.42604065, 73.72523499, 1.00000000, 0.00000000, 0.00000000, 0.00000000, 0.44417530, 0.74705839, -0.35339320, 0.00000000, 0.00000000, 0.00000000, 0.00000000
1, 2.2300, 223, 0.16282243, -1.57730937, 0.53544343, -22.58620453, -101.34585571, -101.37717438, 0.00000000, 0.00000000, 0.00000000, 99.73857880, 37.57472610, 72.71138763, 1.00000000, 0.00000000, 0.00000000, 0.00000000, 0.44109213, 0.79253161, -0.39627117, 0.00000000, 0.00000000, 0.00000000, 0.00000000
1, 2.2400, 224, 0.08680522, -1.67632556, 0.54165334, -13.68718624, -133.63928223, -101.32434082, 0.00000000, 0.00000000, 0.00000000, 98.69123077, 38.78884506, 71.23950958, 1.00000000, 0.00000000, 0.00000000, 0.00000000, 0.53338838, 0.90180254, -0.41746986, 0.00000000, 0.00000000, 0.00000000, 0.00000000
1, 2.2500, 225, -0.02748219, -1.79302967, 0.50958735, -8.30813408, -170.17121887, -101.43588257, 0.00000000, 0.00000000, 0.00000000, 97.33909607, 40.03055191, 69.24147797, 1.00000000, 0.00000000, 0.00000000, 0.00000000, 0.66439831, 1.02939987, -0.40402567, 0.00000000, 0.00000000, 0.00000000, 0.00000000
1, 2.2600, 226, -0.25562245, -1.80924475, 0.52462155, -10.43685627, -198.55021667, -104.14178467, 0.00000000, 0.00000000, 0.00000000, 95.64103699, 41.29017258, 66.79626465, 1.00000000, 0.00000000, 0.00000000, 0.00000000, 0.90924668, 1.05706549, -0.44142005, 0.00000000, 0.00000000, 0.00000000, 0.00000000
1, 2.2700, 227, -0.29614577, -1.74477768, 0.45422971, -12.84620857, -220.31665039, -107.83374023, 0.00000000, 0.00000000, 0.00000000, 93.61849213, 42.54284668, 63.96186829, 1.00000000, 0.00000000, 0.00000000, 0.00000000, 0.96624613, 1.00475419, -0.39732236, 0.00000000, 0.00000000, 0.00000000, 0.00000000
1, 2.2800, 228, -0.09849415, -1.74201107, 0.38499054, -8.97509766, -233.77128601, -110.97959900, 0.00000000, 0.00000000, 0.00000000, 91.39395142, 43.72902298, 60.83870316, 1.00000000, 0.00000000, 0.00000000, 0.00000000, 0.78424537, 1.01479948, -0.35649902, 0.00000000, 0.00000000, 0.00000000, 0.00000000
1, 2.2900, 229, 0.10247396, -1.80624616, 0.34005705, -16.71099281, -224.49331665, -122.95497131, 0.00000000, 0.00000000, 0.00000000, 89.03737640, 44.96762466, 57.70588303, 1.00000000, 0.00000000, 0.00000000, 0.00000000, 0.59838820, 1.09302330, -0.34098938, 0.00000000, 0.00000000, 0.00000000, 0.00000000
1, 2.3000, 230, 0.19774291, -1.83031213, 0.44133940, -35.09720230, -200.07084656, -135.42637634, 0.00000000, 0.00000000, 0.00000000, 86.59221649, 46.24586868, 54.77486420, 1.00000000, 0.00000000, 0.00000000, 0.00000000, 0.51875037, 1.13344419, -0.47138545, 0.00000000, 0.00000000, 0.00000000, 0.00000000
1, 2.3100, 231, 0.13864572, -1.71389341, 0.63863927, -60.67479324, -172.00820923, -141.02966309, 0.00000000, 0.00000000, 0.00000000, 84.03314209, 47.51247787, 52.09893799, 1.00000000, 0.00000000, 0.00000000, 0.00000000, 0.59314609, 1.03505540, -0.69822204, 0.00000000, 0.00000000, 0.00000000, 0.00000000
1, 2.3200, 232, 0.20286083, -1.40485799, 0.88174152, -100.63043213, -114.98191833, -140.74325562, 0.00000000, 0.00000000, 0.00000000, 81.55780792, 48.76585007, 50.12567520, 1.00000000, 0.00000000, 0.00000000, 0.00000000, 0.54370326, 0.74532896, -0.96869946, 0.00000000, 0.00000000, 0.00000000, 0.00000000
1, 2.3300, 233, 0.11219370, -1.19443083, 0.58402812, -96.72101593, -106.46365356, -135.49343872, 0.00000000, 0.00000000, 0.00000000, 79.16658783, 49.87874603, 48.22515869, 1.00000000, 0.00000000, 0.00000000, 0.00000000, 0.64815986, 0.55477011, -0.69633150, 0.00000000, 0.00000000, 0.00000000, 0.00000000
1, 2.3400, 234, 0.12280317, -1.13171983, 0.41547963, -80.58956909, -115.82745361, -119.36958313, 0.00000000, 0.00000000, 0.00000000, 76.69306183, 50.80408096, 46.05963135, 1.00000000, 0.00000000, 0.00000000, 0.00000000, 0.64852422, 0.51010489, -0.55175161, 0.00000000, 0.00000000, 0.00000000, 0.00000000
1, 2.3500, 235, 0.25196022, -0.90127969, 0.31192440, -96.63406372, -114.37844849, -103.70435333, 0.00000000, 0.00000000, 0.00000000, 74.02674866, 51.51888657, 43.87752533, 1.00000000, 0.00000000, 0.00000000, 0.00000000, 0.52808642, 0.29682806, -0.47343886, 0.00000000, 0.00000000, 0.00000000, 0.00000000
1, 2.3600, 236, 0.34234369, -0.58792394, 0.13814603, -87.31806946, -107.15810394, -90.99387360, 0.00000000, 0.00000000, 0.00000000, 71.51018524, 52.06998444, 41.78674316, 1.00000000, 0.00000000, 0.00000000, 0.00000000, 0.44440454, -0.00050394, -0.32447344, 0.00000000, 0.00000000, 0.00000000, 0.00000000
1, 2.3700, 237, 0.65181011, -0.48990211, 0.14591308, -41.83529282, -128.10681152, -70.74605560, 0.00000000, 0.00000000, 0.00000000, 69.23036194, 52.30538559, 39.43071365, 1.00000000, 0.00000000, 0.00000000, 0.00000000, 0.13858072, -0.08596344, -0.35475373, 0.00000000, 0.00000000, 0.00000000, 0.00000000
1, 2.3800, 238, 0.29288760, -0.56513393, 0.43651417, -21.28843689, -86.75489044, -70.98251343, 0.00000000, 0.00000000, 0.00000000, 67.80628967, 52.60832977, 37.83683777, 1.00000000, 0.00000000, 0.00000000, 0.00000000, 0.50055265, 0.00001852, -0.66252333, 0.00000000, 0.00000000, 0.00000000, 0.00000000
1, 2.3900, 239, 0.06978136, -0.58683026, 0.22442327, 3.58194184, -65.11851501, -48.47541809, 0.00000000, 0.00000000, 0.00000000, 66.80752563, 52.80437088, 36.53662872, 1.00000000, 0.00000000, 0.00000000, 0.00000000, 0.72622049, 0.02898207, -0.45932275, 0.00000000, 0.00000000, 0.00000000, 0.00000000
1, 2.4000, 240, -0.08732025, -0.44364321, 0.08635043, -16.71816254, -57.26943588, -14.06356239, 0.00000000, 0.00000000, 0.00000000, 65.87605286, 52.70342255, 35.57677841, 1.00000000, 0.00000000, 0.00000000, 0.00000000, 0.88344181, -0.11010176, -0.33037737, 0.00000000, 0.00000000, 0.00000000, 0.00000000
1, 2.4100, 241, -0.12455022, -0.33697861, 0.03794360, -3.61869860, -50.38904190, 8.01115036, 0.00000000, 0.00000000, 0.00000000, 65.28378296, 52.42206955, 34.87663269, 1.00000000, 0.00000000, 0.00000000, 0.00000000, 0.91827935, -0.21636951, -0.29052114, 0.00000000, 0.00000000, 0.00000000, 0.00000000
1, 2.4200, 242, -0.07325409, -0.31739640, -0.04119642, -0.40171623, -20.09359169, 25.44311333, 0.00000000, 0.00000000, 0.00000000, 65.18150330, 52.10687256, 34.75260925, 1.00000000, 0.00000000, 0.00000000, 0.00000000, 0.86366993, -0.23860249, -0.21591382, 0.00000000, 0.00000000, 0.00000000, 0.00000000
1, 2.4300, 243, -0.02308140, -0.24818490, -0.07066804, -3.41470575, 19.41705132, 44.58240128, 0.00000000, 0.00000000, 0.00000000, 65.62376404, 51.73024750, 35.36235809, 1.00000000, 0.00000000, 0.00000000, 0.00000000, 0.80994701, -0.31295171, -0.18616253, 0.00000000, 0.00000000, 0.00000000, 0.00000000
1, 2.4400, 244, -0.02628203, -0.18903461, -0.03906929, 10.28425980, 51.70562363, 64.55193329, 0.00000000, 0.00000000, 0.00000000, 66.65070343, 51.34918976, 36.54261017, 1.00000000, 0.00000000, 0.00000000, 0.00000000, 0.80886984, -0.38064674, -0.21193792, 0.00000000, 0.00000000, 0.00000000, 0.00000000
1, 2.4500, 245, 0.00180777, -0.19329385, -0.01655238, 25.28397560, 75.15324402, 82.87889862, 0.00000000, 0.00000000, 0.00000000, 68.15865326, 50.87279510, 38.15509415, 1.00000000, 0.00000000, 0.00000000, 0.00000000, 0.77599716, -0.38762078, -0.22330014, 0.00000000, 0.00000000, 0.00000000, 0.00000000
1, 2.4600, 246, 0.10052530, -0.18387558, -0.01817910, 31.74795914, 92.89733124, 100.29813385, 0.00000000, 0.00000000, 0.00000000, 69.96728516, 50.26791000, 40.08550262, 1.00000000, 0.00000000, 0.00000000, 0.00000000, 0.67116404, -0.41092259, -0.20691812, 0.00000000, 0.00000000, 0.00000000, 0.00000000
1, 2.4700, 247, 0.18391225, -0.18051033, -0.01391419, 40.55499649, 106.01651764, 117.80916595, 0.00000000, 0.00000000, 0.00000000, 72.01820374, 49.49937439, 42.23674774, 1.00000000, 0.00000000, 0.00000000, 0.00000000, 0.57989824, -0.43057477, -0.19371697, 0.00000000, 0.00000000, 0.00000000, 0.00000000
1, 2.4800, 248, 0.16948698, -0.23098662, 0.01266251, 53.77522278, 113.30377960, 136.12486267, 0.00000000, 0.00000000, 0.00000000, 74.28101349, 48.50917053, 44.51282883, 1.00000000, 0.00000000, 0.00000000, 0.00000000, 0.58416426, -0.39886439, -0.20032524, 0.00000000, 0.00000000, 0.00000000, 0.00000000
1, 2.4900, 249, 0.09209630, -0.35315016, 0.02076866, 62.72951889, 117.75147247, 157.59167480, 0.00000000, 0.00000000, 0.00000000, 76.60810089, 47.27959824, 46.80316544, 1.00000000, 0.00000000, 0.00000000, 0.00000000, 0.64822906, -0.29832652, -0.18630010, 0.00000000, 0.00000000, 0.00000000, 0.00000000
1, 2.5000, 250, 0.06322518, -0.45927486, 0.01977311, 62.77229309, 116.84431458, 175.79707336, 0.00000000, 0.00000000, 0.00000000, 78.83575439, 45.81005478, 49.00647736, 1.00000000, 0.00000000, 0.00000000, 0.00000000, 0.66066277, -0.21552178, -0.16304532, 0.00000000, 0.00000000, 0.00000000, 0.00000000
1, 2.5100, 251, 0.08360448, -0.54951555, -0.00110625, 64.49721527, 120.80908966, 190.22450256, 0.00000000, 0.00000000, 0.00000000, 81.00242615, 44.14846039, 51.15864944, 1.00000000, 0.00000000, 0.00000000, 0.00000000, 0.62082672, -0.14980987, -0.11971252, 0.00000000, 0.00000000, 0.00000000, 0.00000000
1, 2.5200, 252, 0.18270671, -0.61118436, -0.04819979, 69.79336548, 124.73386383, 201.07293701, 0.00000000, 0.00000000, 0.00000000, 83.12348175, 42.32904816, 53.23555756, 1.00000000, 0.00000000, 0.00000000, 0.00000000, 0.49953786, -0.11331737, -0.04928108, 0.00000000, 0.00000000, 0.00000000, 0.00000000
1, 2.5300, 253, 0.26224089, -0.64346600, -0.04258308, 72.00912476, 131.01339722, 208.15449524, 0.00000000, 0.00000000, 0.00000000, 85.17985535, 40.37537003, 55.25937271, 1.00000000, 0.00000000, 0.00000000, 0.00000000, 0.39540023, -0.10619515, -0.03067873, 0.00000000, 0.00000000, 0.00000000, 0.00000000
1, 2.5400, 254, 0.36681244, -0.66789412, -0.01247655, 75.81908417, 135.62553406, 216.35183716, 0.00000000, 0.00000000, 0.00000000, 87.16614532, 38.30708313, 57.19577789, 1.00000000, 0.00000000, 0.00000000, 0.00000000, 0.26375997, -0.10662948, -0.03581418, 0.00000000, 0.00000000, 0.00000000, 0.00000000
1, 2.5500, 255, 0.47356969, -0.72187281, 0.04349241, 79.39069366, 131.02561951, 226.15840149, 0.00000000, 0.00000000, 0.00000000, 89.01200867, 36.09045029, 58.93430710, 1.00000000, 0.00000000, 0.00000000, 0.00000000, 0.12727767, -0.07704905, -0.06666313, 0.00000000, 0.00000000, 0.00000000, 0.00000000
1, 2.5600, 256, 0.57769597, -0.82264733, 0.10077079, 82.07823944, 118.45959473, 236.61686707, 0.00000000, 0.00000000, 0.00000000, 90.66504669, 33.72774506, 60.38676071, 1.00000000, 0.00000000, 0.00000000, 0.00000000, -0.00954187, -0.00016639, -0.09982436, 0.00000000, 0.00000000, 0.00000000, 0.00000000
1, 2.5700, 257, 0.61231881, -0.92813438, 0.12350740, 84.06466675, 100.60517120, 246.35658264, 0.00000000, 0.00000000, 0.00000000, 92.10884094, 31.24067497, 61.50822449, 1.00000000, 0.00000000, 0.00000000, 0.00000000, -0.07975154, 0.08217810, -0.10012502, 0.00000000, 0.00000000, 0.00000000, 0.00000000
1, 2.5800, 258, 0.57601941, -0.99556804, 0.15938216, 84.48336792, 94.19422913, 253.66055298, 0.00000000, 0.00000000, 0.00000000, 93.43203735, 28.66140938, 62.45552444, 1.00000000, 0.00000000, 0.00000000, 0.00000000, -0.08158597, 0.12760830, -0.11476269, 0.00000000, 0.00000000, 0.00000000, 0.00000000
1, 2.5900, 259, 0.53788096, -1.05694234, 0.18192199, 86.61180878, 100.80317688, 258.29718018, 0.00000000, 0.00000000, 0.00000000, 94.72292328, 26.01321983, 63.38068008, 1.00000000, 0.00000000, 0.00000000, 0.00000000, -0.08375664, 0.16855335, -0.11606669, 0.00000000, 0.00000000, 0.00000000, 0.00000000
1, 2.6000, 260, 0.51960552, -1.13824129, 0.22953609, 88.86235809, 118.00880432, 259.52243042, 0.00000000, 0.00000000, 0.00000000, 96.03873444, 23.31847954, 64.40560150, 1.00000000, 0.00000000, 0.00000000, 0.00000000, -0.10761540, 0.23143052, -0.14149901, 0.00000000, 0.00000000, 0.00000000, 0.00000000
1, 2.6100, 261, 0.51626021, -1.22225511, 0.29186934, 89.59696198, 143.37115479, 258.62246704, 0.00000000, 0.00000000, 0.00000000, 97.38613892, 20.58210373, 65.61477661, 1.00000000, 0.00000000, 0.00000000, 0.00000000, -0.14797720, 0.29935235, -0.18050787, 0.00000000, 0.00000000, 0.00000000, 0.00000000
1, 2.6200, 262, 0.57646132, -1.32359469, 0.33993962, 91.30230713, 162.10443115, 257.82504272, 0.00000000, 0.00000000, 0.00000000, 98.73184967, 17.80186272, 66.93137360, 1.00000000, 0.00000000, 0.00000000, 0.00000000, -0.25344390, 0.38707101, -0.20443949, 0.00000000, 0.00000000, 0.00000000, 0.00000000
1, 2.6300, 263, 0.66214830, -1.42203057, 0.37296432, 90.12346649, 168.91394043, 256.86981201, 0.00000000, 0.00000000, 0.00000000, 100.00336456, 14.99871826, 68.23176575, 1.00000000, 0.00000000, 0.00000000, 0.00000000, -0.38570634, 0.47439209, -0.21378189, 0.00000000, 0.00000000, 0.00000000, 0.00000000
1, 2.6400, 264, 0.76874483, -1.47740543, 0.37562624, 86.60385132, 166.08135986, 256.28445435, 0.00000000, 0.00000000, 0.00000000, 101.15077209, 12.17455959, 69.42709351, 1.00000000, 0.00000000, 0.00000000, 0.00000000, -0.53984660, 0.52109325, -0.19436967, 0.00000000, 0.00000000, 0.00000000, 0.00000000
1, 2.6500, 265, 0.84342891, -1.48039579, 0.38061628, 84.83703613, 148.80056763, 255.27990723, 0.00000000, 0.00000000, 0.00000000, 102.17950439, 9.37397003, 70.38509369, 1.00000000, 0.00000000, 0.00000000, 0.00000000, -0.66258705, 0.51778185, -0.17946558, 0.00000000, 0.00000000, 0.00000000, 0.00000000
1, 2.6600, 266, 0.94837624, -1.46791101, 0.35649759, 85.13961792, 124.61017609, 253.87107849, 0.00000000, 0.00000000, 0.00000000, 103.12455750, 6.62425327, 71.05139923, 1.00000000, 0.00000000, 0.00000000, 0.00000000, -0.81525868, 0.50144494, -0.13735458, 0.00000000, 0.00000000, 0.00000000, 0.00000000
1, 2.6700, 267, 1.04150879, -1.43621647, 0.33341515, 87.04347229, 103.69081879, 250.01383972, 0.00000000, 0.00000000, 0.00000000, 104.03465271, 3.95078945, 71.47426605, 1.00000000, 0.00000000, 0.00000000, 0.00000000, -0.95527971, 0.46835425, -0.09757847, 0.00000000, 0.00000000, 0.00000000, 0.00000000
1, 2.6800, 268, 1.06650460, -1.39015067, 0.29706755, 91.24630737, 89.22937775, 244.19218445, 0.00000000, 0.00000000, 0.00000000, 104.95758057, 1.38521886, 71.72270966, 1.00000000, 0.00000000, 0.00000000, 0.00000000, -1.02582741, 0.42336649, -0.04507857, 0.00000000, 0.00000000, 0.00000000, 0.00000000
1, 2.6900, 269, 0.98816293, -1.30342412, 0.23509158, 96.11308289, 74.84308624, 238.80073547, 0.00000000, 0.00000000, 0.00000000, 105.91938019, -1.11567473, 71.80857849, 1.00000000, 0.00000000, 0.00000000, 0.00000000, -0.99135935, 0.34014952, 0.03309118, 0.00000000, 0.00000000, 0.00000000, 0.00000000
1, 2.7000, 270, 1.03880394, -1.35242379, 0.20110491, 107.12558746, 66.32916260, 231.37342834, 0.00000000, 0.00000000, 0.00000000, 106.99170685, -3.52239442, 71.79003906, 1.00000000, 0.00000000, 0.00000000, 0.00000000, -1.08468652, 0.39506555, 0.08384292, 0.00000000, 0.00000000, 0.00000000, 0.00000000
1, 2.7100, 271, 1.13098431, -1.50547230, 0.24032509, 114.79110718, 56.51723480, 221.67938232, 0.00000000, 0.00000000, 0.00000000, 108.15077209, -5.80612707, 71.65933990, 1.00000000, 0.00000000, 0.00000000, 0.00000000, -1.21742678, 0.55653262, 0.06280357, 0.00000000, 0.00000000, 0.00000000, 0.00000000
1, 2.7200, 272, 1.00264204, -1.47565997, 0.20440868, 103.51043701, 39.98626709, 210.14312744, 0.00000000, 0.00000000, 0.00000000, 109.22174072, -7.92468691, 71.36242676, 1.00000000, 0.00000000, 0.00000000, 0.00000000, -1.12702107, 0.53661227, 0.11588664, 0.00000000, 0.00000000, 0.00000000, 0.00000000
1, 2.7300, 273, 0.94023174, -1.34410906, 0.12894692, 88.06417084, 34.16808319, 190.64701843, 0.00000000, 0.00000000, 0.00000000, 110.14099884, -9.79706669, 71.03221893, 1.00000000, 0.00000000, 0.00000000, 0.00000000, -1.09890306, 0.41524822, 0.20563067, 0.00000000, 0.00000000, 0.00000000, 0.00000000
1, 2.7400, 274, 1.01175725, -1.17397070, 0.03574024, 73.03155518, 24.71361542, 157.78614807, 0.00000000, 0.00000000, 0.00000000, 110.93167114, -11.36125565, 70.70459747, 1.00000000, 0.00000000, 0.00000000, 0.00000000, -1.19915867, 0.25480190, 0.31058356, 0.00000000, 0.00000000, 0.00000000, 0.00000000
1, 2.7500, 275, 1.07790601, -1.07040048, -0.05124770, 60.69936371, 14.73047161, 121.52614594, 0.00000000, 0.00000000, 0.00000000, 111.60290527, -12.54723644, 70.39453888, 1.00000000, 0.00000000, 0.00000000, 0.00000000, -1.28808200, 0.15990661, 0.40731841, 0.00000000, 0.00000000, 0.00000000, 0.00000000
1, 2.7600, 276, 1.15297711, -1.05053139, -0.04852438, 49.05384827, 24.31449699, 82.12859344, 0.00000000, 0.00000000, 0.00000000, 112.11156464, -13.40019512, 70.31235504, 1.00000000, 0.00000000, 0.00000000, 0.00000000, -1.37966657, 0.14710055, 0.41239703, 0.00000000, 0.00000000, 0.00000000, 0.00000000
1, 2.7700, 277, 1.24390197, -0.96098894, -0.05342872, 31.05112648, 38.59326935, 45.24408340, 0.00000000, 0.00000000, 0.00000000, 112.37656403, -13.96517754, 70.50373077, 1.00000000, 0.00000000, 0.00000000, 0.00000000, -1.48205578, 0.06237291, 0.42189032, 0.00000000, 0.00000000, 0.00000000, 0.00000000
1, 2.7800, 278, 1.31013227, -0.85999739, -0.09251701, 18.45242500, 32.11997223, 8.83623219, 0.00000000, 0.00000000, 0.00000000, 112.46315765, -14.06325150, 70.76060486, 1.00000000, 0.00000000, 0.00000000, 0.00000000, -1.55371642, -0.03639127, 0.46285960, 0.00000000, 0.00000000, 0.00000000, 0.00000000
1, 2.7900, 279, 1.34364533, -0.89003438, -0.11968816, 9.13214779, 7.28655243, -28.31817436, 0.00000000, 0.00000000, 0.00000000, 112.51068878, -13.82948112, 70.94167328, 1.00000000, 0.00000000, 0.00000000, 0.00000000, -1.58476472, -0.00658460, 0.49108249, 0.00000000, 0.00000000, 0.00000000, 0.00000000
1, 2.8000, 280, 1.23298204, -0.96293980, -0.11766219, -5.90375948, -16.11150360, -64.56324768, 0.00000000, 0.00000000, 0.00000000, 112.42803192, -13.17130947, 71.04244232, 1.00000000, 0.00000000, 0.00000000, 0.00000000, -1.46554685, 0.06420906, 0.48939389, 0.00000000, 0.00000000, 0.00000000, 0.00000000
1, 2.8100, 281, 0.95155364, -1.08585608, -0.01832565, -20.21374702, -28.24148750, -99.40690613, 0.00000000, 0.00000000, 0.00000000, 112.19987488, -12.14443302, 71.16149902, 1.00000000, 0.00000000, 0.00000000, 0.00000000, -1.16897583, 0.18274297, 0.38857597, 0.00000000, 0.00000000, 0.00000000, 0.00000000
1, 2.8200, 282, 0.86686397, -1.03953564, 0.03761544, -54.08059692, -27.21258926, -136.00846863, 0.00000000, 0.00000000, 0.00000000, 111.60755920, -10.78096581, 71.42187500, 1.00000000, 0.00000000, 0.00000000, 0.00000000, -1.06308687, 0.12946953, 0.32737765, 0.00000000, 0.00000000, 0.00000000, 0.00000000
1, 2.8300, 283, -0.44256929, -0.98226064, 1.41947269, -54.25698853, 55.34798050, -169.20884705, 0.00000000, 0.00000000, 0.00000000, 110.87629700, -9.40893841, 72.56792450, 1.00000000, 0.00000000, 0.00000000, 0.00000000, 0.27102101, 0.06339571, -1.06422043, 0.00000000, 0.00000000, 0.00000000, 0.00000000
1, 2.8400, 284, -2.38059354, -1.79295623, 0.78209436, 4.38214350, 140.76181030, -112.83479309, 0.00000000, 0.00000000, 0.00000000, 110.64467621, -8.85156918, 74.30572510, 1.00000000, 0.00000000, 0.00000000, 0.00000000, 2.22392154, 0.86892486, -0.43336242, 0.00000000, 0.00000000, 0.00000000, 0.00000000
1, 2.8500, 285, -1.29782665, -1.75400305, 0.05794111, -43.76251984, -30.03002739, -66.08386230, 0.00000000, 0.00000000, 0.00000000, 110.21401978, -8.12769794, 74.25508118, 1.00000000, 0.00000000, 0.00000000, 0.00000000, 1.15085781, 0.82722741, 0.28769371, 0.00000000, 0.00000000, 0.00000000, 0.00000000
1, 2.8600, 286, 0.27184081, -1.30097985, -0.18212217, -62.72138214, -17.82465744, -103.36610413, 0.00000000, 0.00000000, 0.00000000, 109.56326294, -7.09433651, 74.43991089, 1.00000000, 0.00000000, 0.00000000, 0.00000000, -0.40221196, 0.36798963, 0.51752955, 0.00000000, 0.00000000, 0.00000000, 0.00000000
1, 2.8700, 287, 1.20498967, -1.21924496, -0.24074619, -44.03571320, 20.91282272, -129.89431763, 0.00000000, 0.00000000, 0.00000000, 109.05142212, -5.93757010, 75.07088470, 1.00000000, 0.00000000, 0.00000000, 0.00000000, -1.31622398, 0.28105032, 0.56843197, 0.00000000, 0.00000000, 0.00000000, 0.00000000
1, 2.8800, 288, 0.58758920, -1.34755099, 0.14427266, -26.79061127, 29.90803337, -146.39605713, 0.00000000, 0.00000000, 0.00000000, 108.69064331, -4.62857008, 75.82859039, 1.00000000, 0.00000000, 0.00000000, 0.00000000, -0.67697495, 0.40469381, 0.17664331, 0.00000000, 0.00000000, 0.00000000, 0.00000000
1, 2.8900, 289, -0.09671167, -1.39221084, -0.15838353, -15.67068768, 12.54328442, -136.72735596, 0.00000000, 0.00000000, 0.00000000, 108.49465179, -3.37294078, 76.38529968, 1.00000000, 0.00000000, 0.00000000, 0.00000000, 0.02981380, 0.44652513, 0.47644839, 0.00000000, 0.00000000, 0.00000000, 0.00000000
1, 2.9000, 290, -0.00524890, -0.94613349, -0.10724399, -36.28016281, 15.42361164, -125.08420563, 0.00000000, 0.00000000, 0.00000000, 108.10642242, -2.23346424, 76.92510986, 1.00000000, 0.00000000, 0.00000000, 0.00000000, -0.04087409, -0.00255968, 0.42000693, 0.00000000, 0.00000000, 0.00000000, 0.00000000
1, 2.9100, 291, 0.27354887, -0.64253294, 0.47669819, -34.17256546, 74.92070770, -119.45631409, 0.00000000, 0.00000000, 0.00000000, 107.73200989, -1.32721806, 78.00620270, 1.00000000, 0.00000000, 0.00000000, 0.00000000, -0.30234355, -0.30877677, -0.16984507, 0.00000000, 0.00000000, 0.00000000, 0.00000000
1, 2.9200, 292, 0.34002155, -0.55077261, 0.69314343, -25.32726097, 106.08199310, -110.01013947, 0.00000000, 0.00000000, 0.00000000, 107.45642090, -0.59857297, 79.34980774, 1.00000000, 0.00000000, 0.00000000, 0.00000000, -0.35506403, -0.40266383, -0.39194709, 0.00000000, 0.00000000, 0.00000000, 0.00000000
1, 2.9300, 293, 0.46763271, -0.82182956, 0.53176868, 16.40781403, 88.92956543, -101.39614105, 0.00000000, 0.00000000, 0.00000000, 107.63182068, 0.15509163, 80.49170685, 1.00000000, 0.00000000, 0.00000000, 0.00000000, -0.47030744, -0.13168760, -0.23046748, 0.00000000, 0.00000000, 0.00000000, 0.00000000
1, 2.9400, 294, 0.56651932, -1.09936500, 0.45308748, 12.25757504, 56.57218552, -104.45668793, 0.00000000, 0.00000000, 0.00000000, 107.76242828, 0.97795516, 81.34858704, 1.00000000, 0.00000000, 0.00000000, 0.00000000, -0.55503964, 0.14696568, -0.14847840, 0.00000000, 0.00000000, 0.00000000, 0.00000000
1, 2.9500, 295, 0.51788884, -1.04423869, 0.49898773, -13.77061653, 37.44440079, -106.77848816, 0.00000000, 0.00000000, 0.00000000, 107.64148712, 1.88117266, 82.03031921, 1.00000000, 0.00000000, 0.00000000, 0.00000000, -0.49098593, 0.09190997, -0.19513512, 0.00000000, 0.00000000, 0.00000000, 0.00000000
1, 2.9600, 296, 0.52318031, -0.90526146, 0.55711144, -7.42352247, 12.88270092, -97.81869507, 0.00000000, 0.00000000, 0.00000000, 107.58382416, 2.77459240, 82.44922638, 1.00000000, 0.00000000, 0.00000000, 0.00000000, -0.48059839, -0.04709354, -0.25513834, 0.00000000, 0.00000000, 0.00000000, 0.00000000
1, 2.9700, 297, 0.68165153, -0.86126232, 0.45626310, -3.85602903, -36.46450806, -82.95738220, 0.00000000, 0.00000000, 0.00000000, 107.53903961, 3.67550540, 82.35184479, 1.00000000, 0.00000000, 0.00000000, 0.00000000, -0.62343812, -0.09048042, -0.15497014, 0.00000000, 0.00000000, 0.00000000, 0.00000000
1, 2.9800, 298, 0.69485050, -0.82872415, 0.34273776, -0.15824142, -91.58642578, -64.89340210, 0.00000000, 0.00000000, 0.00000000, 107.48341370, 4.63462973, 81.65857697, 1.00000000, 0.00000000, 0.00000000, 0.00000000, -0.62072659, -0.12242751, -0.04308221, 0.00000000, 0.00000000, 0.00000000, 0.00000000
1, 2.9900, 299, 0.39486408, -1.02232373, 0.09524029, 15.80563354, -131.09793091, -48.93041992, 0.00000000, 0.00000000, 0.00000000, 107.54337311, 5.49596548, 80.55139160, 1.00000000, 0.00000000, 0.00000000, 0.00000000, -0.30460444, 0.07266837, 0.20474434, 0.00000000, 0.00000000, 0.00000000, 0.00000000
1, 3.0000, 300, -0.00213064, -1.14102983, -0.01544471, 9.11197758, -120.58549500, -48.39206314, 0.00000000, 0.00000000, 0.00000000, 107.53091431, 6.32059526, 79.54193115, 1.00000000, 0.00000000, 0.00000000, 0.00000000, 0.10690022, 0.19270691, 0.31492928, 0.00000000, 0.00000000, 0.00000000, 0.00000000
1, 3.0100, 301, -0.33272114, -1.18134403, 0.07690605, 10.49949360, -72.76974487, -55.94743729, 0.00000000, 0.00000000, 0.00000000, 107.57481384, 7.07353401, 79.01342010, 1.00000000, 0.00000000, 0.00000000, 0.00000000, 0.45110720, 0.23469725, 0.22281298, 0.00000000, 0.00000000, 0.00000000, 0.00000000
1, 3.0200, 302, -0.30608845, -1.04983222, 0.19235158, -0.71164471, -16.22224045, -65.76554108, 0.00000000, 0.00000000, 0.00000000, 107.57388306, 7.74949360, 79.05767822, 1.00000000, 0.00000000, 0.00000000, 0.00000000, 0.43662167, 0.10461569, 0.10684083, 0.00000000, 0.00000000, 0.00000000, 0.00000000
1, 3.0300, 303, -0.02940002, -0.99518836, 0.35470614, -0.55366343, 36.96356201, -71.86012268, 0.00000000, 0.00000000, 0.00000000, 107.66312408, 8.30284977, 79.63884735, 1.00000000, 0.00000000, 0.00000000, 0.00000000, 0.17057317, 0.05169809, -0.05489054, 0.00000000, 0.00000000, 0.00000000, 0.00000000
1, 3.0400, 304, 0.17846632, -0.89312226, 0.29182446, -15.06006908, 79.57554626, -69.97276306, 0.00000000, 0.00000000, 0.00000000, 107.65802002, 8.72813225, 80.62024689, 1.00000000, 0.00000000, 0.00000000, 0.00000000, -0.02936254, -0.04908086, 0.00820440, 0.00000000, 0.00000000, 0.00000000, 0.00000000
1, 3.0500, 305, 0.47052720, -0.84190619, 0.36866543, -14.37680340, 71.90648651, -63.85934067, 0.00000000, 0.00000000, 0.00000000, 107.65210724, 9.11855698, 81.50988007, 1.00000000, 0.00000000, 0.00000000, 0.00000000, -0.31459153, -0.09933484, -0.06908953, 0.00000000, 0.00000000, 0.00000000, 0.00000000
1, 3.0600, 306, 0.65858704, -0.85715353, 0.48635101, -11.30879021, 36.81498337, -55.61351776, 0.00000000, 0.00000000, 0.00000000, 107.62403107, 9.53697300, 82.03616333, 1.00000000, 0.00000000, 0.00000000, 0.00000000, -0.49563017, -0.08310714, -0.18743536, 0.00000000, 0.00000000, 0.00000000, 0.00000000
1, 3.0700, 307, 0.53767127, -0.81345367, 0.49387932, -4.87837076, -17.63288879, -43.66473389, 0.00000000, 0.00000000, 0.00000000, 107.56851196, 10.00644398, 81.99949646, 1.00000000, 0.00000000, 0.00000000, 0.00000000, -0.36706072, -0.12579462, -0.19605540, 0.00000000, 0.00000000, 0.00000000, 0.00000000
1, 3.0800, 308, 0.42709097, -0.84857923, 0.37692517, 5.87962008, -54.79421997, -36.46490479, 0.00000000, 0.00000000, 0.00000000, 107.57301331, 10.55932713, 81.57564545, 1.00000000, 0.00000000, 0.00000000, 0.00000000, -0.24768212, -0.08937407, -0.08019555, 0.00000000, 0.00000000, 0.00000000, 0.00000000
1, 3.0900, 309, 0.13331676, -0.95387441, 0.27367398, 9.08076859, -54.83027267, -36.03202820, 0.00000000, 0.00000000, 0.00000000, 107.58485413, 11.06844139, 81.15433502, 1.00000000, 0.00000000, 0.00000000, 0.00000000, 0.05544066, 0.01774004, 0.02300274, 0.00000000, 0.00000000, 0.00000000, 0.00000000
1, 3.1000, 310, 0.06932119, -0.96671546, 0.19561078, 0.62808442, -39.99309540, -37.18857956, 0.00000000, 0.00000000, 0.00000000, 107.53746033, 11.54368496, 80.87996674, 1.00000000, 0.00000000, 0.00000000, 0.00000000, 0.12776904, 0.03200155, 0.10012592, 0.00000000, 0.00000000, 0.00000000, 0.00000000
1, 3.1100, 311, 0.09715653, -0.96793342, 0.26081094, -0.24768707, -11.19641781, -41.84312439, 0.00000000, 0.00000000, 0.00000000, 107.53921509, 11.97639847, 80.89971161, 1.00000000, 0.00000000, 0.00000000, 0.00000000, 0.10768786, 0.03461237, 0.03405581, 0.00000000, 0.00000000, 0.00000000, 0.00000000
1, 3.1200, 312, 0.10261530, -0.92358607, 0.26004812, -7.63526106, 7.64756489, -44.85538101, 0.00000000, 0.00000000, 0.00000000, 107.50779724, 12.38109112, 81.11254883, 1.00000000, 0.00000000, 0.00000000, 0.00000000, 0.10921991, -0.00834638, 0.03427115, 0.00000000, 0.00000000, 0.00000000, 0.00000000
1, 3.1300, 313, 0.20627750, -0.86780131, 0.29509911, -8.96899223, 15.15912342, -45.73045349, 0.00000000, 0.00000000, 0.00000000, 107.47782135, 12.78860855, 81.39736938, 1.00000000, 0.00000000, 0.00000000, 0.00000000, 0.01237349, -0.06292371, -0.00194634, 0.00000000, 0.00000000, 0.00000000, 0.00000000
1, 3.1400, 314, 0.29830235, -0.90840453, 0.29163721, -6.35846090, 13.35634613, -45.99364471, 0.00000000, 0.00000000, 0.00000000, 107.47544098, 13.18718243, 81.66988373, 1.00000000, 0.00000000, 0.00000000, 0.00000000, -0.07272398, -0.02083063, 0.00099283, 0.00000000, 0.00000000, 0.00000000, 0.00000000
1, 3.1500, 315, 0.29043546, -0.89875662, 0.30544668, -6.88728523, 10.12065220, -44.95787430, 0.00000000, 0.00000000, 0.00000000, 107.46157837, 13.58565426, 81.90782166, 1.00000000, 0.00000000, 0.00000000, 0.00000000, -0.05810032, -0.02903223, -0.01351439, 0.00000000, 0.00000000, 0.00000000, 0.00000000
1, 3.1600, 316, 0.31465298, -0.89004385, 0.32825369, -6.91381359, -0.28003469, -44.60769272, 0.00000000, 0.00000000, 0.00000000, 107.42459869, 14.01205349, 82.04274750, 1.00000000, 0.00000000, 0.00000000, 0.00000000, -0.07525584, -0.03625557, -0.03730007, 0.00000000, 0.00000000, 0.00000000, 0.00000000
1, 3.1700, 317, 0.22138846, -0.90881544, 0.33760276, -4.07906151, 0.41039306, -44.70424652, 0.00000000, 0.00000000, 0.00000000, 107.41875458, 14.43736553, 82.18486023, 1.00000000, 0.00000000, 0.00000000, 0.00000000, 0.02524526, -0.01585154, -0.04750175, 0.00000000, 0.00000000, 0.00000000, 0.00000000
1, 3.1800, 318, 0.24897574, -0.94844824, 0.28517199, -5.30338287, 3.97608972, -44.24473953, 0.00000000, 0.00000000, 0.00000000, 107.39394379, 14.87078857, 82.35225677, 1.00000000, 0.00000000, 0.00000000, 0.00000000, 0.00478828, 0.02550849, 0.00427838, 0.00000000, 0.00000000, 0.00000000, 0.00000000
1, 3.1900, 319, 0.31477752, -0.97106570, 0.22874099, -7.41084814, 6.40174484, -45.43278885, 0.00000000, 0.00000000, 0.00000000, 107.37287140, 15.28523922, 82.55609131, 1.00000000, 0.00000000, 0.00000000, 0.00000000, -0.05376929, 0.04979925, 0.05959673, 0.00000000, 0.00000000, 0.00000000, 0.00000000
1, 3.2000, 320, 0.23417862, -0.95761633, 0.18138647, -7.32390785, 2.04570103, -44.10277557, 0.00000000, 0.00000000, 0.00000000, 107.34147644, 15.70006752, 82.71289062, 1.00000000, 0.00000000, 0.00000000, 0.00000000, 0.03379854, 0.03805955, 0.10601459, 0.00000000, 0.00000000, 0.00000000, 0.00000000
1, 3.2100, 321, 0.38064796, -0.93315536, 0.19908001, -6.95469713, -5.09265089, -43.73647308, 0.00000000, 0.00000000, 0.00000000, 107.29515076, 16.13275719, 82.79766846, 1.00000000, 0.00000000, 0.00000000, 0.00000000, -0.10554108, 0.01528482, 0.08697114, 0.00000000, 0.00000000, 0.00000000, 0.00000000
1, 3.2200, 322, 0.37923160, -0.96330911, 0.22003244, -1.89686167, -6.44398832, -45.70421600, 0.00000000, 0.00000000, 0.00000000, 107.29798889, 16.58828735, 82.87512970, 1.00000000, 0.00000000, 0.00000000, 0.00000000, -0.09660178, 0.04745384, 0.06514234, 0.00000000, 0.00000000, 0.00000000, 0.00000000
1, 3.2300, 323, 0.31385058, -0.95072794, 0.23840870, -3.19545126, -12.64653206, -44.79899597, 0.00000000, 0.00000000, 0.00000000, 107.25144958, 17.05813980, 82.88187408, 1.00000000, 0.00000000, 0.00000000, 0.00000000, -0.02349600, 0.03699805, 0.04582069, 0.00000000, 0.00000000, 0.00000000, 0.00000000
1, 3.2400, 324, 0.34994739, -0.91151851, 0.28359789, -1.99980271, -16.89980507, -44.81127930, 0.00000000, 0.00000000, 0.00000000, 107.22253418, 17.53620338, 82.85189056, 1.00000000, 0.00000000, 0.00000000, 0.00000000, -0.05164912, -0.00010563, -0.00083623, 0.00000000, 0.00000000, 0.00000000, 0.00000000
1, 3.2500, 325, 0.27660495, -0.91076434, 0.24318969, -0.84084493, -21.40669632, -45.12358475, 0.00000000, 0.00000000, 0.00000000, 107.19128418, 18.03056717, 82.77732086, 1.00000000, 0.00000000, 0.00000000, 0.00000000, 0.02981687, 0.00146689, 0.03837381, 0.00000000, 0.00000000, 0.00000000, 0.00000000
1, 3.2600, 326, 0.31245700, -0.90837890, 0.28461665, -3.94649148, -29.37140846, -46.01942825, 0.00000000, 0.00000000, 0.00000000, 107.10388947, 18.55690384, 82.62462616, 1.00000000, 0.00000000, 0.00000000, 0.00000000, 0.00248364, 0.00141521, -0.00493425, 0.00000000, 0.00000000, 0.00000000, 0.00000000
1, 3.2700, 327, 0.32749903, -0.92007083, 0.30233282, -2.71970057, -33.74430084, -48.09839630, 0.00000000, 0.00000000, 0.00000000, 107.01474762, 19.11572075, 82.43284607, 1.00000000, 0.00000000, 0.00000000, 0.00000000, -0.00351461, 0.01558764, -0.02495841, 0.00000000, 0.00000000, 0.00000000, 0.00000000
1, 3.2800, 328, 0.32318982, -0.94672859, 0.28386965, -0.24504784, -37.92502213, -48.10798264, 0.00000000, 0.00000000, 0.00000000, 106.93685150, 19.67790031, 82.19976044, 1.00000000, 0.00000000, 0.00000000, 0.00000000, 0.01014306, 0.04493250, -0.00883235, 0.00000000, 0.00000000, 0.00000000, 0.00000000
1, 3.2900, 329, 0.37829185, -0.94640285, 0.29628226, 2.22835112, -38.99244690, -48.20333862, 0.00000000, 0.00000000, 0.00000000, 106.87451172, 20.25248528, 81.95197296, 1.00000000, 0.00000000, 0.00000000, 0.00000000, -0.03571657, 0.04749006, -0.02317108, 0.00000000, 0.00000000, 0.00000000, 0.00000000
1, 3.3000, 330, 0.35511005, -0.97271472, 0.30214041, 4.21034145, -44.52632904, -49.39528275, 0.00000000, 0.00000000, 0.00000000, 106.81040955, 20.85424995, 81.64964294, 1.00000000, 0.00000000, 0.00000000, 0.00000000, -0.00281131, 0.07693852, -0.03110186, 0.00000000, 0.00000000, 0.00000000, 0.00000000
1, 3.3100, 331, 0.31520751, -0.98269880, 0.41007245, 2.00601315, -43.92309952, -47.31379318, 0.00000000, 0.00000000, 0.00000000, 106.72070312, 21.43399048, 81.34508514, 1.00000000, 0.00000000, 0.00000000, 0.00000000, 0.04669007, 0.09006557, -0.14131995, 0.00000000, 0.00000000, 0.00000000, 0.00000000
1, 3.3200, 332, 0.28146020, -0.99534690, 0.39997625, 1.56505942, -35.81237793, -51.34257507, 0.00000000, 0.00000000, 0.00000000, 106.65846252, 22.02860641, 81.13449097, 1.00000000, 0.00000000, 0.00000000, 0.00000000, 0.08996783, 0.10593508, -0.13355693, 0.00000000, 0.00000000, 0.00000000, 0.00000000
1, 3.3300, 333, 0.28433317, -1.09652424, 0.38487324, 0.58267826, -28.29322624, -53.53429413, 0.00000000, 0.00000000, 0.00000000, 106.62727356, 22.57607651, 81.02046204, 1.00000000, 0.00000000, 0.00000000, 0.00000000, 0.09659120, 0.21062224, -0.12017057, 0.00000000, 0.00000000, 0.00000000, 0.00000000
1, 3.3400, 334, 0.28652227, -1.06121922, 0.38023946, -8.34874344, -20.24588776, -56.09497070, 0.00000000, 0.00000000, 0.00000000, 106.52950287, 23.17146492, 80.98358154, 1.00000000, 0.00000000, 0.00000000, 0.00000000, 0.10332733, 0.17857248, -0.11766934, 0.00000000, 0.00000000, 0.00000000, 0.00000000
1, 3.3500, 335, 0.27161425, -1.06338775, 0.33263174, -3.19770098, -19.66098976, -60.63090515, 0.00000000, 0.00000000, 0.00000000, 106.49049377, 23.80864143, 80.96587372, 1.00000000, 0.00000000, 0.00000000, 0.00000000, 0.12820940, 0.18455684, -0.07227167, 0.00000000, 0.00000000, 0.00000000, 0.00000000
1, 3.3600, 336, 0.26361549, -1.09842920, 0.31608909, -8.96869564, -18.20051384, -64.63785553, 0.00000000, 0.00000000, 0.00000000, 106.40460968, 24.48010445, 80.97521210, 1.00000000, 0.00000000, 0.00000000, 0.00000000, 0.14670730, 0.22378743, -0.05796937, 0.00000000, 0.00000000, 0.00000000, 0.00000000
1, 3.3700, 337, 0.37146294, -1.09005475, 0.36682582, -15.24668789, -19.30850029, -69.68383026, 0.00000000, 0.00000000, 0.00000000, 106.25709534, 25.20312119, 80.98697662, 1.00000000, 0.00000000, 0.00000000, 0.00000000, 0.05000129, 0.21973330, -0.11207993, 0.00000000, 0.00000000, 0.00000000, 0.00000000
1, 3.3800, 338, 0.26842910, -1.07971179, 0.36683908, -15.78300953, -25.13071251, -74.20819092, 0.00000000, 0.00000000, 0.00000000, 106.09136200, 25.94236755, 80.96070862, 1.00000000, 0.00000000, 0.00000000, 0.00000000, 0.16487333, 0.21405780, -0.11608295, 0.00000000, 0.00000000, 0.00000000, 0.00000000
1, 3.3900, 339, 0.33250022, -1.11081660, 0.37485328, -16.09383011, -35.78946304, -77.37490082, 0.00000000, 0.00000000, 0.00000000, 105.86539459, 26.78472519, 80.81442261, 1.00000000, 0.00000000, 0.00000000, 0.00000000, 0.11313000, 0.25009143, -0.12878922, 0.00000000, 0.00000000, 0.00000000, 0.00000000
1, 3.4000, 340, 0.30999359, -1.12319195, 0.35926402, -16.33013725, -41.00964355, -82.66580200, 0.00000000, 0.00000000, 0.00000000, 105.61422729, 27.69160843, 80.62256622, 1.00000000, 0.00000000, 0.00000000, 0.00000000, 0.14937678, 0.26811785, -0.11883485, 0.00000000, 0.00000000, 0.00000000, 0.00000000
1, 3.4100, 341, 0.28838351, -1.18139732, 0.38297901, -13.03662014, -53.59488678, -86.80928802, 0.00000000, 0.00000000, 0.00000000, 105.33121490, 28.67124939, 80.29941559, 1.00000000, 0.00000000, 0.00000000, 0.00000000, 0.18568039, 0.33271852, -0.14849441, 0.00000000, 0.00000000, 0.00000000, 0.00000000
1, 3.4200, 342, 0.34678552, -1.18426406, 0.36995941, -16.28175926, -57.75360107, -92.68081665, 0.00000000, 0.00000000, 0.00000000, 104.99224091, 29.71680832, 79.93846893, 1.00000000, 0.00000000, 0.00000000, 0.00000000, 0.14287730, 0.34256047, -0.14250207, 0.00000000, 0.00000000, 0.00000000, 0.00000000
1, 3.4300, 343, 0.32915697, -1.19868875, 0.32572880, -16.71513367, -70.48757172, -97.02545166, 0.00000000, 0.00000000, 0.00000000, 104.56655884, 30.80541992, 79.43923187, 1.00000000, 0.00000000, 0.00000000, 0.00000000, 0.17692281, 0.36458924, -0.10634419, 0.00000000, 0.00000000, 0.00000000, 0.00000000
1, 3.4400, 344, 0.32581422, -1.24249828, 0.37949237, -17.03673553, -85.05025482, -99.62556458, 0.00000000, 0.00000000, 0.00000000, 104.04347229, 31.98097420, 78.76224518, 1.00000000, 0.00000000, 0.00000000, 0.00000000, 0.19720761, 0.41642144, -0.16971412, 0.00000000, 0.00000000, 0.00000000, 0.00000000
1, 3.4500, 345, 0.16866387, -1.32721400, 0.35964003, -15.91421700, -94.03916931, -101.75769043, 0.00000000, 0.00000000, 0.00000000, 103.45478821, 33.19284439, 77.96511841, 1.00000000, 0.00000000, 0.00000000, 0.00000000, 0.37210503, 0.50993741, -0.16067523, 0.00000000, 0.00000000, 0.00000000, 0.00000000
1, 3.4600, 346, 0.25886118, -1.43583107, 0.44697469, -19.96417809, -99.42484283, -105.16643524, 0.00000000, 0.00000000, 0.00000000, 102.76643372, 34.44273376, 77.08687592, 1.00000000, 0.00000000, 0.00000000, 0.00000000, 0.29989275, 0.62788391, -0.25997317, 0.00000000, 0.00000000, 0.00000000, 0.00000000
1, 3.4700, 347, 0.12801176, -1.48998177, 0.41819280, -20.09860802, -102.85970306, -109.35259247, 0.00000000, 0.00000000, 0.00000000, 102.02432251, 35.73154068, 76.14598083, 1.00000000, 0.00000000, 0.00000000, 0.00000000, 0.44905877, 0.69210470, -0.24402896, 0.00000000, 0.00000000, 0.00000000, 0.00000000
1, 3.4800, 348, 0.17222495, -1.52418923, 0.39136079, -17.97768784, -121.14712524, -109.22666931, 0.00000000, 0.00000000, 0.00000000, 101.13430786, 37.01473236, 74.95166016, 1.00000000, 0.00000000, 0.00000000, 0.00000000, 0.42319202, 0.73686874, -0.23150708, 0.00000000, 0.00000000, 0.00000000, 0.00000000
1, 3.4900, 349, 0.09945928, -1.61048865, 0.40304923, -11.02735519, -144.28450012, -109.63700104, 0.00000000, 0.00000000, 0.00000000, 100.08380890, 38.35794449, 73.41456604, 1.00000000, 0.00000000, 0.00000000, 0.00000000, 0.51412487, 0.83411705, -0.25917161, 0.00000000, 0.00000000, 0.00000000, 0.00000000
1, 3.5000, 350, -0.17787834, -1.75394320, 0.42453408, -5.23279810, -171.98083496, -111.53938293, 0.00000000, 0.00000000, 0.00000000, 98.80321503, 39.74037170, 71.46554565, 1.00000000, 0.00000000, 0.00000000, 0.00000000, 0.81015885, 0.98942953, -0.29935440, 0.00000000, 0.00000000, 0.00000000, 0.00000000
1, 3.5100, 351, -0.41288647, -1.85643995, 0.51349616, -5.41320753, -181.14575195, -115.56502533, 0.00000000, 0.00000000, 0.00000000, 97.35901642, 41.13956833, 69.32274628, 1.00000000, 0.00000000, 0.00000000, 0.00000000, 1.06383574, 1.10460651, -0.40892449, 0.00000000, 0.00000000, 0.00000000, 0.00000000
1, 3.5200, 352, -0.35552597, -1.80201185, 0.53280687, -16.08819199, -178.99417114, -122.61865997, 0.00000000, 0.00000000, 0.00000000, 95.73065186, 42.56211853, 67.12321472, 1.00000000, 0.00000000, 0.00000000, 0.00000000, 1.02496552, 1.06376743, -0.45057803, 0.00000000, 0.00000000, 0.00000000, 0.00000000
1, 3.5300, 353, -0.15017402, -1.74508095, 0.48392341, -18.17031097, -176.99415588, -128.09933472, 0.00000000, 0.00000000, 0.00000000, 93.99986267, 43.96081924, 64.86212921, 1.00000000, 0.00000000, 0.00000000, 0.00000000, 0.83786768, 1.02153528, -0.42497197, 0.00000000, 0.00000000, 0.00000000, 0.00000000
1, 3.5400, 354, 0.08033972, -1.77501357, 0.44864452, -19.47087479, -175.29689026, -135.11557007, 0.00000000, 0.00000000, 0.00000000, 92.14585876, 45.40435410, 62.50213242, 1.00000000, 0.00000000, 0.00000000, 0.00000000, 0.62499946, 1.06708407, -0.41341913, 0.00000000, 0.00000000, 0.00000000, 0.00000000
1, 3.5500, 355, 0.08375125, -1.75076830, 0.51855963, -32.48715210, -157.48916626, -148.37814331, 0.00000000, 0.00000000, 0.00000000, 90.21369934, 46.92079926, 60.27312851, 1.00000000, 0.00000000, 0.00000000, 0.00000000, 0.63972402, 1.06058300, -0.50718039, 0.00000000, 0.00000000, 0.00000000, 0.00000000
1, 3.5600, 356, -0.06371240, -1.74041653, 0.61140430, -38.23685074, -123.45011902, -158.38847351, 0.00000000, 0.00000000, 0.00000000, 88.45526886, 48.49084854, 58.41181946, 1.00000000, 0.00000000, 0.00000000, 0.00000000, 0.80571067, 1.07016492, -0.62193179, 0.00000000, 0.00000000, 0.00000000, 0.00000000
1, 3.5700, 357, 0.16775949, -1.47040355, 0.94014108, -75.60391235, -72.88641357, -157.38748169, 0.00000000, 0.00000000, 0.00000000, 86.78050995, 50.03445435, 57.19770050, 1.00000000, 0.00000000, 0.00000000, 0.00000000, 0.59212804, 0.82107830, -0.96950763, 0.00000000, 0.00000000, 0.00000000, 0.00000000
1, 3.5800, 358, 0.12610911, -1.25629818, 0.62289292, -93.36129761, -61.16765594, -140.68777466, 0.00000000, 0.00000000, 0.00000000, 85.03157806, 51.33893585, 56.12937927, 1.00000000, 0.00000000, 0.00000000, 0.00000000, 0.64991271, 0.62741721, -0.67012805, 0.00000000, 0.00000000, 0.00000000, 0.00000000
1, 3.5900, 359, 0.02313206, -1.25104272, 0.37886462, -55.59936523, -130.00866699, -108.39817810, 0.00000000, 0.00000000, 0.00000000, 82.68363953, 52.27714157, 53.85129929, 1.00000000, 0.00000000, 0.00000000, 0.00000000, 0.76441753, 0.63867164, -0.44739017, 0.00000000, 0.00000000, 0.00000000, 0.00000000
1, 3.6000, 360, 0.12716845, -1.15301478, 0.20348409, -77.11693573, -167.35260010, -81.48638153, 0.00000000, 0.00000000, 0.00000000, 79.58928680, 52.82550430, 50.92620850, 1.00000000, 0.00000000, 0.00000000, 0.00000000, 0.66770899, 0.55409217, -0.30026019, 0.00000000, 0.00000000, 0.00000000, 0.00000000
1, 3.6100, 361, 0.46809855, -0.70746839, 0.07362182, -109.88977814, -180.70056152, -75.67788696, 0.00000000, 0.00000000, 0.00000000, 75.93311310, 53.18197250, 47.72482300, 1.00000000, 0.00000000, 0.00000000, 0.00000000, 0.33115327, 0.12123616, -0.20556465, 0.00000000, 0.00000000, 0.00000000, 0.00000000
1, 3.6200, 362, 0.84650666, -0.34413859, -0.09601942, -72.16242981, -179.62519836, -78.08689117, 0.00000000, 0.00000000, 0.00000000, 72.60575867, 53.44504547, 44.47585678, 1.00000000, 0.00000000, 0.00000000, 0.00000000, -0.04414609, -0.22893476, -0.07045531, 0.00000000, 0.00000000, 0.00000000, 0.00000000
1, 3.6300, 363, 1.33633363, -0.35092178, 0.34228289, -12.58254051, -162.51246643, -67.72989655, 0.00000000, 0.00000000, 0.00000000, 70.20286560, 53.60275269, 41.59714508, 1.00000000, 0.00000000, 0.00000000, 0.00000000, -0.53233874, -0.21119872, -0.53610963, 0.00000000, 0.00000000, 0.00000000, 0.00000000
1, 3.6400, 364, 0.43935600, -0.57550931, 0.61587131, 27.36970329, -82.58312225, -66.36663055, 0.00000000, 0.00000000, 0.00000000, 69.10419464, 53.93701172, 39.89600372, 1.00000000, 0.00000000, 0.00000000, 0.00000000, 0.36791229, 0.02294382, -0.82318646, 0.00000000, 0.00000000, 0.00000000, 0.00000000
1, 3.6500, 365, -0.22778857, -0.63352805, 0.36686069, 40.87716675, -81.61710358, -26.95497894, 0.00000000, 0.00000000, 0.00000000, 68.33412933, 53.89249420, 38.43809128, 1.00000000, 0.00000000, 0.00000000, 0.00000000, 1.03630817, 0.08546320, -0.58113933, 0.00000000, 0.00000000, 0.00000000, 0.00000000
1, 3.6600, 366, -0.37189692, -0.50286841, 0.14069116, -6.22494793, -89.24849701, 23.68414307, 0.00000000, 0.00000000, 0.00000000, 67.27093506, 53.33634567, 37.19559097, 1.00000000, 0.00000000, 0.00000000, 0.00000000, 1.17667603, -0.04622502, -0.36609477, 0.00000000, 0.00000000, 0.00000000, 0.00000000
1, 3.6700, 367, -0.27680460, -0.33004245, -0.07404514, -9.65989971, -82.10022736, 60.12120438, 0.00000000, 0.00000000, 0.00000000, 66.48778534, 52.46105194, 36.33540344, 1.00000000, 0.00000000, 0.00000000, 0.00000000, 1.07332301, -0.22541609, -0.16470300, 0.00000000, 0.00000000, 0.00000000, 0.00000000
1, 3.6800, 368, -0.20400333, -0.27237317, -0.16267514, -10.91660595, -48.50407028, 78.85427094, 0.00000000, 0.00000000, 0.00000000, 66.19773102, 51.46866989, 36.12800980, 1.00000000, 0.00000000, 0.00000000, 0.00000000, 0.99057263, -0.29289940, -0.08582244, 0.00000000, 0.00000000, 0.00000000, 0.00000000
1, 3.6900, 369, -0.21166450, -0.21641013, -0.13437469, 2.65788698, -3.06422281, 90.91326904, 0.00000000, 0.00000000, 0.00000000, 66.63919830, 50.62328720, 36.66231155, 1.00000000, 0.00000000, 0.00000000, 0.00000000, 0.98806357, -0.36113915, -0.11785933, 0.00000000, 0.00000000, 0.00000000, 0.00000000
1, 3.7000, 370, -0.17831194, -0.22316159, -0.08817928, 25.22290039, 44.49289703, 102.72969818, 0.00000000, 0.00000000, 0.00000000, 67.86169434, 49.84796143, 37.92519379, 1.00000000, 0.00000000, 0.00000000, 0.00000000, 0.94586694, -0.36837879, -0.15861708, 0.00000000, 0.00000000, 0.00000000, 0.00000000
1, 3.7100, 371, -0.02554997, -0.21340114, -0.03536689, 37.91551590, 84.78026581, 114.38875580, 0.00000000, 0.00000000, 0.00000000, 69.64962006, 49.08892822, 39.77913666, 1.00000000, 0.00000000, 0.00000000, 0.00000000, 0.78453565, -0.39419121, -0.19856459, 0.00000000, 0.00000000, 0.00000000, 0.00000000
1, 3.7200, 372, 0.10227614, -0.21032037, -0.01748523, 50.55681610, 114.60376740, 129.84489441, 0.00000000, 0.00000000, 0.00000000, 71.87185669, 48.24050903, 42.06539154, 1.00000000, 0.00000000, 0.00000000, 0.00000000, 0.64748114, -0.41533947, -0.19778739, 0.00000000, 0.00000000, 0.00000000, 0.00000000
1, 3.7300, 373, 0.08299743, -0.23941416, -0.00045034, 58.35770798, 137.90676880, 147.59330750, 0.00000000, 0.00000000, 0.00000000, 74.39695740, 47.19985580, 44.68399811, 1.00000000, 0.00000000, 0.00000000, 0.00000000, 0.65561998, -0.40664512, -0.19178334, 0.00000000, 0.00000000, 0.00000000, 0.00000000
1, 3.7400, 374, -0.03681819, -0.31319484, 0.02486764, 62.87118530, 164.91069031, 162.39822388, 0.00000000, 0.00000000, 0.00000000, 77.13929749, 46.03056335, 47.59243774, 1.00000000, 0.00000000, 0.00000000, 0.00000000, 0.76195019, -0.35513902, -0.19037424, 0.00000000, 0.00000000, 0.00000000, 0.00000000
1, 3.7500, 375, -0.10686920, -0.44025910, 0.02196992, 58.91802216, 202.39598083, 181.50762939, 0.00000000, 0.00000000, 0.00000000, 80.09922791, 44.64972305, 50.92464447, 1.00000000, 0.00000000, 0.00000000, 0.00000000, 0.81627446, -0.25147200, -0.15650904, 0.00000000, 0.00000000, 0.00000000, 0.00000000
1, 3.7600, 376, -0.09824289, -0.53765529, 0.00052054, 57.22371292, 218.25564575, 198.95199585, 0.00000000, 0.00000000, 0.00000000, 83.02474976, 43.00142670, 54.32175827, 1.00000000, 0.00000000, 0.00000000, 0.00000000, 0.78835666, -0.17877516, -0.10199399, 0.00000000, 0.00000000, 0.00000000, 0.00000000
1, 3.7700, 377, 0.06072113, -0.61438221, 0.02686846, 62.49367905, 226.83843994, 213.12802124, 0.00000000, 0.00000000, 0.00000000, 85.87316895, 41.09910583, 57.63998032, 1.00000000, 0.00000000, 0.00000000, 0.00000000, 0.60618454, -0.12758645, -0.09413143, 0.00000000, 0.00000000, 0.00000000, 0.00000000
1, 3.7800, 378, 0.27870154, -0.68272150, 0.09712806, 67.33454895, 230.66029358, 224.55825806, 0.00000000, 0.00000000, 0.00000000, 88.58689117, 38.95674133, 60.80084229, 1.00000000, 0.00000000, 0.00000000, 0.00000000, 0.36111581, -0.08498454, -0.12948588, 0.00000000, 0.00000000, 0.00000000, 0.00000000
1, 3.7900, 379, 0.44951737, -0.73732406, 0.16628742, 66.60938263, 231.32264709, 234.04197693, 0.00000000, 0.00000000, 0.00000000, 91.05333710, 36.62301636, 63.73695755, 1.00000000, 0.00000000, 0.00000000, 0.00000000, 0.15939254, -0.05577314, -0.16414082, 0.00000000, 0.00000000, 0.00000000, 0.00000000
1, 3.8000, 380, 0.53128290, -0.81926906, 0.20470123, 66.54981232, 221.95365906, 245.88420105, 0.00000000, 0.00000000, 0.00000000, 93.22869873, 34.08271027, 66.34347534, 1.00000000, 0.00000000, 0.00000000, 0.00000000, 0.04298048, 0.00148296, -0.16979991, 0.00000000, 0.00000000, 0.00000000, 0.00000000
1, 3.8100, 381, 0.59284735, -0.95081186, 0.23874590, 65.87033844, 196.24813843, 258.95880127, 0.00000000, 0.00000000, 0.00000000, 95.02708435, 31.35851669, 68.44804382, 1.00000000, 0.00000000, 0.00000000, 0.00000000, -0.05717060, 0.10900162, -0.17413351, 0.00000000, 0.00000000, 0.00000000, 0.00000000
1, 3.8200, 382, 0.70099753, -1.06164491, 0.28333980, 62.63680649, 162.98652649, 272.71057129, 0.00000000, 0.00000000, 0.00000000, 96.43164825, 28.48239708, 70.00465393, 1.00000000, 0.00000000, 0.00000000, 0.00000000, -0.20752491, 0.19667487, -0.19345908, 0.00000000, 0.00000000, 0.00000000, 0.00000000
1, 3.8300, 383, 0.79241490, -1.08311737, 0.35442176, 62.40931702, 113.85041046, 287.37582397, 0.00000000, 0.00000000, 0.00000000, 97.46512604, 25.50182343, 70.88438416, 1.00000000, 0.00000000, 0.00000000, 0.00000000, -0.34433198, 0.19609821, -0.24402907, 0.00000000, 0.00000000, 0.00000000, 0.00000000
1, 3.8400, 384, 0.83949029, -1.08260262, 0.40884933, 68.57647705, 87.71170807, 298.99661255, 0.00000000, 0.00000000, 0.00000000, 98.35541534, 22.41989326, 71.38513947, 1.00000000, 0.00000000, 0.00000000, 0.00000000, -0.43947172, 0.17520456, -0.28090131, 0.00000000, 0.00000000, 0.00000000, 0.00000000
1, 3.8500, 385, 0.87591714, -1.17617893, 0.44989386, 82.96264648, 73.89398956, 307.98468018, 0.00000000, 0.00000000, 0.00000000, 99.28425598, 19.26344681, 71.66189575, 1.00000000, 0.00000000, 0.00000000, 0.00000000, -0.52654839, 0.25068575, -0.30447406, 0.00000000, 0.00000000, 0.00000000, 0.00000000
1, 3.8600, 386, 0.87216550, -1.33042192, 0.53620708, 95.78491974, 66.95806122, 311.98077393, 0.00000000, 0.00000000, 0.00000000, 100.28367615, 16.07532120, 71.79814911, 1.00000000, 0.00000000, 0.00000000, 0.00000000, -0.57527357, 0.38989055, -0.37191558, 0.00000000, 0.00000000, 0.00000000, 0.00000000
1, 3.8700, 387, 0.83410400, -1.40361500, 0.55670863, 97.99906921, 74.83612061, 314.07647705, 0.00000000, 0.00000000, 0.00000000, 101.30139923, 12.84993935, 71.95007324, 1.00000000, 0.00000000, 0.00000000, 0.00000000, -0.59117514, 0.45126635, -0.37300771, 0.00000000, 0.00000000, 0.00000000, 0.00000000
1, 3.8800, 388, 0.81440419, -1.44089901, 0.52727062, 104.02719879, 81.99018860, 310.27215576, 0.00000000, 0.00000000, 0.00000000, 102.37835693, 9.65607643, 72.11777496, 1.00000000, 0.00000000, 0.00000000, 0.00000000, -0.62627065, 0.48023981, -0.32362616, 0.00000000, 0.00000000, 0.00000000, 0.00000000
1, 3.8900, 389, 0.82799101, -1.47393882, 0.44518900, 111.55903625, 81.36287689, 300.63552856, 0.00000000, 0.00000000, 0.00000000, 103.51132202, 6.54399252, 72.23892975, 1.00000000, 0.00000000, 0.00000000, 0.00000000, -0.69399238, 0.50880700, -0.22089884, 0.00000000, 0.00000000, 0.00000000, 0.00000000
1, 3.9000, 390, 0.93685132, -1.54526591, 0.35313562, 119.09873962, 75.12760925, 288.79785156, 0.00000000, 0.00000000, 0.00000000, 104.70500183, 3.56018162, 72.26429749, 1.00000000, 0.00000000, 0.00000000, 0.00000000, -0.85547823, 0.57937342, -0.10780614, 0.00000000, 0.00000000, 0.00000000, 0.00000000
1, 3.9100, 391, 1.05789161, -1.55588865, 0.23610474, 125.15847778, 63.25154495, 276.36926270, 0.00000000, 0.00000000, 0.00000000, 105.95298767, 0.72798985, 72.14375305, 1.00000000, 0.00000000, 0.00000000, 0.00000000, -1.02683830, 0.59277213, 0.03075966, 0.00000000, 0.00000000, 0.00000000, 0.00000000
1, 3.9200, 392, 1.15784097, -1.42771661, 0.02413930, 125.42790222, 41.44174194, 270.56161499, 0.00000000, 0.00000000, 0.00000000, 107.21259308, -1.98284328, 71.76894379, 1.00000000, 0.00000000, 0.00000000, 0.00000000, -1.17486131, 0.47032940, 0.26380011, 0.00000000, 0.00000000, 0.00000000, 0.00000000
1, 3.9300, 393, 1.19981825, -1.50977838, 0.01870830, 130.93159485, 25.61798859, 264.51544189, 0.00000000, 0.00000000, 0.00000000, 108.54818726, -4.56150436, 71.19776154, 1.00000000, 0.00000000, 0.00000000, 0.00000000, -1.26282680, 0.56086427, 0.29014784, 0.00000000, 0.00000000, 0.00000000, 0.00000000
