SensorId, TimeStamp (s), FrameNumber, AccX (g), AccY (g), AccZ (g), GyroX (deg/s), GyroY (deg/s), GyroZ (deg/s), MagX (uT), MagY (uT), MagZ (uT), EulerX (deg), EulerY (deg), EulerZ (deg), QuatW, QuatX, QuatY, QuatZ, LinAccX (g), LinAccY (g), LinAccZ (g), Pressure (kPa), Altitude (m), Temperature (degC), HeaveMotion (m)
1, -0.0000, 0, 0.44678169, -0.61126179, 0.18636069, -48.08308411, 121.52116394, 284.04244995, 0.00000000, 0.00000000, 0.00000000, 119.01602173, 41.28755951, 77.03902435, 1.00000000, 0.00000000, 0.00000000, 0.00000000, 0.22801179, -0.03207584, 0.17493764, 0.00000000, 0.00000000, 0.00000000, 0.00000000
1, 0.0100, 1, 0.46788687, -0.67700279, 0.19379336, -53.80796814, 112.30455017, 292.73596191, 0.00000000, 0.00000000, 0.00000000, 118.12130737, 38.17599106, 76.50016022, 1.00000000, 0.00000000, 0.00000000, 0.00000000, 0.16603920, -0.00277001, 0.17472291, 0.00000000, 0.00000000, 0.00000000, 0.00000000
1, 0.0200, 2, 0.50743711, -0.73389423, 0.22255303, -55.28243256, 105.09901428, 299.19622803, 0.00000000, 0.00000000, 0.00000000, 117.22763062, 35.03817368, 75.92861176, 1.00000000, 0.00000000, 0.00000000, 0.00000000, 0.08333413, 0.01873304, 0.15065837, 0.00000000, 0.00000000, 0.00000000, 0.00000000
1, 0.0300, 3, 0.54402947, -0.79091358, 0.23093614, -55.10104370, 101.21524811, 303.20803833, 0.00000000, 0.00000000, 0.00000000, 116.37036133, 31.87540436, 75.37313080, 1.00000000, 0.00000000, 0.00000000, 0.00000000, 0.00146666, 0.04220447, 0.14538567, 0.00000000, 0.00000000, 0.00000000, 0.00000000
1, 0.0400, 4, 0.60447437, -0.86223286, 0.24818760, -51.87290955, 97.08670044, 306.23474121, 0.00000000, 0.00000000, 0.00000000, 115.57809448, 28.69716644, 74.83093262, 1.00000000, 0.00000000, 0.00000000, 0.00000000, -0.10619219, 0.08221944, 0.13002193, 0.00000000, 0.00000000, 0.00000000, 0.00000000
1, 0.0500, 5, 0.65008616, -0.94907808, 0.25469068, -51.17804337, 91.96009064, 306.95324707, 0.00000000, 0.00000000, 0.00000000, 114.82333374, 25.52823257, 74.29731750, 1.00000000, 0.00000000, 0.00000000, 0.00000000, -0.20063254, 0.14029771, 0.12427726, 0.00000000, 0.00000000, 0.00000000, 0.00000000
1, 0.0600, 6, 0.67656726, -0.98242372, 0.24774227, -54.07209778, 82.94618225, 302.47259521, 0.00000000, 0.00000000, 0.00000000, 114.05033112, 22.44671440, 73.82642365, 1.00000000, 0.00000000, 0.00000000, 0.00000000, -0.27640280, 0.14756732, 0.12994382, 0.00000000, 0.00000000, 0.00000000, 0.00000000
1, 0.0700, 7, 0.73894465, -0.99576503, 0.26581079, -51.86383057, 79.95099640, 296.07559204, 0.00000000, 0.00000000, 0.00000000, 113.35620880, 19.41436768, 73.33611298, 1.00000000, 0.00000000, 0.00000000, 0.00000000, -0.38798440, 0.13785154, 0.10913417, 0.00000000, 0.00000000, 0.00000000, 0.00000000
1, 0.0800, 8, 0.79767925, -0.99601370, 0.31633481, -49.75090790, 89.12261200, 288.93066406, 0.00000000, 0.00000000, 0.00000000, 112.75734711, 16.40695953, 73.00875092, 1.00000000, 0.00000000, 0.00000000, 0.00000000, -0.49646786, 0.11820571, 0.05582444, 0.00000000, 0.00000000, 0.00000000, 0.00000000
1, 0.0900, 9, 0.83511543, -0.98011744, 0.31814894, -49.68735504, 96.52922821, 278.58776855, 0.00000000, 0.00000000, 0.00000000, 112.21366882, 13.46380806, 72.82910156, 1.00000000, 0.00000000, 0.00000000, 0.00000000, -0.58373666, 0.08544531, 0.05084918, 0.00000000, 0.00000000, 0.00000000, 0.00000000
1, 0.1000, 10, 0.90979481, -0.99014676, 0.36173892, -49.18034744, 108.26277161, 265.68298340, 0.00000000, 0.00000000, 0.00000000, 111.72316742, 10.59506607, 72.83939362, 1.00000000, 0.00000000, 0.00000000, 0.00000000, -0.70762384, 0.08158481, 0.00355844, 0.00000000, 0.00000000, 0.00000000, 0.00000000
1, 0.1100, 11, 1.02778542, -0.99357218, 0.46911713, -50.40332413, 121.15167236, 249.68069458, 0.00000000, 0.00000000, 0.00000000, 111.25281525, 7.85931253, 73.17208862, 1.00000000, 0.00000000, 0.00000000, 0.00000000, -0.87373853, 0.07389699, -0.10816436, 0.00000000, 0.00000000, 0.00000000, 0.00000000
1, 0.1200, 12, 1.13317680, -0.96575242, 0.57093096, -55.08375168, 127.74031830, 226.48928833, 0.00000000, 0.00000000, 0.00000000, 110.74515533, 5.28716850, 73.55506897, 1.00000000, 0.00000000, 0.00000000, 0.00000000, -1.02461553, 0.03739971, -0.21566264, 0.00000000, 0.00000000, 0.00000000, 0.00000000
1, 0.1300, 13, 1.28127384, -0.91311133, 0.69065547, -59.79986572, 130.41413879, 197.10993958, 0.00000000, 0.00000000, 0.00000000, 110.18500519, 2.98461461, 74.08884430, 1.00000000, 0.00000000, 0.00000000, 0.00000000, -1.21457803, -0.02204961, -0.34295329, 0.00000000, 0.00000000, 0.00000000, 0.00000000
1, 0.1400, 14, 1.47401714, -0.86805582, 0.78641206, -55.42168808, 122.19691467, 160.56123352, 0.00000000, 0.00000000, 0.00000000, 109.65166473, 1.05879283, 74.69090271, 1.00000000, 0.00000000, 0.00000000, 0.00000000, -1.44341683, -0.07204773, -0.44703358, 0.00000000, 0.00000000, 0.00000000, 0.00000000
1, 0.1500, 15, 1.68762696, -0.77493161, 0.82964760, -55.24406433, 103.70370483, 126.74266815, 0.00000000, 0.00000000, 0.00000000, 109.10195160, -0.48101500, 75.24832916, 1.00000000, 0.00000000, 0.00000000, 0.00000000, -1.68649554, -0.16877580, -0.49895898, 0.00000000, 0.00000000, 0.00000000, 0.00000000
1, 0.1600, 16, 1.84380186, -0.62548131, 0.90762234, -51.56199646, 78.55036926, 93.66012573, 0.00000000, 0.00000000, 0.00000000, 108.58415222, -1.59323454, 75.79476929, 1.00000000, 0.00000000, 0.00000000, 0.00000000, -1.86505926, -0.32112223, -0.58597511, 0.00000000, 0.00000000, 0.00000000, 0.00000000
1, 0.1700, 17, 1.85692823, -0.51385605, 0.92558277, -34.04425430, 53.81002426, 59.90565491, 0.00000000, 0.00000000, 0.00000000, 108.23265839, -2.33154011, 76.11637878, 1.00000000, 0.00000000, 0.00000000, 0.00000000, -1.89332891, -0.43467242, -0.61101162, 0.00000000, 0.00000000, 0.00000000, 0.00000000
1, 0.1800, 18, 1.82816017, -0.46962962, 0.88824493, -14.42616940, 27.92291451, 27.79186821, 0.00000000, 0.00000000, 0.00000000, 108.08055115, -2.68261361, 76.29528046, 1.00000000, 0.00000000, 0.00000000, 0.00000000, -1.87315607, -0.47979650, -0.57749933, 0.00000000, 0.00000000, 0.00000000, 0.00000000
1, 0.1900, 19, 1.79819083, -0.43630084, 0.85113704, 3.62380934, 8.83115768, -1.12526286, 0.00000000, 0.00000000, 0.00000000, 108.11263275, -2.69932508, 76.38282776, 1.00000000, 0.00000000, 0.00000000, 0.00000000, -1.84561038, -0.51321495, -0.54102236, 0.00000000, 0.00000000, 0.00000000, 0.00000000
1, 0.2000, 20, 1.68079007, -0.36175704, 0.76815206, 18.42534637, -8.73082161, -29.09214020, 0.00000000, 0.00000000, 0.00000000, 108.29649353, -2.39565659, 76.39080811, 1.00000000, 0.00000000, 0.00000000, 0.00000000, -1.72501159, -0.58719987, -0.45586804, 0.00000000, 0.00000000, 0.00000000, 0.00000000
1, 0.2100, 21, 1.48920441, -0.25493473, 0.69352841, 31.91110802, -25.49291229, -53.00867844, 0.00000000, 0.00000000, 0.00000000, 108.64133453, -1.71903288, 76.67053986, 1.00000000, 0.00000000, 0.00000000, 0.00000000, -1.52453732, -0.69281936, -0.37651438, 0.00000000, 0.00000000, 0.00000000, 0.00000000
1, 0.2200, 22, 1.30145442, -0.22573730, 0.63756305, 50.11389160, -28.26089096, -73.02065277, 0.00000000, 0.00000000, 0.00000000, 109.14328766, -0.93672055, 76.63947296, 1.00000000, 0.00000000, 0.00000000, 0.00000000, -1.32324851, -0.71991307, -0.31314459, 0.00000000, 0.00000000, 0.00000000, 0.00000000
1, 0.2300, 23, 1.18079281, -0.15590860, 0.59995133, 51.03673553, -33.09444427, -88.99566650, 0.00000000, 0.00000000, 0.00000000, 109.65391541, 0.01257780, 76.62305450, 1.00000000, 0.00000000, 0.00000000, 0.00000000, -1.18690276, -0.78688753, -0.26667935, 0.00000000, 0.00000000, 0.00000000, 0.00000000
1, 0.2400, 24, -0.45413864, -0.66879702, 0.26823524, 61.47864914, -51.46069336, -89.49748230, 0.00000000, 0.00000000, 0.00000000, 110.26565552, 1.03035557, 76.44492340, 1.00000000, 0.00000000, 0.00000000, 0.00000000, 0.46518379, -0.27063471, 0.07427119, 0.00000000, 0.00000000, 0.00000000, 0.00000000
1, 0.2500, 25, -1.30074441, -2.49471450, -0.77431637, 76.75946808, -171.27505493, -55.48628235, 0.00000000, 0.00000000, 0.00000000, 110.99195099, 2.15288591, 75.03565216, 1.00000000, 0.00000000, 0.00000000, 0.00000000, 1.33147240, 1.55959487, 1.12725139, 0.00000000, 0.00000000, 0.00000000, 0.00000000
1, 0.2600, 26, -0.50746042, -3.58790326, 0.73383015, 215.48403931, -8.90402603, 12.45176315, 0.00000000, 0.00000000, 0.00000000, 113.14109802, 2.05845976, 74.90432739, 1.00000000, 0.00000000, 0.00000000, 0.00000000, 0.54375833, 2.66408634, -0.35289079, 0.00000000, 0.00000000, 0.00000000, 0.00000000
1, 0.2700, 27, 1.05886626, -1.61019468, 0.18059714, -123.78190613, 227.84043884, -188.33712769, 0.00000000, 0.00000000, 0.00000000, 112.02811432, 2.91960573, 77.73571777, 1.00000000, 0.00000000, 0.00000000, 0.00000000, -1.01328444, 0.68750799, 0.20216784, 0.00000000, 0.00000000, 0.00000000, 0.00000000
1, 0.2800, 28, 1.19766569, -0.70813382, 0.46265310, 35.64677048, 86.24861145, -208.54695129, 0.00000000, 0.00000000, 0.00000000, 112.47904205, 4.52979469, 79.32243347, 1.00000000, 0.00000000, 0.00000000, 0.00000000, -1.13103020, -0.21608879, -0.08678070, 0.00000000, 0.00000000, 0.00000000, 0.00000000
1, 0.2900, 29, 0.44384575, -0.57709765, 0.60080153, 106.82989502, -73.91300964, -194.40223694, 0.00000000, 0.00000000, 0.00000000, 113.55535889, 6.60797405, 79.40423584, 1.00000000, 0.00000000, 0.00000000, 0.00000000, -0.34181654, -0.33712423, -0.20880049, 0.00000000, 0.00000000, 0.00000000, 0.00000000
1, 0.3000, 30, 0.45304722, -0.43228987, 0.21431941, 20.04173088, 2.19694805, -158.14434814, 0.00000000, 0.00000000, 0.00000000, 113.84261322, 8.04644585, 80.06641388, 1.00000000, 0.00000000, 0.00000000, 0.00000000, -0.32131261, -0.47484952, 0.18530440, 0.00000000, 0.00000000, 0.00000000, 0.00000000
1, 0.3100, 31, 0.72399741, -0.49096084, 0.37526155, 21.97197533, 73.06524658, -129.91131592, 0.00000000, 0.00000000, 0.00000000, 114.25392151, 9.01548100, 81.56843567, 1.00000000, 0.00000000, 0.00000000, 0.00000000, -0.57357633, -0.41189128, 0.02748493, 0.00000000, 0.00000000, 0.00000000, 0.00000000
1, 0.3200, 32, 0.67160505, -0.73591465, 0.34080085, 57.15599823, 36.69789886, -100.25218201, 0.00000000, 0.00000000, 0.00000000, 114.94884491, 9.77501774, 82.32955170, 1.00000000, 0.00000000, 0.00000000, 0.00000000, -0.50681001, -0.16026568, 0.07111920, 0.00000000, 0.00000000, 0.00000000, 0.00000000
1, 0.3300, 33, 0.66347617, -1.08260798, 0.21641041, 63.46853256, -18.13363647, -77.19451904, 0.00000000, 0.00000000, 0.00000000, 115.61302948, 10.55064678, 82.49787140, 1.00000000, 0.00000000, 0.00000000, 0.00000000, -0.48518842, 0.19356905, 0.20525253, 0.00000000, 0.00000000, 0.00000000, 0.00000000
1, 0.3400, 34, 0.72693777, -1.24294066, 0.30024433, 32.70618820, -18.66774940, -58.17019272, 0.00000000, 0.00000000, 0.00000000, 115.95638275, 11.15560818, 82.58466339, 1.00000000, 0.00000000, 0.00000000, 0.00000000, -0.53720355, 0.35944602, 0.12804055, 0.00000000, 0.00000000, 0.00000000, 0.00000000
1, 0.3500, 35, 0.69393975, -1.08987606, 0.34754360, 6.86166954, -24.83857536, -45.83469772, 0.00000000, 0.00000000, 0.00000000, 116.02036285, 11.67646503, 82.56177521, 1.00000000, 0.00000000, 0.00000000, 0.00000000, -0.49482405, 0.20906799, 0.08201873, 0.00000000, 0.00000000, 0.00000000, 0.00000000
1, 0.3600, 36, 0.58376068, -0.99385554, 0.41867918, 25.03809738, -42.43878937, -39.00251389, 0.00000000, 0.00000000, 0.00000000, 116.21580505, 12.26432037, 82.54933167, 1.00000000, 0.00000000, 0.00000000, 0.00000000, -0.37552905, 0.11573306, 0.01205331, 0.00000000, 0.00000000, 0.00000000, 0.00000000
1, 0.3700, 37, 0.39598152, -0.95002854, 0.40207416, 34.67093277, -53.43533325, -38.39260483, 0.00000000, 0.00000000, 0.00000000, 116.49383545, 12.84560394, 82.23347473, 1.00000000, 0.00000000, 0.00000000, 0.00000000, -0.17735896, 0.07596748, 0.03175951, 0.00000000, 0.00000000, 0.00000000, 0.00000000
1, 0.3800, 38, 0.25513351, -0.93236154, 0.39362615, 23.25682640, -47.10123444, -33.59344864, 0.00000000, 0.00000000, 0.00000000, 116.66339874, 13.35677910, 81.95532990, 1.00000000, 0.00000000, 0.00000000, 0.00000000, -0.02719517, 0.06178951, 0.04242674, 0.00000000, 0.00000000, 0.00000000, 0.00000000
1, 0.3900, 39, 0.29578421, -0.93738002, 0.43935120, 13.85964680, -24.65570641, -29.34649849, 0.00000000, 0.00000000, 0.00000000, 116.78085327, 13.72972870, 81.86455536, 1.00000000, 0.00000000, 0.00000000, 0.00000000, -0.06058512, 0.06937307, -0.00203881, 0.00000000, 0.00000000, 0.00000000, 0.00000000
1, 0.4000, 40, 0.31592759, -0.99980408, 0.40354183, 14.45160675, -7.55906153, -25.38986588, 0.00000000, 0.00000000, 0.00000000, 116.93705750, 13.99037170, 81.91322327, 1.00000000, 0.00000000, 0.00000000, 0.00000000, -0.07571379, 0.13392688, 0.03526548, 0.00000000, 0.00000000, 0.00000000, 0.00000000
1, 0.4100, 41, 0.36994708, -1.05594850, 0.42326263, 11.06561279, -4.12987661, -22.38563538, 0.00000000, 0.00000000, 0.00000000, 117.03427887, 14.25274086, 82.17478180, 1.00000000, 0.00000000, 0.00000000, 0.00000000, -0.12567213, 0.19206621, 0.01723154, 0.00000000, 0.00000000, 0.00000000, 0.00000000
1, 0.4200, 42, 0.44952524, -1.02495658, 0.46760711, -0.58773983, -6.18950272, -19.71240616, 0.00000000, 0.00000000, 0.00000000, 117.03724670, 14.45644569, 82.21039581, 1.00000000, 0.00000000, 0.00000000, 0.00000000, -0.20117989, 0.16220522, -0.02717112, 0.00000000, 0.00000000, 0.00000000, 0.00000000
1, 0.4300, 43, 0.50537258, -0.97949147, 0.42009968, -4.72286081, -11.68374252, -16.26173592, 0.00000000, 0.00000000, 0.00000000, 116.98212433, 14.65438080, 82.17915344, 1.00000000, 0.00000000, 0.00000000, 0.00000000, -0.25358659, 0.11721759, 0.01931647, 0.00000000, 0.00000000, 0.00000000, 0.00000000
1, 0.4400, 44, 0.52724326, -0.93901092, 0.41049740, -2.83962655, -22.35667419, -6.24360418, 0.00000000, 0.00000000, 0.00000000, 116.90872955, 14.81133556, 82.00233459, 1.00000000, 0.00000000, 0.00000000, 0.00000000, -0.27256632, 0.07692151, 0.02761310, 0.00000000, 0.00000000, 0.00000000, 0.00000000
1, 0.4500, 45, 0.53469419, -0.90388602, 0.36105624, -0.96148813, -38.24325943, 1.47323179, 0.00000000, 0.00000000, 0.00000000, 116.80658722, 14.97094631, 81.64240265, 1.00000000, 0.00000000, 0.00000000, 0.00000000, -0.27739668, 0.04170035, 0.07533012, 0.00000000, 0.00000000, 0.00000000, 0.00000000
1, 0.4600, 46, 0.40304071, -0.90098929, 0.35146260, 0.90581948, -51.41143417, 7.27984285, 0.00000000, 0.00000000, 0.00000000, 116.66497040, 15.18390846, 81.32376099, 1.00000000, 0.00000000, 0.00000000, 0.00000000, -0.14274633, 0.03863274, 0.08280267, 0.00000000, 0.00000000, 0.00000000, 0.00000000
1, 0.4700, 47, 0.33799747, -0.91645563, 0.41527846, 0.38099763, -58.15000153, 9.97168922, 0.00000000, 0.00000000, 0.00000000, 116.51464081, 15.35499287, 80.73847198, 1.00000000, 0.00000000, 0.00000000, 0.00000000, -0.07431330, 0.05371083, 0.01616196, 0.00000000, 0.00000000, 0.00000000, 0.00000000
1, 0.4800, 48, 0.17648095, -0.98776776, 0.37706167, 3.83426857, -52.93781281, 8.32845211, 0.00000000, 0.00000000, 0.00000000, 116.41188812, 15.51634884, 80.20832825, 1.00000000, 0.00000000, 0.00000000, 0.00000000, 0.09005868, 0.12483492, 0.05224340, 0.00000000, 0.00000000, 0.00000000, 0.00000000
1, 0.4900, 49, 0.12617554, -1.00093162, 0.36812896, -1.04973280, -45.49642181, 7.86348915, 0.00000000, 0.00000000, 0.00000000, 116.27794647, 15.64782238, 79.74884033, 1.00000000, 0.00000000, 0.00000000, 0.00000000, 0.14275569, 0.13771488, 0.05910879, 0.00000000, 0.00000000, 0.00000000, 0.00000000
1, 0.5000, 50, 0.14150465, -0.96365571, 0.37345120, -3.19567156, -34.45473099, 5.09756994, 0.00000000, 0.00000000, 0.00000000, 116.15278625, 15.75428200, 79.40435028, 1.00000000, 0.00000000, 0.00000000, 0.00000000, 0.12937067, 0.09989876, 0.05146050, 0.00000000, 0.00000000, 0.00000000, 0.00000000
1, 0.5100, 51, 0.13308536, -0.95595944, 0.29284143, -0.02800347, -23.71606255, 1.47558045, 0.00000000, 0.00000000, 0.00000000, 115.91169739, 15.64929867, 78.68459320, 1.00000000, 0.00000000, 0.00000000, 0.00000000, 0.13855720, 0.09144710, 0.13003585, 0.00000000, 0.00000000, 0.00000000, 0.00000000
1, 0.5200, 52, 0.19261019, -0.93011642, 0.33351541, -0.54182309, -12.47862720, -0.10056525, 0.00000000, 0.00000000, 0.00000000, 115.87490845, 15.70469856, 78.56845856, 1.00000000, 0.00000000, 0.00000000, 0.00000000, 0.07780093, 0.06397931, 0.08682286, 0.00000000, 0.00000000, 0.00000000, 0.00000000
1, 0.5300, 53, 0.27308655, -0.90859586, 0.28935590, -0.81176913, 1.49472272, -3.93983030, 0.00000000, 0.00000000, 0.00000000, 115.87542725, 15.73363113, 78.60029602, 1.00000000, 0.00000000, 0.00000000, 0.00000000, -0.00210298, 0.04248314, 0.13066375, 0.00000000, 0.00000000, 0.00000000, 0.00000000
1, 0.5400, 54, 0.24085034, -0.91350949, 0.30073625, 1.87900305, 6.99383593, -4.22291803, 0.00000000, 0.00000000, 0.00000000, 115.91714478, 15.74108505, 78.68482208, 1.00000000, 0.00000000, 0.00000000, 0.00000000, 0.03043091, 0.04768600, 0.11968748, 0.00000000, 0.00000000, 0.00000000, 0.00000000
1, 0.5500, 55, 0.30319291, -0.89306700, 0.32589337, 5.68107939, 4.18272066, -3.97011209, 0.00000000, 0.00000000, 0.00000000, 115.98944855, 15.75848675, 78.74195099, 1.00000000, 0.00000000, 0.00000000, 0.00000000, -0.03176385, 0.02771333, 0.09540124, 0.00000000, 0.00000000, 0.00000000, 0.00000000
1, 0.5600, 56, 0.19175453, -0.93353516, 0.29036915, 11.57149029, -8.24214268, -5.92110538, 0.00000000, 0.00000000, 0.00000000, 115.97700500, 15.70907974, 78.34127045, 1.00000000, 0.00000000, 0.00000000, 0.00000000, 0.08008464, 0.06879446, 0.13191760, 0.00000000, 0.00000000, 0.00000000, 0.00000000
1, 0.5700, 57, 0.12537830, -0.91991252, 0.32372731, 8.70601559, -16.32006645, -7.87117672, 0.00000000, 0.00000000, 0.00000000, 116.03237152, 15.85138035, 78.22471619, 1.00000000, 0.00000000, 0.00000000, 0.00000000, 0.14679947, 0.05514230, 0.09828109, 0.00000000, 0.00000000, 0.00000000, 0.00000000
1, 0.5800, 58, 0.14910012, -0.88103986, 0.30551398, 16.45883942, -22.63778305, -14.27024841, 0.00000000, 0.00000000, 0.00000000, 116.15677643, 16.07908440, 78.07853699, 1.00000000, 0.00000000, 0.00000000, 0.00000000, 0.12629439, 0.01775090, 0.11743795, 0.00000000, 0.00000000, 0.00000000, 0.00000000
1, 0.5900, 59, 0.05873745, -0.88871485, 0.26182571, 20.38719940, -25.63378143, -24.64315605, 0.00000000, 0.00000000, 0.00000000, 116.32543945, 16.41345787, 77.95258331, 1.00000000, 0.00000000, 0.00000000, 0.00000000, 0.22158696, 0.02790204, 0.16292836, 0.00000000, 0.00000000, 0.00000000, 0.00000000
1, 0.6000, 60, -0.00608428, -0.85592395, 0.32341480, 15.82218361, -20.09486580, -35.09146881, 0.00000000, 0.00000000, 0.00000000, 116.47660828, 16.81708908, 77.92761230, 1.00000000, 0.00000000, 0.00000000, 0.00000000, 0.29280752, -0.00202896, 0.10285060, 0.00000000, 0.00000000, 0.00000000, 0.00000000
1, 0.6100, 61, 0.02289513, -0.82462215, 0.31011236, 16.98477554, -13.00200939, -46.04654312, 0.00000000, 0.00000000, 0.00000000, 116.63774872, 17.19311714, 77.73721313, 1.00000000, 0.00000000, 0.00000000, 0.00000000, 0.27082670, -0.03019975, 0.11767619, 0.00000000, 0.00000000, 0.00000000, 0.00000000
1, 0.6200, 62, 0.02933331, -0.84611148, 0.29269964, 16.85323143, -8.51905823, -56.24658966, 0.00000000, 0.00000000, 0.00000000, 116.86206055, 17.73370361, 77.92289734, 1.00000000, 0.00000000, 0.00000000, 0.00000000, 0.27183092, -0.00519596, 0.13691351, 0.00000000, 0.00000000, 0.00000000, 0.00000000
1, 0.6300, 63, 0.13985556, -0.86050332, 0.32114127, 15.90543175, 0.41284370, -63.74182129, 0.00000000, 0.00000000, 0.00000000, 117.11647797, 18.29981232, 78.23095703, 1.00000000, 0.00000000, 0.00000000, 0.00000000, 0.17056522, 0.01365201, 0.11068343, 0.00000000, 0.00000000, 0.00000000, 0.00000000
1, 0.6400, 64, 0.18775260, -0.93759602, 0.30701017, 13.48201561, 4.82775116, -73.26714325, 0.00000000, 0.00000000, 0.00000000, 117.37873840, 18.92904282, 78.63026428, 1.00000000, 0.00000000, 0.00000000, 0.00000000, 0.13266969, 0.09571698, 0.12722296, 0.00000000, 0.00000000, 0.00000000, 0.00000000
1, 0.6500, 65, 0.24736497, -1.00341535, 0.30988470, 11.79405117, 1.44050527, -79.20113373, 0.00000000, 0.00000000, 0.00000000, 117.62903595, 19.62490082, 79.03128052, 1.00000000, 0.00000000, 0.00000000, 0.00000000, 0.08411577, 0.16681352, 0.12623987, 0.00000000, 0.00000000, 0.00000000, 0.00000000
1, 0.6600, 66, 0.25919974, -1.09139574, 0.28226009, 13.07978630, -2.70301914, -84.20048523, 0.00000000, 0.00000000, 0.00000000, 117.84162140, 20.35139656, 79.37765503, 1.00000000, 0.00000000, 0.00000000, 0.00000000, 0.08423012, 0.26047778, 0.15548125, 0.00000000, 0.00000000, 0.00000000, 0.00000000
1, 0.6700, 67, 0.22791220, -1.14133191, 0.28678426, 11.89419174, -7.89565897, -87.57201385, 0.00000000, 0.00000000, 0.00000000, 118.08975220, 21.16187477, 79.74229431, 1.00000000, 0.00000000, 0.00000000, 0.00000000, 0.12806943, 0.31622544, 0.15191737, 0.00000000, 0.00000000, 0.00000000, 0.00000000
1, 0.6800, 68, 0.26229438, -1.10844910, 0.29858601, 11.42671871, -13.87424183, -91.88908386, 0.00000000, 0.00000000, 0.00000000, 118.32752228, 22.03722954, 80.07792664, 1.00000000, 0.00000000, 0.00000000, 0.00000000, 0.10751045, 0.28990984, 0.14097984, 0.00000000, 0.00000000, 0.00000000, 0.00000000
1, 0.6900, 69, 0.23293528, -1.09406185, 0.26394606, 12.64036369, -17.10109520, -98.01418304, 0.00000000, 0.00000000, 0.00000000, 118.58510590, 22.98044395, 80.42073822, 1.00000000, 0.00000000, 0.00000000, 0.00000000, 0.15168262, 0.28277197, 0.17634338, 0.00000000, 0.00000000, 0.00000000, 0.00000000
1, 0.7000, 70, 0.16123730, -1.08335352, 0.28291637, 9.13398933, -20.84160042, -104.49005127, 0.00000000, 0.00000000, 0.00000000, 118.81510162, 23.99704170, 80.76860809, 1.00000000, 0.00000000, 0.00000000, 0.00000000, 0.23929676, 0.27988881, 0.15752769, 0.00000000, 0.00000000, 0.00000000, 0.00000000
1, 0.7100, 71, 0.20282793, -1.05338454, 0.28191459, 9.13162231, -20.39164162, -111.16939545, 0.00000000, 0.00000000, 0.00000000, 119.02384949, 25.02826309, 81.06697845, 1.00000000, 0.00000000, 0.00000000, 0.00000000, 0.21426126, 0.25816020, 0.15811823, 0.00000000, 0.00000000, 0.00000000, 0.00000000
1, 0.7200, 72, 0.20682530, -1.10448158, 0.24275248, 13.53567028, -25.23689651, -117.80762482, 0.00000000, 0.00000000, 0.00000000, 119.32880402, 26.17991257, 81.45948029, 1.00000000, 0.00000000, 0.00000000, 0.00000000, 0.22749586, 0.31830338, 0.19685516, 0.00000000, 0.00000000, 0.00000000, 0.00000000
1, 0.7300, 73, 0.32132635, -1.11190522, 0.26568440, 12.18779373, -31.33961487, -122.57033539, 0.00000000, 0.00000000, 0.00000000, 119.61732483, 27.40120125, 81.82939148, 1.00000000, 0.00000000, 0.00000000, 0.00000000, 0.13168275, 0.33605945, 0.17341530, 0.00000000, 0.00000000, 0.00000000, 0.00000000
1, 0.7400, 74, 0.32008335, -1.15541983, 0.18806848, 14.65079689, -37.95988083, -127.31579590, 0.00000000, 0.00000000, 0.00000000, 119.92496490, 28.69482994, 82.17232513, 1.00000000, 0.00000000, 0.00000000, 0.00000000, 0.15252566, 0.39077425, 0.25001341, 0.00000000, 0.00000000, 0.00000000, 0.00000000
1, 0.7500, 75, 0.30139852, -1.18203175, 0.15977770, 15.33939362, -48.28464890, -128.70588684, 0.00000000, 0.00000000, 0.00000000, 120.20594788, 30.05063057, 82.43273163, 1.00000000, 0.00000000, 0.00000000, 0.00000000, 0.19159204, 0.42936569, 0.27658069, 0.00000000, 0.00000000, 0.00000000, 0.00000000
1, 0.7600, 76, 0.33149621, -1.17363083, 0.07632838, 15.79017830, -62.68836212, -130.80613708, 0.00000000, 0.00000000, 0.00000000, 120.37687683, 31.47287369, 82.53914642, 1.00000000, 0.00000000, 0.00000000, 0.00000000, 0.18260401, 0.43339691, 0.35692134, 0.00000000, 0.00000000, 0.00000000, 0.00000000
1, 0.7700, 77, 0.26497355, -1.20833313, -0.00381778, 17.69815063, -82.05010986, -132.80766296, 0.00000000, 0.00000000, 0.00000000, 120.53203583, 33.03361511, 82.49874115, 1.00000000, 0.00000000, 0.00000000, 0.00000000, 0.27146241, 0.48103845, 0.43185931, 0.00000000, 0.00000000, 0.00000000, 0.00000000
1, 0.7800, 78, 0.23334585, -1.23151553, 0.06207843, 18.79654312, -91.92839050, -132.88505554, 0.00000000, 0.00000000, 0.00000000, 120.64273834, 34.64533234, 82.36008453, 1.00000000, 0.00000000, 0.00000000, 0.00000000, 0.32635880, 0.51827908, 0.35977712, 0.00000000, 0.00000000, 0.00000000, 0.00000000
1, 0.7900, 79, 0.14983916, -1.30874515, 0.05947868, 20.00063896, -99.76658630, -139.72938538, 0.00000000, 0.00000000, 0.00000000, 120.73940277, 36.35613251, 82.18227386, 1.00000000, 0.00000000, 0.00000000, 0.00000000, 0.43373203, 0.61055881, 0.35514092, 0.00000000, 0.00000000, 0.00000000, 0.00000000
1, 0.8000, 80, -0.13558432, -1.47067106, 0.13255313, 22.92034912, -112.33835602, -147.03549194, 0.00000000, 0.00000000, 0.00000000, 120.80632019, 38.19424820, 81.91465759, 1.00000000, 0.00000000, 0.00000000, 0.00000000, 0.74428165, 0.78910667, 0.27349594, 0.00000000, 0.00000000, 0.00000000, 0.00000000
1, 0.8100, 81, -0.21183521, -1.50621617, 0.24442391, 27.48754311, -126.66791534, -150.69015503, 0.00000000, 0.00000000, 0.00000000, 120.80212402, 40.09310532, 81.37071991, 1.00000000, 0.00000000, 0.00000000, 0.00000000, 0.84633207, 0.84246182, 0.15150115, 0.00000000, 0.00000000, 0.00000000, 0.00000000
1, 0.8200, 82, -0.20393293, -1.49348938, 0.28305545, 36.92706680, -144.54760742, -158.97859192, 0.00000000, 0.00000000, 0.00000000, 120.79750061, 42.19878769, 80.80269623, 1.00000000, 0.00000000, 0.00000000, 0.00000000, 0.86518371, 0.84918618, 0.10101900, 0.00000000, 0.00000000, 0.00000000, 0.00000000
1, 0.8300, 83, -0.10627532, -1.47904682, 0.40134397, 47.07997894, -153.82852173, -165.68696594, 0.00000000, 0.00000000, 0.00000000, 120.82256317, 44.40967560, 80.15296936, 1.00000000, 0.00000000, 0.00000000, 0.00000000, 0.79550004, 0.85681987, -0.03028426, 0.00000000, 0.00000000, 0.00000000, 0.00000000
1, 0.8400, 84, 0.10965229, -1.52524650, 0.45536107, 61.17414856, -154.63317871, -174.33856201, 0.00000000, 0.00000000, 0.00000000, 120.99486542, 46.69958115, 79.53669739, 1.00000000, 0.00000000, 0.00000000, 0.00000000, 0.60769463, 0.92755312, -0.09751961, 0.00000000, 0.00000000, 0.00000000, 0.00000000
1, 0.8500, 85, 0.26249683, -1.71628869, 0.40193301, 68.56642914, -134.38783264, -182.76493835, 0.00000000, 0.00000000, 0.00000000, 121.45849609, 48.95890045, 79.23613739, 1.00000000, 0.00000000, 0.00000000, 0.00000000, 0.48198161, 1.14566243, -0.05550176, 0.00000000, 0.00000000, 0.00000000, 0.00000000
1, 0.8600, 86, 0.31759319, -1.92096972, 0.36230838, 63.52757645, -120.30170441, -184.12962341, 0.00000000, 0.00000000, 0.00000000, 122.01592255, 51.13912964, 79.09528351, 1.00000000, 0.00000000, 0.00000000, 0.00000000, 0.45210952, 1.37856305, -0.02580061, 0.00000000, 0.00000000, 0.00000000, 0.00000000
1, 0.8700, 87, 0.38167396, -1.93414962, 0.48652342, 45.38338852, -109.66796875, -178.18243408, 0.00000000, 0.00000000, 0.00000000, 122.50165558, 53.23109436, 79.13476562, 1.00000000, 0.00000000, 0.00000000, 0.00000000, 0.41127220, 1.41928124, -0.16088024, 0.00000000, 0.00000000, 0.00000000, 0.00000000
1, 0.8800, 88, 0.32595888, -1.76708090, 0.53154123, 22.40097237, -73.61111450, -171.63136292, 0.00000000, 0.00000000, 0.00000000, 123.15851593, 55.07224655, 79.66802216, 1.00000000, 0.00000000, 0.00000000, 0.00000000, 0.48705101, 1.27826011, -0.21533433, 0.00000000, 0.00000000, 0.00000000, 0.00000000
1, 0.8900, 89, 0.37011832, -1.68970680, 0.35876045, 13.89434433, -64.55184937, -168.98803711, 0.00000000, 0.00000000, 0.00000000, 123.88202667, 56.83760071, 80.37360382, 1.00000000, 0.00000000, 0.00000000, 0.00000000, 0.46064210, 1.22619689, -0.05067255, 0.00000000, 0.00000000, 0.00000000, 0.00000000
1, 0.9000, 90, 0.41710141, -1.58795142, 0.31688443, 19.77836990, -79.83073425, -159.05567932, 0.00000000, 0.00000000, 0.00000000, 124.44759369, 58.60203171, 80.80895996, 1.00000000, 0.00000000, 0.00000000, 0.00000000, 0.43034828, 1.14915204, -0.01820818, 0.00000000, 0.00000000, 0.00000000, 0.00000000
1, 0.9100, 91, 0.47942445, -1.42716479, 0.36557686, 20.63151741, -76.17308807, -151.74334717, 0.00000000, 0.00000000, 0.00000000, 125.01893616, 60.23727417, 81.12250519, 1.00000000, 0.00000000, 0.00000000, 0.00000000, 0.38352305, 1.01233923, -0.07717121, 0.00000000, 0.00000000, 0.00000000, 0.00000000
1, 0.9200, 92, 0.69071424, -1.23915100, 0.30191118, 20.29296112, -67.18197632, -140.71372986, 0.00000000, 0.00000000, 0.00000000, 125.70261383, 61.77363968, 81.67214203, 1.00000000, 0.00000000, 0.00000000, 0.00000000, 0.18563697, 0.84680736, -0.02259514, 0.00000000, 0.00000000, 0.00000000, 0.00000000
1, 0.9300, 93, 0.70933521, -1.09949994, 0.34443828, 16.16830254, -77.33943176, -117.75412750, 0.00000000, 0.00000000, 0.00000000, 125.98377228, 63.18111420, 81.80762482, 1.00000000, 0.00000000, 0.00000000, 0.00000000, 0.17897573, 0.72769296, -0.07496284, 0.00000000, 0.00000000, 0.00000000, 0.00000000
1, 0.9400, 94, 0.37578559, -1.01667440, 0.29271936, 6.48208046, -102.14694977, -76.78752136, 0.00000000, 0.00000000, 0.00000000, 125.27057648, 64.40049744, 80.94141388, 1.00000000, 0.00000000, 0.00000000, 0.00000000, 0.52271086, 0.65991277, -0.03700870, 0.00000000, 0.00000000, 0.00000000, 0.00000000
1, 0.9500, 95, 0.18177956, -0.85550803, 0.19129036, -22.19552994, -94.45014191, -36.60519028, 0.00000000, 0.00000000, 0.00000000, 123.83602905, 65.23786163, 79.60187531, 1.00000000, 0.00000000, 0.00000000, 0.00000000, 0.72423923, 0.50626010, 0.04773302, 0.00000000, 0.00000000, 0.00000000, 0.00000000
1, 0.9600, 96, 0.23445874, -0.69805878, 0.10611755, -11.82306385, -53.73530197, -4.00120592, 0.00000000, 0.00000000, 0.00000000, 122.54101562, 65.35599518, 77.86902618, 1.00000000, 0.00000000, 0.00000000, 0.00000000, 0.67500603, 0.34958994, 0.12067527, 0.00000000, 0.00000000, 0.00000000, 0.00000000
1, 0.9700, 97, 0.32177570, -0.64682961, 0.10126822, 13.47980690, -7.52376890, 26.10495567, 0.00000000, 0.00000000, 0.00000000, 122.23399353, 65.17580414, 77.38279724, 1.00000000, 0.00000000, 0.00000000, 0.00000000, 0.58661366, 0.29345068, 0.12222773, 0.00000000, 0.00000000, 0.00000000, 0.00000000
1, 0.9800, 98, 0.36235285, -0.58149779, 0.07231560, 7.82472134, 33.37161636, 54.51496124, 0.00000000, 0.00000000, 0.00000000, 122.29280090, 64.53665924, 77.36158752, 1.00000000, 0.00000000, 0.00000000, 0.00000000, 0.54260415, 0.22161469, 0.15467414, 0.00000000, 0.00000000, 0.00000000, 0.00000000
1, 0.9900, 99, 0.37909433, -0.46874467, 0.03680193, -1.04371989, 57.76194763, 78.88488770, 0.00000000, 0.00000000, 0.00000000, 122.41751099, 63.56115341, 77.51186371, 1.00000000, 0.00000000, 0.00000000, 0.00000000, 0.51928318, 0.09780329, 0.19834952, 0.00000000, 0.00000000, 0.00000000, 0.00000000
1, 1.0000, 100, 0.37161735, -0.38768235, 0.02810660, -1.18440545, 69.47575378, 99.35874176, 0.00000000, 0.00000000, 0.00000000, 122.50942993, 62.34990692, 77.62821960, 1.00000000, 0.00000000, 0.00000000, 0.00000000, 0.51794708, 0.00237841, 0.21720824, 0.00000000, 0.00000000, 0.00000000, 0.00000000
1, 1.0100, 101, 0.36010364, -0.33480427, 0.03488369, -0.25933093, 71.39539337, 121.97896576, 0.00000000, 0.00000000, 0.00000000, 122.37586212, 60.92124557, 77.46612549, 1.00000000, 0.00000000, 0.00000000, 0.00000000, 0.51852334, -0.06808356, 0.22132942, 0.00000000, 0.00000000, 0.00000000, 0.00000000
1, 1.0200, 102, 0.31425777, -0.29876855, 0.07265610, -8.49297142, 78.87774658, 144.89933777, 0.00000000, 0.00000000, 0.00000000, 122.10647583, 59.27490234, 77.25328064, 1.00000000, 0.00000000, 0.00000000, 0.00000000, 0.55096370, -0.12534641, 0.19464663, 0.00000000, 0.00000000, 0.00000000, 0.00000000
1, 1.0300, 103, 0.30971417, -0.26106986, 0.05714533, -18.56846809, 82.64949799, 167.93855286, 0.00000000, 0.00000000, 0.00000000, 121.62136841, 57.41226578, 76.90130615, 1.00000000, 0.00000000, 0.00000000, 0.00000000, 0.53945947, -0.18761943, 0.22123507, 0.00000000, 0.00000000, 0.00000000, 0.00000000
1, 1.0400, 104, 0.34227434, -0.26030457, 0.05466313, -22.90159225, 85.01295471, 188.86091614, 0.00000000, 0.00000000, 0.00000000, 121.00836945, 55.35691452, 76.44012451, 1.00000000, 0.00000000, 0.00000000, 0.00000000, 0.48811626, -0.21599387, 0.23427519, 0.00000000, 0.00000000, 0.00000000, 0.00000000
1, 1.0500, 105, 0.38775650, -0.28180924, 0.06715541, -27.13950348, 90.86774445, 209.36834717, 0.00000000, 0.00000000, 0.00000000, 120.33911133, 53.09261703, 75.94984436, 1.00000000, 0.00000000, 0.00000000, 0.00000000, 0.42078665, -0.22464262, 0.23223680, 0.00000000, 0.00000000, 0.00000000, 0.00000000
1, 1.0600, 106, 0.42543057, -0.30809399, 0.04579618, -31.72146034, 95.98098755, 228.99624634, 0.00000000, 0.00000000, 0.00000000, 119.60165405, 50.63713074, 75.48459625, 1.00000000, 0.00000000, 0.00000000, 0.00000000, 0.35790420, -0.23071876, 0.26390636, 0.00000000, 0.00000000, 0.00000000, 0.00000000
1, 1.0700, 107, 0.40445980, -0.35166508, 0.09110565, -33.81115341, 96.07656097, 252.50682068, 0.00000000, 0.00000000, 0.00000000, 118.80615234, 47.96424484, 74.88131714, 1.00000000, 0.00000000, 0.00000000, 0.00000000, 0.34994498, -0.22175005, 0.22809567, 0.00000000, 0.00000000, 0.00000000, 0.00000000
1, 1.0800, 108, 0.36962670, -0.40562025, 0.10066195, -36.50406265, 96.36687469, 269.90237427, 0.00000000, 0.00000000, 0.00000000, 117.98138428, 45.13162994, 74.24783325, 1.00000000, 0.00000000, 0.00000000, 0.00000000, 0.35212624, -0.20372441, 0.22731736, 0.00000000, 0.00000000, 0.00000000, 0.00000000
1, 1.0900, 109, 0.34969282, -0.45729178, 0.13283001, -40.32773972, 92.62951660, 285.63681030, 0.00000000, 0.00000000, 0.00000000, 117.10143280, 42.17066574, 73.55741882, 1.00000000, 0.00000000, 0.00000000, 0.00000000, 0.33594555, -0.18867499, 0.20244023, 0.00000000, 0.00000000, 0.00000000, 0.00000000
1, 1.1000, 110, 0.35431069, -0.50403535, 0.13589846, -46.30502319, 93.15512085, 299.36553955, 0.00000000, 0.00000000, 0.00000000, 116.20075226, 39.07719803, 72.88513184, 1.00000000, 0.00000000, 0.00000000, 0.00000000, 0.29167137, -0.17874819, 0.20508955, 0.00000000, 0.00000000, 0.00000000, 0.00000000
1, 1.1100, 111, 0.38018507, -0.54516023, 0.14294773, -47.58884811, 85.11940765, 310.73095703, 0.00000000, 0.00000000, 0.00000000, 115.26845551, 35.90745163, 72.16014862, 1.00000000, 0.00000000, 0.00000000, 0.00000000, 0.22297631, -0.17389949, 0.20186499, 0.00000000, 0.00000000, 0.00000000, 0.00000000
1, 1.1200, 112, 0.40511119, -0.60556620, 0.18104130, -46.74449539, 77.37078857, 322.00375366, 0.00000000, 0.00000000, 0.00000000, 114.35873413, 32.65992737, 71.37485504, 1.00000000, 0.00000000, 0.00000000, 0.00000000, 0.15234566, -0.14856967, 0.16573644, 0.00000000, 0.00000000, 0.00000000, 0.00000000
1, 1.1300, 113, 0.43924075, -0.67392713, 0.19642033, -45.64308548, 73.49987030, 333.49404907, 0.00000000, 0.00000000, 0.00000000, 113.49360657, 29.31343079, 70.58114624, 1.00000000, 0.00000000, 0.00000000, 0.00000000, 0.06937800, -0.11362824, 0.15111649, 0.00000000, 0.00000000, 0.00000000, 0.00000000
1, 1.1400, 114, 0.48912787, -0.77370715, 0.21096633, -42.15478516, 72.66490173, 343.10101318, 0.00000000, 0.00000000, 0.00000000, 112.71760559, 25.87246513, 69.81644440, 1.00000000, 0.00000000, 0.00000000, 0.00000000, -0.03256340, -0.04511130, 0.13658275, 0.00000000, 0.00000000, 0.00000000, 0.00000000
1, 1.1500, 115, 0.54421002, -0.90976155, 0.21627860, -38.12873459, 79.06107330, 346.36453247, 0.00000000, 0.00000000, 0.00000000, 112.07217407, 22.36890411, 69.17170715, 1.00000000, 0.00000000, 0.00000000, 0.00000000, -0.14255598, 0.06263971, 0.13122398, 0.00000000, 0.00000000, 0.00000000, 0.00000000
1, 1.1600, 116, 0.65036434, -1.05361938, 0.22266038, -36.00395966, 88.24966431, 345.27441406, 0.00000000, 0.00000000, 0.00000000, 111.52725220, 18.85019493, 68.74882507, 1.00000000, 0.00000000, 0.00000000, 0.00000000, -0.30568117, 0.18173191, 0.12476629, 0.00000000, 0.00000000, 0.00000000, 0.00000000
1, 1.1700, 117, 0.77282757, -1.17486823, 0.26840186, -31.88479805, 97.24946594, 341.88275146, 0.00000000, 0.00000000, 0.00000000, 111.10443115, 15.31182384, 68.39682770, 1.00000000, 0.00000000, 0.00000000, 0.00000000, -0.48654819, 0.28203434, 0.07885934, 0.00000000, 0.00000000, 0.00000000, 0.00000000
1, 1.1800, 118, 0.89414883, -1.26642036, 0.35840198, -25.44300461, 101.90103912, 334.21160889, 0.00000000, 0.00000000, 0.00000000, 110.79103851, 11.82634735, 68.14700317, 1.00000000, 0.00000000, 0.00000000, 0.00000000, -0.66709280, 0.35675511, -0.01103284, 0.00000000, 0.00000000, 0.00000000, 0.00000000
1, 1.1900, 119, 1.01862621, -1.32630908, 0.43386099, -21.53061485, 101.45787048, 317.25430298, 0.00000000, 0.00000000, 0.00000000, 110.54499817, 8.49994755, 67.97378540, 1.00000000, 0.00000000, 0.00000000, 0.00000000, -0.84963369, 0.40404999, -0.08655855, 0.00000000, 0.00000000, 0.00000000, 0.00000000
1, 1.2000, 120, 1.21592629, -1.32828665, 0.46630335, -26.75718117, 90.83837128, 291.10186768, 0.00000000, 0.00000000, 0.00000000, 110.25759888, 5.45490789, 67.80885315, 1.00000000, 0.00000000, 0.00000000, 0.00000000, -1.10150123, 0.39708021, -0.12055101, 0.00000000, 0.00000000, 0.00000000, 0.00000000
1, 1.2100, 121, 1.36866856, -1.25648427, 0.58721536, -33.42110825, 82.64725494, 260.62081909, 0.00000000, 0.00000000, 0.00000000, 109.91403961, 2.74792457, 67.78012848, 1.00000000, 0.00000000, 0.00000000, 0.00000000, -1.30362606, 0.31915763, -0.24513859, 0.00000000, 0.00000000, 0.00000000, 0.00000000
1, 1.2200, 122, 1.45465529, -1.11940908, 0.60022873, -47.13815689, 96.05266571, 224.81100464, 0.00000000, 0.00000000, 0.00000000, 109.44567871, 0.30782628, 67.92706299, 1.00000000, 0.00000000, 0.00000000, 0.00000000, -1.43369222, 0.17778650, -0.26442510, 0.00000000, 0.00000000, 0.00000000, 0.00000000
1, 1.2300, 123, 1.60835779, -0.99054849, 0.62319207, -39.13484955, 95.71678925, 184.25103760, 0.00000000, 0.00000000, 0.00000000, 109.05029297, -1.74709570, 68.22380829, 1.00000000, 0.00000000, 0.00000000, 0.00000000, -1.62596726, 0.04625267, -0.29471761, 0.00000000, 0.00000000, 0.00000000, 0.00000000
1, 1.2400, 124, 1.74398363, -0.93762243, 0.72739559, -26.97766685, 81.32641602, 140.35968018, 0.00000000, 0.00000000, 0.00000000, 108.76647949, -3.33851552, 68.53846741, 1.00000000, 0.00000000, 0.00000000, 0.00000000, -1.79250598, -0.00747462, -0.40431747, 0.00000000, 0.00000000, 0.00000000, 0.00000000
1, 1.2500, 125, 1.93917572, -0.83942246, 0.87222826, -29.35644722, 54.48283386, 96.00946045, 0.00000000, 0.00000000, 0.00000000, 108.45867920, -4.42233181, 68.74857330, 1.00000000, 0.00000000, 0.00000000, 0.00000000, -2.00984836, -0.10608359, -0.55442905, 0.00000000, 0.00000000, 0.00000000, 0.00000000
1, 1.2600, 126, 1.96801138, -0.65342569, 0.92218786, -34.53432846, 40.78182602, 58.06063843, 0.00000000, 0.00000000, 0.00000000, 108.10064697, -5.06946754, 69.07523346, 1.00000000, 0.00000000, 0.00000000, 0.00000000, -2.05283356, -0.29293051, -0.61041319, 0.00000000, 0.00000000, 0.00000000, 0.00000000
1, 1.2700, 127, 1.79801023, -0.48036566, 0.75848007, -21.24216270, 23.50084114, 24.97079659, 0.00000000, 0.00000000, 0.00000000, 107.87479401, -5.37950706, 69.22227478, 1.00000000, 0.00000000, 0.00000000, 0.00000000, -1.89025807, -0.46697468, -0.45183036, 0.00000000, 0.00000000, 0.00000000, 0.00000000
1, 1.2800, 128, 1.68363369, -0.51588881, 0.75746304, 13.26150608, 10.36873150, -12.44205570, 0.00000000, 0.00000000, 0.00000000, 107.99454498, -5.29301453, 69.35987854, 1.00000000, 0.00000000, 0.00000000, 0.00000000, -1.77700591, -0.43142653, -0.45107397, 0.00000000, 0.00000000, 0.00000000, 0.00000000
1, 1.2900, 129, 1.63836312, -0.57024747, 0.78813607, 31.43380356, 7.52205992, -51.38867188, 0.00000000, 0.00000000, 0.00000000, 108.28829956, -4.82812691, 69.59243011, 1.00000000, 0.00000000, 0.00000000, 0.00000000, -1.72604299, -0.37617406, -0.47734660, 0.00000000, 0.00000000, 0.00000000, 0.00000000
1, 1.3000, 130, 1.67403996, -0.50386649, 0.68624216, 31.61805534, 2.57133651, -82.93026733, 0.00000000, 0.00000000, 0.00000000, 108.58215332, -4.04950571, 69.87999725, 1.00000000, 0.00000000, 0.00000000, 0.00000000, -1.75012887, -0.44187987, -0.37039983, 0.00000000, 0.00000000, 0.00000000, 0.00000000
1, 1.3100, 131, 1.30446172, -0.60817719, 0.44823018, 42.40248108, 0.56986886, -111.88948059, 0.00000000, 0.00000000, 0.00000000, 108.98090363, -2.89213371, 70.62814331, 1.00000000, 0.00000000, 0.00000000, 0.00000000, -1.36370838, -0.33667243, -0.12619005, 0.00000000, 0.00000000, 0.00000000, 0.00000000
1, 1.3200, 132, -0.22846645, -1.48006511, -0.24308410, 66.33538818, -65.02498627, -133.35972595, 0.00000000, 0.00000000, 0.00000000, 109.64767456, -1.41714644, 70.45513153, 1.00000000, 0.00000000, 0.00000000, 0.00000000, 0.19344872, 0.53724486, 0.57443726, 0.00000000, 0.00000000, 0.00000000, 0.00000000
1, 1.3300, 133, -0.89362782, -3.31371498, -0.43160963, 72.14543152, -160.40975952, -78.89057159, 0.00000000, 0.00000000, 0.00000000, 110.38423157, -0.12667111, 69.21710205, 1.00000000, 0.00000000, 0.00000000, 0.00000000, 0.88458002, 2.37484598, 0.77569962, 0.00000000, 0.00000000, 0.00000000, 0.00000000
1, 1.3400, 134, -0.69901299, -2.21534109, 0.02468020, 2.62022305, 31.90234566, -96.89384460, 0.00000000, 0.00000000, 0.00000000, 110.41558075, 0.66882414, 69.85552216, 1.00000000, 0.00000000, 0.00000000, 0.00000000, 0.70439637, 1.27881277, 0.32584202, 0.00000000, 0.00000000, 0.00000000, 0.00000000
1, 1.3500, 135, 0.55266511, -0.79545826, 0.07378658, -19.99423409, 184.46995544, -179.02430725, 0.00000000, 0.00000000, 0.00000000, 110.26588440, 1.71063995, 72.20619965, 1.00000000, 0.00000000, 0.00000000, 0.00000000, -0.52944267, -0.14265513, 0.27172571, 0.00000000, 0.00000000, 0.00000000, 0.00000000
1, 1.3600, 136, 1.08921683, -0.70939559, 0.84457165, 84.94786072, 147.17460632, -183.67080688, 0.00000000, 0.00000000, 0.00000000, 111.20713806, 2.93823075, 74.31948090, 1.00000000, 0.00000000, 0.00000000, 0.00000000, -1.04671454, -0.22436962, -0.48930687, 0.00000000, 0.00000000, 0.00000000, 0.00000000
1, 1.3700, 137, 0.90302002, -0.76639932, 0.80122232, 71.78005981, -4.30521154, -173.08108521, 0.00000000, 0.00000000, 0.00000000, 111.96153259, 4.56443119, 74.91802979, 1.00000000, 0.00000000, 0.00000000, 0.00000000, -0.83454734, -0.16057122, -0.43249816, 0.00000000, 0.00000000, 0.00000000, 0.00000000
1, 1.3800, 138, 0.48427847, -0.68035913, 0.19595309, 46.66583252, -22.19231796, -157.41030884, 0.00000000, 0.00000000, 0.00000000, 112.46595764, 6.10504484, 75.31008911, 1.00000000, 0.00000000, 0.00000000, 0.00000000, -0.38731590, -0.24040042, 0.18185990, 0.00000000, 0.00000000, 0.00000000, 0.00000000
1, 1.3900, 139, 0.71956140, -0.71132743, 0.21302997, 19.43737793, 30.67601204, -137.74717712, 0.00000000, 0.00000000, 0.00000000, 112.75610352, 7.25877476, 76.12819672, 1.00000000, 0.00000000, 0.00000000, 0.00000000, -0.60034752, -0.20503682, 0.16911176, 0.00000000, 0.00000000, 0.00000000, 0.00000000
1, 1.4000, 140, 0.70986181, -0.85038126, 0.26722887, 43.44512558, 39.35271835, -112.61745453, 0.00000000, 0.00000000, 0.00000000, 113.29900360, 8.14191341, 76.93751526, 1.00000000, 0.00000000, 0.00000000, 0.00000000, -0.57354414, -0.06107667, 0.12089069, 0.00000000, 0.00000000, 0.00000000, 0.00000000
1, 1.4100, 141, 0.75161433, -1.09953952, 0.17446949, 60.78772736, -4.19719410, -83.89207458, 0.00000000, 0.00000000, 0.00000000, 113.92237854, 8.98854160, 77.51666260, 1.00000000, 0.00000000, 0.00000000, 0.00000000, -0.60125309, 0.19439858, 0.22312975, 0.00000000, 0.00000000, 0.00000000, 0.00000000
1, 1.4200, 142, 0.62710828, -1.10518265, 0.31360748, 28.34168053, -21.34142685, -66.40789795, 0.00000000, 0.00000000, 0.00000000, 114.21826935, 9.68191624, 77.59395599, 1.00000000, 0.00000000, 0.00000000, 0.00000000, -0.46320805, 0.20494911, 0.08975852, 0.00000000, 0.00000000, 0.00000000, 0.00000000
1, 1.4300, 143, 0.47882107, -0.99633479, 0.40264753, 17.17274284, -31.78728676, -53.47996521, 0.00000000, 0.00000000, 0.00000000, 114.37753296, 10.30018234, 77.52315521, 1.00000000, 0.00000000, 0.00000000, 0.00000000, -0.30398464, 0.09907208, 0.00274391, 0.00000000, 0.00000000, 0.00000000, 0.00000000
1, 1.4400, 144, 0.41820002, -0.99178678, 0.42363447, 31.17281914, -46.28119278, -46.98002243, 0.00000000, 0.00000000, 0.00000000, 114.64681244, 10.91963673, 77.29291534, 1.00000000, 0.00000000, 0.00000000, 0.00000000, -0.23273778, 0.09787391, -0.01557499, 0.00000000, 0.00000000, 0.00000000, 0.00000000
1, 1.4500, 145, 0.34566778, -1.02042460, 0.42057425, 29.58759880, -38.77576065, -42.79483414, 0.00000000, 0.00000000, 0.00000000, 114.90857697, 11.47069550, 77.11694336, 1.00000000, 0.00000000, 0.00000000, 0.00000000, -0.15020902, 0.13031325, -0.00888360, 0.00000000, 0.00000000, 0.00000000, 0.00000000
1, 1.4600, 146, 0.23870195, -1.00437558, 0.40586901, 13.53470039, -33.97462845, -41.26430893, 0.00000000, 0.00000000, 0.00000000, 114.99856567, 11.97590542, 76.96424103, 1.00000000, 0.00000000, 0.00000000, 0.00000000, -0.03435430, 0.11705214, 0.00752290, 0.00000000, 0.00000000, 0.00000000, 0.00000000
1, 1.4700, 147, 0.19910765, -0.98604912, 0.38795236, 9.88544369, -25.18276978, -41.11599350, 0.00000000, 0.00000000, 0.00000000, 115.08576202, 12.45498276, 76.90882874, 1.00000000, 0.00000000, 0.00000000, 0.00000000, 0.01361118, 0.10083885, 0.02574797, 0.00000000, 0.00000000, 0.00000000, 0.00000000
1, 1.4800, 148, 0.28748694, -1.01598859, 0.40400916, 12.45435715, -10.56182575, -37.98271179, 0.00000000, 0.00000000, 0.00000000, 115.22516632, 12.84365654, 76.97631073, 1.00000000, 0.00000000, 0.00000000, 0.00000000, -0.06757410, 0.13310045, 0.01089192, 0.00000000, 0.00000000, 0.00000000, 0.00000000
1, 1.4900, 149, 0.32167616, -1.03343093, 0.39624950, 6.81313133, -2.54034948, -37.38161850, 0.00000000, 0.00000000, 0.00000000, 115.32489014, 13.19252300, 77.11661530, 1.00000000, 0.00000000, 0.00000000, 0.00000000, -0.09568975, 0.15270388, 0.01997988, 0.00000000, 0.00000000, 0.00000000, 0.00000000
1, 1.5000, 150, 0.37312385, -0.96757048, 0.42598006, -1.06326389, -2.91130257, -36.67711258, 0.00000000, 0.00000000, 0.00000000, 115.34529877, 13.53647137, 77.25091553, 1.00000000, 0.00000000, 0.00000000, 0.00000000, -0.14121845, 0.08843867, -0.00963346, 0.00000000, 0.00000000, 0.00000000, 0.00000000
1, 1.5100, 151, 0.43687570, -0.92803913, 0.42658707, -1.00714183, -8.09713745, -32.24166107, 0.00000000, 0.00000000, 0.00000000, 115.32453156, 13.97294998, 77.76224518, 1.00000000, 0.00000000, 0.00000000, 0.00000000, -0.19888848, 0.05024163, -0.01086073, 0.00000000, 0.00000000, 0.00000000, 0.00000000
1, 1.5200, 152, 0.40654704, -0.92934841, 0.34360534, 0.92902690, -22.45585632, -25.27748489, 0.00000000, 0.00000000, 0.00000000, 115.30986023, 14.29747200, 77.66437531, 1.00000000, 0.00000000, 0.00000000, 0.00000000, -0.16162461, 0.05293332, 0.07101139, 0.00000000, 0.00000000, 0.00000000, 0.00000000
1, 1.5300, 153, 0.48546681, -0.91373044, 0.34074327, 0.77061409, -34.56859589, -16.47627831, 0.00000000, 0.00000000, 0.00000000, 115.25511169, 14.59409428, 77.41426849, 1.00000000, 0.00000000, 0.00000000, 0.00000000, -0.23534212, 0.03823552, 0.07271069, 0.00000000, 0.00000000, 0.00000000, 0.00000000
1, 1.5400, 154, 0.43081897, -0.91440654, 0.32238725, 1.29340041, -44.70300293, -11.87738323, 0.00000000, 0.00000000, 0.00000000, 115.17489624, 14.89198399, 77.04837799, 1.00000000, 0.00000000, 0.00000000, 0.00000000, -0.17572603, 0.03954747, 0.08937363, 0.00000000, 0.00000000, 0.00000000, 0.00000000
1, 1.5500, 155, 0.26519138, -0.96634132, 0.34513879, 2.40649986, -48.96804810, -10.40136337, 0.00000000, 0.00000000, 0.00000000, 115.09169006, 15.19413376, 76.63508606, 1.00000000, 0.00000000, 0.00000000, 0.00000000, -0.00501440, 0.09213349, 0.06482023, 0.00000000, 0.00000000, 0.00000000, 0.00000000
1, 1.5600, 156, 0.20244975, -0.98813212, 0.35894060, 0.58931541, -46.23883057, -11.43189335, 0.00000000, 0.00000000, 0.00000000, 114.95781708, 15.44628143, 76.13987732, 1.00000000, 0.00000000, 0.00000000, 0.00000000, 0.06261903, 0.11440651, 0.04890770, 0.00000000, 0.00000000, 0.00000000, 0.00000000
1, 1.5700, 157, 0.18374436, -0.98489141, 0.33404678, -2.25197530, -33.08461761, -14.42688274, 0.00000000, 0.00000000, 0.00000000, 114.86862946, 15.71650982, 75.89147186, 1.00000000, 0.00000000, 0.00000000, 0.00000000, 0.08549242, 0.11134543, 0.07144950, 0.00000000, 0.00000000, 0.00000000, 0.00000000
1, 1.5800, 158, 0.13080867, -0.98138374, 0.32872948, -4.52227736, -19.21183586, -18.13785744, 0.00000000, 0.00000000, 0.00000000, 114.79560089, 15.96181965, 75.78942871, 1.00000000, 0.00000000, 0.00000000, 0.00000000, 0.14268449, 0.10837153, 0.07506459, 0.00000000, 0.00000000, 0.00000000, 0.00000000
1, 1.5900, 159, 0.14429836, -0.96548796, 0.34808478, -8.46335602, -4.47428513, -20.99572372, 0.00000000, 0.00000000, 0.00000000, 114.72463989, 16.17121887, 75.83866882, 1.00000000, 0.00000000, 0.00000000, 0.00000000, 0.13292123, 0.09294614, 0.05418243, 0.00000000, 0.00000000, 0.00000000, 0.00000000
1, 1.6000, 160, 0.16550624, -0.94133443, 0.30741557, -6.91228056, 4.28873587, -25.67116928, 0.00000000, 0.00000000, 0.00000000, 114.69825745, 16.38650703, 75.99104309, 1.00000000, 0.00000000, 0.00000000, 0.00000000, 0.11524174, 0.06938668, 0.09369123, 0.00000000, 0.00000000, 0.00000000, 0.00000000
1, 1.6100, 161, 0.22959562, -0.91599011, 0.33470905, -5.06835794, 13.11742783, -28.35451698, 0.00000000, 0.00000000, 0.00000000, 114.67828369, 16.58266449, 76.27407074, 1.00000000, 0.00000000, 0.00000000, 0.00000000, 0.05462546, 0.04493853, 0.06589869, 0.00000000, 0.00000000, 0.00000000, 0.00000000
1, 1.6200, 162, 0.29372230, -0.90666229, 0.30683002, -1.37738204, 17.21305656, -29.69884491, 0.00000000, 0.00000000, 0.00000000, 114.74859619, 16.78051376, 76.56692505, 1.00000000, 0.00000000, 0.00000000, 0.00000000, -0.00625974, 0.03662653, 0.09367219, 0.00000000, 0.00000000, 0.00000000, 0.00000000
1, 1.6300, 163, 0.31978893, -0.91123229, 0.27172172, -1.00659454, 17.84665108, -30.23838615, 0.00000000, 0.00000000, 0.00000000, 114.82616425, 16.98020744, 76.86872864, 1.00000000, 0.00000000, 0.00000000, 0.00000000, -0.02900010, 0.04267904, 0.12959625, 0.00000000, 0.00000000, 0.00000000, 0.00000000
1, 1.6400, 164, 0.37010318, -0.87627548, 0.28444806, -0.40614522, 14.27311420, -29.02792358, 0.00000000, 0.00000000, 0.00000000, 114.89939117, 17.18358803, 77.13187408, 1.00000000, 0.00000000, 0.00000000, 0.00000000, -0.07594287, 0.00914699, 0.11749335, 0.00000000, 0.00000000, 0.00000000, 0.00000000
1, 1.6500, 165, 0.39878407, -0.87460077, 0.23169416, 4.15473366, 8.83228397, -28.13294411, 0.00000000, 0.00000000, 0.00000000, 115.00279999, 17.40141296, 77.34003448, 1.00000000, 0.00000000, 0.00000000, 0.00000000, -0.10112238, 0.00911352, 0.17120518, 0.00000000, 0.00000000, 0.00000000, 0.00000000
1, 1.6600, 166, 0.36895743, -0.88135916, 0.25520200, 5.20321226, -0.70304716, -28.25819206, 0.00000000, 0.00000000, 0.00000000, 114.97424316, 17.73961639, 77.90868378, 1.00000000, 0.00000000, 0.00000000, 0.00000000, -0.06689489, 0.01759958, 0.14812663, 0.00000000, 0.00000000, 0.00000000, 0.00000000
1, 1.6700, 167, 0.33952567, -0.89020556, 0.25192907, 6.52487659, -5.19387245, -28.64229774, 0.00000000, 0.00000000, 0.00000000, 115.06334686, 18.02113724, 77.98649597, 1.00000000, 0.00000000, 0.00000000, 0.00000000, -0.03196418, 0.02802843, 0.15063082, 0.00000000, 0.00000000, 0.00000000, 0.00000000
1, 1.6800, 168, 0.28308666, -0.90781981, 0.23953691, 10.76677036, -10.09759808, -30.20445824, 0.00000000, 0.00000000, 0.00000000, 115.18308258, 18.33749008, 78.02522278, 1.00000000, 0.00000000, 0.00000000, 0.00000000, 0.02952576, 0.04788657, 0.16392985, 0.00000000, 0.00000000, 0.00000000, 0.00000000
1, 1.6900, 169, 0.24438894, -0.91480762, 0.27938619, 12.76369667, -11.46944809, -32.15248108, 0.00000000, 0.00000000, 0.00000000, 115.32192230, 18.67721939, 78.06050873, 1.00000000, 0.00000000, 0.00000000, 0.00000000, 0.07368979, 0.05747870, 0.12534797, 0.00000000, 0.00000000, 0.00000000, 0.00000000
1, 1.7000, 170, 0.24569179, -0.90969795, 0.24105655, 11.60539818, -12.89511967, -36.09242249, 0.00000000, 0.00000000, 0.00000000, 115.45104218, 19.05858040, 78.10092163, 1.00000000, 0.00000000, 0.00000000, 0.00000000, 0.07841778, 0.05513713, 0.16474490, 0.00000000, 0.00000000, 0.00000000, 0.00000000
1, 1.7100, 171, 0.21155946, -0.89983112, 0.22740433, 11.40577126, -12.46379185, -40.33718872, 0.00000000, 0.00000000, 0.00000000, 115.51185608, 19.43312645, 78.10006714, 1.00000000, 0.00000000, 0.00000000, 0.00000000, 0.11905340, 0.04812545, 0.17915325, 0.00000000, 0.00000000, 0.00000000, 0.00000000
1, 1.7200, 172, 0.24398346, -0.87716478, 0.24666682, 11.60436630, -10.47647476, -45.02346802, 0.00000000, 0.00000000, 0.00000000, 115.66361237, 19.88444901, 78.20619965, 1.00000000, 0.00000000, 0.00000000, 0.00000000, 0.09331560, 0.02820654, 0.16014256, 0.00000000, 0.00000000, 0.00000000, 0.00000000
1, 1.7300, 173, 0.20978999, -0.91916358, 0.20385920, 13.17135239, -11.17395306, -51.36805725, 0.00000000, 0.00000000, 0.00000000, 115.84026337, 20.39566803, 78.33673859, 1.00000000, 0.00000000, 0.00000000, 0.00000000, 0.13548623, 0.07403176, 0.20422094, 0.00000000, 0.00000000, 0.00000000, 0.00000000
1, 1.7400, 174, 0.19295327, -0.98960149, 0.23206735, 11.97196960, -6.50609207, -57.89552689, 0.00000000, 0.00000000, 0.00000000, 116.03347778, 20.94475365, 78.54486084, 1.00000000, 0.00000000, 0.00000000, 0.00000000, 0.16110072, 0.14874308, 0.17731611, 0.00000000, 0.00000000, 0.00000000, 0.00000000
1, 1.7500, 175, 0.20052090, -1.05298305, 0.18547989, 12.89717579, -7.49338865, -65.60062408, 0.00000000, 0.00000000, 0.00000000, 116.24871063, 21.56666946, 78.78280640, 1.00000000, 0.00000000, 0.00000000, 0.00000000, 0.16317029, 0.21692097, 0.22527353, 0.00000000, 0.00000000, 0.00000000, 0.00000000
1, 1.7600, 176, 0.18993376, -1.09853268, 0.22099720, 13.37477398, -5.39223003, -73.96379089, 0.00000000, 0.00000000, 0.00000000, 116.43576050, 22.19668007, 78.94228363, 1.00000000, 0.00000000, 0.00000000, 0.00000000, 0.18430482, 0.26782128, 0.19113633, 0.00000000, 0.00000000, 0.00000000, 0.00000000
1, 1.7700, 177, 0.19349404, -1.09384811, 0.23324469, 10.83376503, -7.30155325, -81.74232483, 0.00000000, 0.00000000, 0.00000000, 116.66887665, 22.96051598, 79.26731873, 1.00000000, 0.00000000, 0.00000000, 0.00000000, 0.19187860, 0.26864451, 0.17968556, 0.00000000, 0.00000000, 0.00000000, 0.00000000
1, 1.7800, 178, 0.14890793, -1.06465137, 0.24124748, 8.44229984, -8.58129692, -89.32277679, 0.00000000, 0.00000000, 0.00000000, 116.89420319, 23.79658508, 79.62235260, 1.00000000, 0.00000000, 0.00000000, 0.00000000, 0.24949388, 0.24603371, 0.17242295, 0.00000000, 0.00000000, 0.00000000, 0.00000000
1, 1.7900, 179, 0.17784001, -1.04794919, 0.30183434, 10.38883018, -9.24703979, -95.82913208, 0.00000000, 0.00000000, 0.00000000, 117.15709686, 24.69226837, 80.00952148, 1.00000000, 0.00000000, 0.00000000, 0.00000000, 0.23449978, 0.23660798, 0.11250915, 0.00000000, 0.00000000, 0.00000000, 0.00000000
1, 1.8000, 180, 0.20920196, -1.06577313, 0.30013347, 12.97625351, -11.41304874, -103.65597534, 0.00000000, 0.00000000, 0.00000000, 117.46268463, 25.66566849, 80.42296600, 1.00000000, 0.00000000, 0.00000000, 0.00000000, 0.21804008, 0.26269534, 0.11520403, 0.00000000, 0.00000000, 0.00000000, 0.00000000
1, 1.8100, 181, 0.21887636, -1.07277679, 0.35109562, 11.18040752, -18.04885483, -109.55693817, 0.00000000, 0.00000000, 0.00000000, 117.72075653, 26.67015648, 80.64542389, 1.00000000, 0.00000000, 0.00000000, 0.00000000, 0.22430599, 0.27862984, 0.06471077, 0.00000000, 0.00000000, 0.00000000, 0.00000000
1, 1.8200, 182, 0.25853315, -1.06662929, 0.35269094, 11.89068413, -25.43566513, -114.58747864, 0.00000000, 0.00000000, 0.00000000, 117.99937439, 27.80209732, 80.99469757, 1.00000000, 0.00000000, 0.00000000, 0.00000000, 0.20119411, 0.28176355, 0.06276552, 0.00000000, 0.00000000, 0.00000000, 0.00000000
1, 1.8300, 183, 0.29647574, -1.10550368, 0.29369533, 15.27297497, -36.11146545, -118.13207245, 0.00000000, 0.00000000, 0.00000000, 118.28103638, 29.01412010, 81.26607513, 1.00000000, 0.00000000, 0.00000000, 0.00000000, 0.18149860, 0.33123881, 0.12105460, 0.00000000, 0.00000000, 0.00000000, 0.00000000
1, 1.8400, 184, 0.34042305, -1.13755095, 0.23090850, 17.74769020, -46.71955490, -120.50980377, 0.00000000, 0.00000000, 0.00000000, 118.55093384, 30.29637718, 81.45311737, 1.00000000, 0.00000000, 0.00000000, 0.00000000, 0.15670475, 0.37468016, 0.18243319, 0.00000000, 0.00000000, 0.00000000, 0.00000000
1, 1.8500, 185, 0.37351897, -1.16658032, 0.13089569, 19.66431618, -57.35582733, -122.93357086, 0.00000000, 0.00000000, 0.00000000, 118.79942322, 31.65017509, 81.55422211, 1.00000000, 0.00000000, 0.00000000, 0.00000000, 0.14353654, 0.41587904, 0.28026831, 0.00000000, 0.00000000, 0.00000000, 0.00000000
1, 1.8600, 186, 0.34707063, -1.23251629, 0.03170285, 20.75992393, -71.01041412, -123.38794708, 0.00000000, 0.00000000, 0.00000000, 118.94064331, 33.04687119, 81.46223450, 1.00000000, 0.00000000, 0.00000000, 0.00000000, 0.19065565, 0.49450350, 0.37590116, 0.00000000, 0.00000000, 0.00000000, 0.00000000
1, 1.8700, 187, 0.35915160, -1.26836181, 0.02726164, 16.97792244, -76.86161804, -124.65308380, 0.00000000, 0.00000000, 0.00000000, 119.06503296, 34.50973892, 81.38069916, 1.00000000, 0.00000000, 0.00000000, 0.00000000, 0.19938597, 0.54307091, 0.37515283, 0.00000000, 0.00000000, 0.00000000, 0.00000000
1, 1.8800, 188, 0.22896823, -1.36477280, -0.02677625, 16.85186005, -86.44396973, -131.95663452, 0.00000000, 0.00000000, 0.00000000, 119.15316772, 36.08317566, 81.24182892, 1.00000000, 0.00000000, 0.00000000, 0.00000000, 0.35148302, 0.65345424, 0.42306173, 0.00000000, 0.00000000, 0.00000000, 0.00000000
1, 1.8900, 189, -0.03223047, -1.49115050, 0.07610483, 17.71315384, -102.29062653, -135.81132507, 0.00000000, 0.00000000, 0.00000000, 119.15587616, 37.76758957, 80.95201874, 1.00000000, 0.00000000, 0.00000000, 0.00000000, 0.63582742, 0.79497051, 0.31239974, 0.00000000, 0.00000000, 0.00000000, 0.00000000
1, 1.9000, 190, -0.14329158, -1.50051451, 0.23157892, 21.63362694, -115.70068359, -138.22229004, 0.00000000, 0.00000000, 0.00000000, 119.10160065, 39.53818512, 80.51917267, 1.00000000, 0.00000000, 0.00000000, 0.00000000, 0.77073699, 0.82034338, 0.14737236, 0.00000000, 0.00000000, 0.00000000, 0.00000000
1, 1.9100, 191, -0.25459325, -1.52465856, 0.29288939, 30.02882767, -133.54100037, -143.85513306, 0.00000000, 0.00000000, 0.00000000, 118.98706055, 41.39628983, 79.73735046, 1.00000000, 0.00000000, 0.00000000, 0.00000000, 0.90676820, 0.86194694, 0.07507505, 0.00000000, 0.00000000, 0.00000000, 0.00000000
1, 1.9200, 192, -0.24916494, -1.47018456, 0.38140047, 36.28379822, -145.45314026, -148.21942139, 0.00000000, 0.00000000, 0.00000000, 118.84146881, 43.39699173, 78.98352051, 1.00000000, 0.00000000, 0.00000000, 0.00000000, 0.92650527, 0.82617974, -0.02591335, 0.00000000, 0.00000000, 0.00000000, 0.00000000
1, 1.9300, 193, -0.09873857, -1.38807070, 0.47909930, 44.20232773, -148.26051331, -157.36149597, 0.00000000, 0.00000000, 0.00000000, 118.75275421, 45.49008179, 78.22519684, 1.00000000, 0.00000000, 0.00000000, 0.00000000, 0.80207825, 0.76506793, -0.13693617, 0.00000000, 0.00000000, 0.00000000, 0.00000000
1, 1.9400, 194, 0.10946478, -1.43832040, 0.45797488, 55.23675537, -136.13105774, -169.00801086, 0.00000000, 0.00000000, 0.00000000, 118.90676117, 47.62686920, 77.67557526, 1.00000000, 0.00000000, 0.00000000, 0.00000000, 0.61979598, 0.83891088, -0.12815976, 0.00000000, 0.00000000, 0.00000000, 0.00000000
1, 1.9500, 195, 0.25274542, -1.65738702, 0.34143686, 60.21877670, -115.31898499, -176.85575867, 0.00000000, 0.00000000, 0.00000000, 119.34275055, 49.73292542, 77.45359802, 1.00000000, 0.00000000, 0.00000000, 0.00000000, 0.50129962, 1.08390415, -0.02139630, 0.00000000, 0.00000000, 0.00000000, 0.00000000
1, 1.9600, 196, 0.39681906, -1.84925842, 0.34135252, 50.98597717, -113.67824554, -179.83824158, 0.00000000, 0.00000000, 0.00000000, 119.71617126, 51.83699036, 77.22161102, 1.00000000, 0.00000000, 0.00000000, 0.00000000, 0.38086152, 1.30268896, -0.03092127, 0.00000000, 0.00000000, 0.00000000, 0.00000000
1, 1.9700, 197, 0.40928295, -1.85258138, 0.50160164, 29.91264343, -97.58943176, -176.39825439, 0.00000000, 0.00000000, 0.00000000, 120.06023407, 53.85252762, 77.27699280, 1.00000000, 0.00000000, 0.00000000, 0.00000000, 0.39050350, 1.33235896, -0.20224431, 0.00000000, 0.00000000, 0.00000000, 0.00000000
1, 1.9800, 198, 0.35568106, -1.75438404, 0.45928940, 10.27687359, -68.78902435, -173.22850037, 0.00000000, 0.00000000, 0.00000000, 120.56110382, 55.69512177, 77.76381683, 1.00000000, 0.00000000, 0.00000000, 0.00000000, 0.46358368, 1.25969815, -0.16944513, 0.00000000, 0.00000000, 0.00000000, 0.00000000
1, 1.9900, 199, 0.37834641, -1.66194761, 0.31633681, 1.71321964, -62.12181854, -168.75781250, 0.00000000, 0.00000000, 0.00000000, 121.08002472, 57.46266174, 78.36503601, 1.00000000, 0.00000000, 0.00000000, 0.00000000, 0.45841730, 1.19208288, -0.03530641, 0.00000000, 0.00000000, 0.00000000, 0.00000000
1, 2.0000, 200, 0.48071587, -1.51114762, 0.27478474, 8.49226761, -66.09970856, -163.53292847, 0.00000000, 0.00000000, 0.00000000, 121.62900543, 59.20314407, 78.91032410, 1.00000000, 0.00000000, 0.00000000, 0.00000000, 0.37236655, 1.06592727, -0.00283742, 0.00000000, 0.00000000, 0.00000000, 0.00000000
1, 2.0100, 201, 0.52168804, -1.36508977, 0.27219328, 16.68219376, -69.88584137, -156.38067627, 0.00000000, 0.00000000, 0.00000000, 122.15743256, 60.84986877, 79.19611359, 1.00000000, 0.00000000, 0.00000000, 0.00000000, 0.34656072, 0.94427252, -0.00952937, 0.00000000, 0.00000000, 0.00000000, 0.00000000
1, 2.0200, 202, 0.62192005, -1.22840393, 0.28611848, 20.97990227, -74.06102753, -139.03584290, 0.00000000, 0.00000000, 0.00000000, 122.58724213, 62.42073059, 79.44657898, 1.00000000, 0.00000000, 0.00000000, 0.00000000, 0.25970626, 0.83022588, -0.03287760, 0.00000000, 0.00000000, 0.00000000, 0.00000000
1, 2.0300, 203, 0.47638983, -1.13193667, 0.33397397, 15.83985901, -88.10517883, -108.26998901, 0.00000000, 0.00000000, 0.00000000, 122.42707062, 63.80736160, 79.09020996, 1.00000000, 0.00000000, 0.00000000, 0.00000000, 0.41700882, 0.75326335, -0.09231047, 0.00000000, 0.00000000, 0.00000000, 0.00000000
1, 2.0400, 204, 0.17384154, -0.99931616, 0.25751209, 1.04346311, -97.69422150, -66.99142456, 0.00000000, 0.00000000, 0.00000000, 121.44930267, 64.89291382, 77.99459076, 1.00000000, 0.00000000, 0.00000000, 0.00000000, 0.72884661, 0.63394547, -0.03029523, 0.00000000, 0.00000000, 0.00000000, 0.00000000
1, 2.0500, 205, 0.07325712, -0.78756154, 0.15344749, -16.06541443, -69.53337097, -29.70179367, 0.00000000, 0.00000000, 0.00000000, 120.32733154, 65.50481415, 76.93576050, 1.00000000, 0.00000000, 0.00000000, 0.00000000, 0.83536720, 0.42853662, 0.05983877, 0.00000000, 0.00000000, 0.00000000, 0.00000000
1, 2.0600, 206, 0.14952692, -0.65938056, 0.08676274, 5.41907263, -23.10011292, 0.99619240, 0.00000000, 0.00000000, 0.00000000, 119.73213959, 65.38686371, 75.65560913, 1.00000000, 0.00000000, 0.00000000, 0.00000000, 0.76081491, 0.30084416, 0.11993863, 0.00000000, 0.00000000, 0.00000000, 0.00000000
1, 2.0700, 207, 0.25879520, -0.62518531, 0.10017177, 22.27191162, 17.04278183, 32.81415558, 0.00000000, 0.00000000, 0.00000000, 119.92114258, 65.01735687, 75.61861420, 1.00000000, 0.00000000, 0.00000000, 0.00000000, 0.64895093, 0.26119867, 0.10840909, 0.00000000, 0.00000000, 0.00000000, 0.00000000
1, 2.0800, 208, 0.31569749, -0.55621254, 0.08774290, 18.68683052, 53.91535568, 65.26369476, 0.00000000, 0.00000000, 0.00000000, 120.39899445, 64.18218231, 75.94068909, 1.00000000, 0.00000000, 0.00000000, 0.00000000, 0.58705145, 0.18452117, 0.12875280, 0.00000000, 0.00000000, 0.00000000, 0.00000000
1, 2.0900, 209, 0.34779593, -0.49166074, 0.07418059, 18.50962067, 72.97997284, 92.19432831, 0.00000000, 0.00000000, 0.00000000, 120.90200043, 63.01697922, 76.29554749, 1.00000000, 0.00000000, 0.00000000, 0.00000000, 0.54694891, 0.10776881, 0.15390444, 0.00000000, 0.00000000, 0.00000000, 0.00000000
1, 2.1000, 210, 0.34836474, -0.44760907, 0.06421811, 14.75626469, 79.12725067, 115.95410919, 0.00000000, 0.00000000, 0.00000000, 121.20147705, 61.61548615, 76.46678162, 1.00000000, 0.00000000, 0.00000000, 0.00000000, 0.53582847, 0.04774808, 0.17716336, 0.00000000, 0.00000000, 0.00000000, 0.00000000
1, 2.1100, 211, 0.33646739, -0.40595219, 0.05217175, 6.69616318, 75.41610718, 137.69046021, 0.00000000, 0.00000000, 0.00000000, 121.10343170, 60.02542877, 76.26030731, 1.00000000, 0.00000000, 0.00000000, 0.00000000, 0.53508395, -0.01345492, 0.20166607, 0.00000000, 0.00000000, 0.00000000, 0.00000000
1, 2.1200, 212, 0.31807947, -0.37606671, 0.04732692, 3.58552504, 71.83950806, 159.84028625, 0.00000000, 0.00000000, 0.00000000, 120.79465485, 58.28513336, 75.85861206, 1.00000000, 0.00000000, 0.00000000, 0.00000000, 0.53865260, -0.06630409, 0.21770740, 0.00000000, 0.00000000, 0.00000000, 0.00000000
1, 2.1300, 213, 0.33205375, -0.36307248, 0.05738973, -0.40545648, 78.38993835, 184.74516296, 0.00000000, 0.00000000, 0.00000000, 120.37730408, 56.29589844, 75.36755371, 1.00000000, 0.00000000, 0.00000000, 0.00000000, 0.50717485, -0.10521187, 0.21884668, 0.00000000, 0.00000000, 0.00000000, 0.00000000
1, 2.1400, 214, 0.37035051, -0.38065627, 0.03499421, -8.75419044, 89.31732178, 208.93252563, 0.00000000, 0.00000000, 0.00000000, 119.89215851, 54.04055405, 74.88317871, 1.00000000, 0.00000000, 0.00000000, 0.00000000, 0.44780186, -0.11681586, 0.25314078, 0.00000000, 0.00000000, 0.00000000, 0.00000000
1, 2.1500, 215, 0.40797830, -0.41887191, 0.01389356, -15.05990696, 91.55318451, 231.11997986, 0.00000000, 0.00000000, 0.00000000, 119.28674316, 51.57870102, 74.31213379, 1.00000000, 0.00000000, 0.00000000, 0.00000000, 0.38545385, -0.11067900, 0.28592455, 0.00000000, 0.00000000, 0.00000000, 0.00000000
1, 2.1600, 216, 0.42789847, -0.45741814, 0.03132721, -17.88943481, 85.09456635, 260.03961182, 0.00000000, 0.00000000, 0.00000000, 118.46896362, 48.88663101, 73.51670074, 1.00000000, 0.00000000, 0.00000000, 0.00000000, 0.33711049, -0.10688632, 0.27873677, 0.00000000, 0.00000000, 0.00000000, 0.00000000
1, 2.1700, 217, 0.41910660, -0.50312340, 0.10602649, -22.55970192, 90.37487030, 282.26046753, 0.00000000, 0.00000000, 0.00000000, 117.66516876, 45.97079468, 72.73209381, 1.00000000, 0.00000000, 0.00000000, 0.00000000, 0.31314248, -0.09826813, 0.21323210, 0.00000000, 0.00000000, 0.00000000, 0.00000000
1, 2.1800, 218, 0.39304799, -0.52833903, 0.10489965, -30.56034470, 92.39753723, 299.33895874, 0.00000000, 0.00000000, 0.00000000, 116.82160187, 42.88649750, 71.96337891, 1.00000000, 0.00000000, 0.00000000, 0.00000000, 0.30218285, -0.11115701, 0.22291353, 0.00000000, 0.00000000, 0.00000000, 0.00000000
1, 2.1900, 219, 0.37503430, -0.56129235, 0.09569962, -32.05898666, 82.92150879, 313.41983032, 0.00000000, 0.00000000, 0.00000000, 115.93096161, 39.71008682, 71.09910583, 1.00000000, 0.00000000, 0.00000000, 0.00000000, 0.27972335, -0.11637352, 0.23867896, 0.00000000, 0.00000000, 0.00000000, 0.00000000
1, 2.2000, 220, 0.35228327, -0.61743641, 0.12441395, -32.49313354, 75.74229431, 325.62490845, 0.00000000, 0.00000000, 0.00000000, 115.04380035, 36.44478607, 70.18766785, 1.00000000, 0.00000000, 0.00000000, 0.00000000, 0.25885600, -0.09759015, 0.21467055, 0.00000000, 0.00000000, 0.00000000, 0.00000000
1, 2.2100, 221, 0.33479816, -0.67679346, 0.12978250, -36.44996262, 75.12183380, 336.97048950, 0.00000000, 0.00000000, 0.00000000, 114.16423035, 33.06256866, 69.31507874, 1.00000000, 0.00000000, 0.00000000, 0.00000000, 0.22924766, -0.07447200, 0.21251179, 0.00000000, 0.00000000, 0.00000000, 0.00000000
1, 2.2200, 222, 0.36623320, -0.73888034, 0.13654338, -37.30944824, 74.64016724, 348.41976929, 0.00000000, 0.00000000, 0.00000000, 113.35252380, 29.57292366, 68.47185516, 1.00000000, 0.00000000, 0.00000000, 0.00000000, 0.14709315, -0.04708543, 0.20762284, 0.00000000, 0.00000000, 0.00000000, 0.00000000
1, 2.2300, 223, 0.40694660, -0.81657016, 0.14549443, -35.45285797, 80.16020203, 356.75671387, 0.00000000, 0.00000000, 0.00000000, 112.65184784, 25.97580910, 67.73057556, 1.00000000, 0.00000000, 0.00000000, 0.00000000, 0.05214027, -0.00162923, 0.20015003, 0.00000000, 0.00000000, 0.00000000, 0.00000000
1, 2.2400, 224, 0.46037492, -0.94283599, 0.18466157, -30.42353058, 97.62786865, 360.06848145, 0.00000000, 0.00000000, 0.00000000, 112.13603973, 22.27485847, 67.21705627, 1.00000000, 0.00000000, 0.00000000, 0.00000000, -0.05894595, 0.09567416, 0.16295651, 0.00000000, 0.00000000, 0.00000000, 0.00000000
1, 2.2500, 225, 0.58111548, -1.09248459, 0.20326839, -30.49934769, 134.42295837, 359.12069702, 0.00000000, 0.00000000, 0.00000000, 111.79376221, 18.44174385, 67.11388397, 1.00000000, 0.00000000, 0.00000000, 0.00000000, -0.24103326, 0.22022435, 0.14766213, 0.00000000, 0.00000000, 0.00000000, 0.00000000
1, 2.2600, 226, 0.72484851, -1.24650526, 0.24864066, -34.25555420, 147.99525452, 356.31686401, 0.00000000, 0.00000000, 0.00000000, 111.46095276, 14.59759808, 67.24296570, 1.00000000, 0.00000000, 0.00000000, 0.00000000, -0.44873548, 0.35298240, 0.10494868, 0.00000000, 0.00000000, 0.00000000, 0.00000000
1, 2.2700, 227, 0.86733556, -1.39108860, 0.28332695, -34.98561859, 142.15565491, 346.00244141, 0.00000000, 0.00000000, 0.00000000, 111.12678528, 10.85758781, 67.31252289, 1.00000000, 0.00000000, 0.00000000, 0.00000000, -0.65530217, 0.48045272, 0.07086665, 0.00000000, 0.00000000, 0.00000000, 0.00000000
1, 2.2800, 228, 1.25178552, -1.51694453, 0.39056212, -33.67192078, 121.10602570, 325.92916870, 0.00000000, 0.00000000, 0.00000000, 110.78492737, 7.38076305, 67.27748871, 1.00000000, 0.00000000, 0.00000000, 0.00000000, -1.10119700, 0.59358585, -0.03779125, 0.00000000, 0.00000000, 0.00000000, 0.00000000
1, 2.2900, 229, 1.40094447, -1.54879248, 0.62485480, -39.80670929, 113.95220184, 293.49398804, 0.00000000, 0.00000000, 0.00000000, 110.38903046, 4.23274517, 67.31100464, 1.00000000, 0.00000000, 0.00000000, 0.00000000, -1.30706000, 0.61671776, -0.27530020, 0.00000000, 0.00000000, 0.00000000, 0.00000000
1, 2.3000, 230, 1.60690618, -1.34853041, 0.62702811, -67.55183411, 121.19338226, 251.09852600, 0.00000000, 0.00000000, 0.00000000, 109.72653961, 1.45852470, 67.58782196, 1.00000000, 0.00000000, 0.00000000, 0.00000000, -1.56384957, 0.40969688, -0.28563350, 0.00000000, 0.00000000, 0.00000000, 0.00000000
1, 2.3100, 231, 1.77626824, -1.16304028, 0.68872011, -59.24096298, 113.33003998, 216.53573608, 0.00000000, 0.00000000, 0.00000000, 109.13538361, -0.93782532, 68.02062225, 1.00000000, 0.00000000, 0.00000000, 0.00000000, -1.77764118, 0.21955779, -0.35750985, 0.00000000, 0.00000000, 0.00000000, 0.00000000
1, 2.3200, 232, 1.73139620, -1.01560891, 0.62098026, -51.48318100, 90.41233826, 173.08767700, 0.00000000, 0.00000000, 0.00000000, 108.61051178, -2.86810732, 68.31594086, 1.00000000, 0.00000000, 0.00000000, 0.00000000, -1.76951599, 0.06975111, -0.29878259, 0.00000000, 0.00000000, 0.00000000, 0.00000000
1, 2.3300, 233, 1.82841504, -0.79307562, 0.70419741, -57.34413910, 75.62873077, 120.41765594, 0.00000000, 0.00000000, 0.00000000, 108.01552582, -4.24880171, 68.65599060, 1.00000000, 0.00000000, 0.00000000, 0.00000000, -1.89402461, -0.15462916, -0.39194626, 0.00000000, 0.00000000, 0.00000000, 0.00000000
1, 2.3400, 234, 1.89153969, -0.61761928, 0.87061065, -46.97712708, 75.91691589, 80.08111572, 0.00000000, 0.00000000, 0.00000000, 107.50565338, -5.24289656, 69.13624573, 1.00000000, 0.00000000, 0.00000000, 0.00000000, -1.97697401, -0.33160698, -0.56788409, 0.00000000, 0.00000000, 0.00000000, 0.00000000
1, 2.3500, 235, 1.77157211, -0.50185359, 0.85085893, -35.22458267, 62.52836227, 41.56127548, 0.00000000, 0.00000000, 0.00000000, 107.10733032, -5.82564974, 69.61170197, 1.00000000, 0.00000000, 0.00000000, 0.00000000, -1.86983132, -0.44855407, -0.55579925, 0.00000000, 0.00000000, 0.00000000, 0.00000000
1, 2.3600, 236, 1.64554834, -0.46420714, 0.77938247, -18.97039413, 52.61106110, 5.79212427, 0.00000000, 0.00000000, 0.00000000, 106.87725830, -5.97261429, 70.32034302, 1.00000000, 0.00000000, 0.00000000, 0.00000000, -1.74954081, -0.48719603, -0.48952684, 0.00000000, 0.00000000, 0.00000000, 0.00000000
1, 2.3700, 237, 1.56471050, -0.51865101, 0.72351611, 2.99468732, 49.36040115, -30.37081146, 0.00000000, 0.00000000, 0.00000000, 106.84902191, -5.82498980, 70.88378143, 1.00000000, 0.00000000, 0.00000000, 0.00000000, -1.66766596, -0.43336603, -0.43530983, 0.00000000, 0.00000000, 0.00000000, 0.00000000
1, 2.3800, 238, 1.51178098, -0.53794950, 0.70453727, 17.82939529, 40.40573120, -65.02628326, 0.00000000, 0.00000000, 0.00000000, 106.97092438, -5.32030153, 71.46224976, 1.00000000, 0.00000000, 0.00000000, 0.00000000, -1.60822952, -0.41430911, -0.41489309, 0.00000000, 0.00000000, 0.00000000, 0.00000000
1, 2.3900, 239, 1.39636552, -0.50604892, 0.67952657, 29.53554344, 35.48241806, -91.35385132, 0.00000000, 0.00000000, 0.00000000, 107.21364594, -4.55126095, 72.07207489, 1.00000000, 0.00000000, 0.00000000, 0.00000000, -1.48102045, -0.44625774, -0.38639039, 0.00000000, 0.00000000, 0.00000000, 0.00000000
1, 2.4000, 240, 1.22719717, -0.44539538, 0.63728994, 45.74211121, 33.91369629, -107.21496582, 0.00000000, 0.00000000, 0.00000000, 107.62491608, -3.62971663, 72.71820831, 1.00000000, 0.00000000, 0.00000000, 0.00000000, -1.29666448, -0.50620097, -0.33793473, 0.00000000, 0.00000000, 0.00000000, 0.00000000
1, 2.4100, 241, 0.96244687, -0.41392288, 0.56490159, 49.20422745, 25.04942322, -116.75887299, 0.00000000, 0.00000000, 0.00000000, 108.13905334, -2.50483322, 73.54457092, 1.00000000, 0.00000000, 0.00000000, 0.00000000, -1.01419234, -0.53626823, -0.25762209, 0.00000000, 0.00000000, 0.00000000, 0.00000000
1, 2.4200, 242, -0.67813361, -1.00607884, 0.00752347, 59.86317825, -42.62818146, -104.65035248, 0.00000000, 0.00000000, 0.00000000, 108.73788452, -1.37598014, 73.47139740, 1.00000000, 0.00000000, 0.00000000, 0.00000000, 0.64636701, 0.05831671, 0.30980340, 0.00000000, 0.00000000, 0.00000000, 0.00000000
1, 2.4300, 243, -1.18100095, -2.46001911, -0.69211614, 50.98268509, -172.26213074, -57.57980347, 0.00000000, 0.00000000, 0.00000000, 109.26635742, -0.27025461, 72.02958679, 1.00000000, 0.00000000, 0.00000000, 0.00000000, 1.16968358, 1.51494324, 1.01871932, 0.00000000, 0.00000000, 0.00000000, 0.00000000
1, 2.4400, 244, -0.19706982, -3.31503510, 0.13637942, 102.48391724, 4.07726002, -32.40237045, 0.00000000, 0.00000000, 0.00000000, 110.29178619, 0.01600997, 72.17772675, 1.00000000, 0.00000000, 0.00000000, 0.00000000, 0.19536394, 2.37478638, 0.20405848, 0.00000000, 0.00000000, 0.00000000, 0.00000000
1, 2.4500, 245, 0.98796028, -1.55260396, 0.43121812, -10.44563007, 182.52290344, -162.46994019, 0.00000000, 0.00000000, 0.00000000, 110.20619965, 0.90720165, 74.45311737, 1.00000000, 0.00000000, 0.00000000, 0.00000000, -0.97829098, 0.61463511, -0.08466423, 0.00000000, 0.00000000, 0.00000000, 0.00000000
1, 2.4600, 246, 1.28336620, -1.04140484, 0.73808700, 49.61719894, 148.22027588, -196.28041077, 0.00000000, 0.00000000, 0.00000000, 110.76239014, 2.26146245, 76.62741089, 1.00000000, 0.00000000, 0.00000000, 0.00000000, -1.25403249, 0.10502489, -0.38841578, 0.00000000, 0.00000000, 0.00000000, 0.00000000
1, 2.4700, 247, 0.41237238, -0.85450685, 0.44935295, 77.91217804, -44.34490585, -185.98258972, 0.00000000, 0.00000000, 0.00000000, 111.55274200, 4.15723085, 76.88640594, 1.00000000, 0.00000000, 0.00000000, 0.00000000, -0.35243481, -0.07556589, -0.08704077, 0.00000000, 0.00000000, 0.00000000, 0.00000000
1, 2.4800, 248, 0.50126010, -0.51964414, -0.01425155, 29.37175179, -52.45027161, -154.38803101, 0.00000000, 0.00000000, 0.00000000, 111.85491943, 5.78539085, 76.97108459, 1.00000000, 0.00000000, 0.00000000, 0.00000000, -0.41045380, -0.40517041, 0.38359153, 0.00000000, 0.00000000, 0.00000000, 0.00000000
1, 2.4900, 249, 0.79090011, -0.64368969, 0.24562082, 31.02693939, 17.37008286, -137.38092041, 0.00000000, 0.00000000, 0.00000000, 112.24254608, 6.99363327, 77.65105438, 1.00000000, 0.00000000, 0.00000000, 0.00000000, -0.67629200, -0.27701169, 0.12738952, 0.00000000, 0.00000000, 0.00000000, 0.00000000
1, 2.5000, 250, 0.58277231, -0.78003371, 0.26661250, 59.84106064, 59.28020859, -106.38849640, 0.00000000, 0.00000000, 0.00000000, 112.96467590, 7.74834871, 78.61486816, 1.00000000, 0.00000000, 0.00000000, 0.00000000, -0.45238829, -0.13466209, 0.11588906, 0.00000000, 0.00000000, 0.00000000, 0.00000000
1, 2.5100, 251, 0.52846718, -0.96462041, 0.22421069, 54.54740143, -2.61709976, -77.23487091, 0.00000000, 0.00000000, 0.00000000, 113.51537323, 8.54007626, 79.21932983, 1.00000000, 0.00000000, 0.00000000, 0.00000000, -0.38566774, 0.05581014, 0.16777100, 0.00000000, 0.00000000, 0.00000000, 0.00000000
1, 2.5200, 252, 0.60193598, -1.09703958, 0.25609785, 47.14644623, -20.17695808, -60.77960968, 0.00000000, 0.00000000, 0.00000000, 113.99628448, 9.17761326, 79.28020477, 1.00000000, 0.00000000, 0.00000000, 0.00000000, -0.44628397, 0.19341065, 0.14291744, 0.00000000, 0.00000000, 0.00000000, 0.00000000
1, 2.5300, 253, 0.46809524, -1.09549463, 0.34372368, 30.00271988, -20.69290161, -48.04646683, 0.00000000, 0.00000000, 0.00000000, 114.29746246, 9.70077324, 79.28817749, 1.00000000, 0.00000000, 0.00000000, 0.00000000, -0.30296406, 0.19591376, 0.06060019, 0.00000000, 0.00000000, 0.00000000, 0.00000000
1, 2.5400, 254, 0.50671327, -1.04423285, 0.42989099, 23.98199654, -41.18424988, -40.47972488, 0.00000000, 0.00000000, 0.00000000, 114.50061035, 10.23956013, 79.07707214, 1.00000000, 0.00000000, 0.00000000, 0.00000000, -0.33239475, 0.14763117, -0.02281535, 0.00000000, 0.00000000, 0.00000000, 0.00000000
1, 2.5500, 255, 0.42987517, -1.04363072, 0.48235485, 34.16690445, -44.22556305, -36.82542801, 0.00000000, 0.00000000, 0.00000000, 114.79623413, 10.75871849, 78.82447052, 1.00000000, 0.00000000, 0.00000000, 0.00000000, -0.24655719, 0.15040773, -0.07182027, 0.00000000, 0.00000000, 0.00000000, 0.00000000
1, 2.5600, 256, 0.20930469, -1.00651300, 0.44707122, 22.80620956, -54.72777939, -35.18276978, 0.00000000, 0.00000000, 0.00000000, 114.95492554, 11.29687786, 78.42994690, 1.00000000, 0.00000000, 0.00000000, 0.00000000, -0.01682189, 0.11652192, -0.03372036, 0.00000000, 0.00000000, 0.00000000, 0.00000000
1, 2.5700, 257, 0.23730847, -0.94104964, 0.45764405, 12.01172638, -48.60562897, -34.36600494, 0.00000000, 0.00000000, 0.00000000, 115.01470184, 11.81365776, 78.12840271, 1.00000000, 0.00000000, 0.00000000, 0.00000000, -0.03579385, 0.05326973, -0.04384154, 0.00000000, 0.00000000, 0.00000000, 0.00000000
1, 2.5800, 258, 0.20064095, -1.00301468, 0.41383332, 16.86759758, -33.07394409, -32.45741653, 0.00000000, 0.00000000, 0.00000000, 115.14890289, 12.24777699, 77.96273804, 1.00000000, 0.00000000, 0.00000000, 0.00000000, 0.00887391, 0.11748433, 0.00081690, 0.00000000, 0.00000000, 0.00000000, 0.00000000
1, 2.5900, 259, 0.21762282, -1.03887403, 0.45430845, 7.19033480, -23.39124298, -31.34985924, 0.00000000, 0.00000000, 0.00000000, 115.20359802, 12.63102341, 77.88263702, 1.00000000, 0.00000000, 0.00000000, 0.00000000, -0.00137270, 0.15543580, -0.03865344, 0.00000000, 0.00000000, 0.00000000, 0.00000000
1, 2.6000, 260, 0.30911729, -1.00303960, 0.43831587, -3.24790907, -13.78648567, -32.24630737, 0.00000000, 0.00000000, 0.00000000, 115.17401123, 12.98149776, 77.89545441, 1.00000000, 0.00000000, 0.00000000, 0.00000000, -0.08664094, 0.12076974, -0.02346493, 0.00000000, 0.00000000, 0.00000000, 0.00000000
1, 2.6100, 261, 0.34983924, -0.98414510, 0.42973259, -0.73308498, -8.54319668, -28.36546135, 0.00000000, 0.00000000, 0.00000000, 115.15933990, 13.35884285, 78.27462006, 1.00000000, 0.00000000, 0.00000000, 0.00000000, -0.12168469, 0.10298462, -0.01560951, 0.00000000, 0.00000000, 0.00000000, 0.00000000
1, 2.6200, 262, 0.44651273, -0.95714360, 0.41248852, -0.41947472, -21.93863678, -22.14003181, 0.00000000, 0.00000000, 0.00000000, 115.12999725, 13.65247154, 78.16712189, 1.00000000, 0.00000000, 0.00000000, 0.00000000, -0.21237391, 0.07705596, 0.00057626, 0.00000000, 0.00000000, 0.00000000, 0.00000000
1, 2.6300, 263, 0.45641750, -0.94399565, 0.30341357, 1.24531162, -33.04179382, -17.60153389, 0.00000000, 0.00000000, 0.00000000, 115.08723450, 13.95206070, 77.93595123, 1.00000000, 0.00000000, 0.00000000, 0.00000000, -0.21720877, 0.06475188, 0.10854194, 0.00000000, 0.00000000, 0.00000000, 0.00000000
1, 2.6400, 264, 0.35425672, -0.94327807, 0.30862814, 1.42773283, -44.15431976, -12.20504284, 0.00000000, 0.00000000, 0.00000000, 115.01397705, 14.24960327, 77.57682037, 1.00000000, 0.00000000, 0.00000000, 0.00000000, -0.10998932, 0.06475630, 0.10189682, 0.00000000, 0.00000000, 0.00000000, 0.00000000
1, 2.6500, 265, 0.29324615, -0.94247943, 0.38501430, -0.94849104, -42.61137772, -9.81288242, 0.00000000, 0.00000000, 0.00000000, 114.91606140, 14.51840496, 77.22076416, 1.00000000, 0.00000000, 0.00000000, 0.00000000, -0.04420992, 0.06436568, 0.02351385, 0.00000000, 0.00000000, 0.00000000, 0.00000000
1, 2.6600, 266, 0.18857823, -0.99407238, 0.32470620, 3.33952975, -31.88356590, -11.47130775, 0.00000000, 0.00000000, 0.00000000, 114.81232452, 14.66983032, 76.76576233, 1.00000000, 0.00000000, 0.00000000, 0.00000000, 0.06429255, 0.11632627, 0.08225467, 0.00000000, 0.00000000, 0.00000000, 0.00000000
1, 2.6700, 267, 0.11453579, -1.01361704, 0.35078087, 0.62118351, -23.11952019, -13.18962288, 0.00000000, 0.00000000, 0.00000000, 114.77780151, 14.88653374, 76.60592651, 1.00000000, 0.00000000, 0.00000000, 0.00000000, 0.14101875, 0.13594270, 0.05465527, 0.00000000, 0.00000000, 0.00000000, 0.00000000
1, 2.6800, 268, 0.11701153, -0.97792929, 0.36036274, -4.02808189, -12.84713840, -17.03641891, 0.00000000, 0.00000000, 0.00000000, 114.72542572, 15.09504128, 76.55899048, 1.00000000, 0.00000000, 0.00000000, 0.00000000, 0.14210165, 0.10075834, 0.04390240, 0.00000000, 0.00000000, 0.00000000, 0.00000000
1, 2.6900, 269, 0.12198973, -0.95223778, 0.31449422, -3.53643966, -1.78711987, -21.07684517, 0.00000000, 0.00000000, 0.00000000, 114.70962524, 15.29397392, 76.63347626, 1.00000000, 0.00000000, 0.00000000, 0.00000000, 0.14054486, 0.07568431, 0.08890224, 0.00000000, 0.00000000, 0.00000000, 0.00000000
1, 2.7000, 270, 0.18742396, -0.92159951, 0.32600462, -1.02696955, 7.32116699, -23.24007225, 0.00000000, 0.00000000, 0.00000000, 114.74443054, 15.47444820, 76.80327606, 1.00000000, 0.00000000, 0.00000000, 0.00000000, 0.07828184, 0.04594535, 0.07726894, 0.00000000, 0.00000000, 0.00000000, 0.00000000
1, 2.7100, 271, 0.28476587, -0.89778537, 0.30657402, 0.26807410, 12.52372551, -25.20699120, 0.00000000, 0.00000000, 0.00000000, 114.71453094, 15.70036507, 77.34677124, 1.00000000, 0.00000000, 0.00000000, 0.00000000, -0.01592845, 0.02314684, 0.09682684, 0.00000000, 0.00000000, 0.00000000, 0.00000000
1, 2.7200, 272, 0.29588678, -0.90972829, 0.27971148, 2.24900126, 8.37720108, -26.64505577, 0.00000000, 0.00000000, 0.00000000, 114.79010773, 15.90726852, 77.54176331, 1.00000000, 0.00000000, 0.00000000, 0.00000000, -0.02311640, 0.03609370, 0.12322483, 0.00000000, 0.00000000, 0.00000000, 0.00000000
1, 2.7300, 273, 0.29906020, -0.91562861, 0.32254887, 2.57194519, 7.00090790, -26.07026100, 0.00000000, 0.00000000, 0.00000000, 114.86547852, 16.11447716, 77.72177124, 1.00000000, 0.00000000, 0.00000000, 0.00000000, -0.02281968, 0.04345335, 0.08118404, 0.00000000, 0.00000000, 0.00000000, 0.00000000
1, 2.7400, 274, 0.29163903, -0.91225880, 0.25227749, 3.10768867, 2.69414091, -27.05504990, 0.00000000, 0.00000000, 0.00000000, 114.93682098, 16.34854126, 77.86585999, 1.00000000, 0.00000000, 0.00000000, 0.00000000, -0.01167518, 0.04153873, 0.15203083, 0.00000000, 0.00000000, 0.00000000, 0.00000000
1, 2.7500, 275, 0.23546505, -0.92680150, 0.27527905, 8.20261765, -6.51072979, -28.62586021, 0.00000000, 0.00000000, 0.00000000, 115.03717041, 16.63550949, 77.93043518, 1.00000000, 0.00000000, 0.00000000, 0.00000000, 0.04898078, 0.05793793, 0.12989339, 0.00000000, 0.00000000, 0.00000000, 0.00000000
1, 2.7600, 276, 0.24149665, -0.91092443, 0.30586341, 9.12364578, -8.62620068, -32.35439301, 0.00000000, 0.00000000, 0.00000000, 115.08309937, 16.93935394, 77.98059082, 1.00000000, 0.00000000, 0.00000000, 0.00000000, 0.04805089, 0.04406452, 0.09998599, 0.00000000, 0.00000000, 0.00000000, 0.00000000
1, 2.7700, 277, 0.19291547, -0.92270738, 0.26848131, 10.73044300, -11.64106083, -37.72934341, 0.00000000, 0.00000000, 0.00000000, 115.20732880, 17.33036423, 78.03807831, 1.00000000, 0.00000000, 0.00000000, 0.00000000, 0.10244526, 0.05796735, 0.13769929, 0.00000000, 0.00000000, 0.00000000, 0.00000000
1, 2.7800, 278, 0.13669094, -0.92017484, 0.28389278, 9.51713657, -13.70872688, -42.53364182, 0.00000000, 0.00000000, 0.00000000, 115.32072449, 17.77351570, 78.09846497, 1.00000000, 0.00000000, 0.00000000, 0.00000000, 0.16575325, 0.05829126, 0.12314429, 0.00000000, 0.00000000, 0.00000000, 0.00000000
1, 2.7900, 279, 0.16939132, -0.89343369, 0.26221591, 9.84570789, -10.44750690, -48.36143112, 0.00000000, 0.00000000, 0.00000000, 115.45593262, 18.25521088, 78.21722412, 1.00000000, 0.00000000, 0.00000000, 0.00000000, 0.14080666, 0.03466451, 0.14556670, 0.00000000, 0.00000000, 0.00000000, 0.00000000
1, 2.8000, 280, 0.14260635, -0.90398592, 0.24638134, 12.72663879, -7.53733492, -54.15460205, 0.00000000, 0.00000000, 0.00000000, 115.63867950, 18.77630806, 78.39179993, 1.00000000, 0.00000000, 0.00000000, 0.00000000, 0.17600206, 0.04892638, 0.16270895, 0.00000000, 0.00000000, 0.00000000, 0.00000000
1, 2.8100, 281, 0.20689569, -0.89402467, 0.22276312, 10.87060356, -5.12250376, -60.42061234, 0.00000000, 0.00000000, 0.00000000, 115.74162292, 19.30584145, 78.58176422, 1.00000000, 0.00000000, 0.00000000, 0.00000000, 0.12057777, 0.04288019, 0.18748945, 0.00000000, 0.00000000, 0.00000000, 0.00000000
1, 2.8200, 282, 0.19067600, -0.91764086, 0.20508760, 9.74244499, -5.56729221, -67.13173676, 0.00000000, 0.00000000, 0.00000000, 115.92550659, 19.93431854, 78.83914948, 1.00000000, 0.00000000, 0.00000000, 0.00000000, 0.14632860, 0.07040328, 0.20552909, 0.00000000, 0.00000000, 0.00000000, 0.00000000
1, 2.8300, 283, 0.22499542, -0.96319473, 0.26277018, 8.99717140, -2.25400734, -73.78571320, 0.00000000, 0.00000000, 0.00000000, 116.12762451, 20.60723877, 79.16268158, 1.00000000, 0.00000000, 0.00000000, 0.00000000, 0.12281363, 0.12085670, 0.14891365, 0.00000000, 0.00000000, 0.00000000, 0.00000000
1, 2.8400, 284, 0.20004663, -1.05255151, 0.21522528, 11.06834602, -1.88846087, -81.05140686, 0.00000000, 0.00000000, 0.00000000, 116.36922455, 21.34252357, 79.52841949, 1.00000000, 0.00000000, 0.00000000, 0.00000000, 0.15931636, 0.21579614, 0.19791420, 0.00000000, 0.00000000, 0.00000000, 0.00000000
1, 2.8500, 285, 0.21974124, -1.07875931, 0.23203392, 11.48379803, -4.91205454, -85.99189758, 0.00000000, 0.00000000, 0.00000000, 116.61943817, 22.13405228, 79.89408112, 1.00000000, 0.00000000, 0.00000000, 0.00000000, 0.15215817, 0.24820437, 0.18251747, 0.00000000, 0.00000000, 0.00000000, 0.00000000
1, 2.8600, 286, 0.28675699, -1.07121646, 0.26088491, 13.66513538, -7.74886227, -90.86431885, 0.00000000, 0.00000000, 0.00000000, 116.84812927, 22.95245552, 80.20801544, 1.00000000, 0.00000000, 0.00000000, 0.00000000, 0.09837305, 0.24732654, 0.15488310, 0.00000000, 0.00000000, 0.00000000, 0.00000000
1, 2.8700, 287, 0.27654493, -1.07684958, 0.23024222, 14.79701710, -10.54309273, -97.49079132, 0.00000000, 0.00000000, 0.00000000, 117.14696503, 23.86899376, 80.58794403, 1.00000000, 0.00000000, 0.00000000, 0.00000000, 0.12249493, 0.26012802, 0.18654372, 0.00000000, 0.00000000, 0.00000000, 0.00000000
1, 2.8800, 288, 0.19682874, -1.07766962, 0.26897183, 11.84868050, -15.27279186, -102.93520355, 0.00000000, 0.00000000, 0.00000000, 117.41765594, 24.85383987, 80.95692444, 1.00000000, 0.00000000, 0.00000000, 0.00000000, 0.21755484, 0.26907229, 0.14867863, 0.00000000, 0.00000000, 0.00000000, 0.00000000
1, 2.8900, 289, 0.22070974, -1.05945504, 0.25018615, 14.93258095, -17.79506302, -107.65746307, 0.00000000, 0.00000000, 0.00000000, 117.72836304, 25.89055634, 81.33374023, 1.00000000, 0.00000000, 0.00000000, 0.00000000, 0.20972431, 0.25960273, 0.16806607, 0.00000000, 0.00000000, 0.00000000, 0.00000000
1, 2.9000, 290, 0.19034871, -1.10004449, 0.22733288, 20.23076630, -23.84253120, -112.74586487, 0.00000000, 0.00000000, 0.00000000, 118.08834076, 26.99849701, 81.68782806, 1.00000000, 0.00000000, 0.00000000, 0.00000000, 0.25708735, 0.31007534, 0.19185403, 0.00000000, 0.00000000, 0.00000000, 0.00000000
1, 2.9100, 291, 0.32931712, -1.09384286, 0.21844286, 19.90313530, -27.50597382, -117.98229980, 0.00000000, 0.00000000, 0.00000000, 118.40409851, 28.13967705, 81.97605133, 1.00000000, 0.00000000, 0.00000000, 0.00000000, 0.13576353, 0.31442448, 0.20128798, 0.00000000, 0.00000000, 0.00000000, 0.00000000
1, 2.9200, 292, 0.26928443, -1.13673747, 0.17089939, 19.72730446, -39.62369919, -124.72017670, 0.00000000, 0.00000000, 0.00000000, 118.73780823, 29.42449951, 82.25961304, 1.00000000, 0.00000000, 0.00000000, 0.00000000, 0.21457508, 0.36850685, 0.24821882, 0.00000000, 0.00000000, 0.00000000, 0.00000000
1, 2.9300, 293, 0.28808585, -1.13866901, 0.16792271, 21.07008362, -49.54267883, -126.34098816, 0.00000000, 0.00000000, 0.00000000, 119.05077362, 30.77005386, 82.46378326, 1.00000000, 0.00000000, 0.00000000, 0.00000000, 0.21583408, 0.38274083, 0.24991935, 0.00000000, 0.00000000, 0.00000000, 0.00000000
1, 2.9400, 294, 0.30025843, -1.17351329, 0.05813925, 26.42118835, -59.97724152, -130.43180847, 0.00000000, 0.00000000, 0.00000000, 119.38403320, 32.20124435, 82.59646606, 1.00000000, 0.00000000, 0.00000000, 0.00000000, 0.22452804, 0.43091300, 0.35790455, 0.00000000, 0.00000000, 0.00000000, 0.00000000
1, 2.9500, 295, 0.25000921, -1.22472775, -0.01031187, 28.73421860, -79.01161957, -133.20440674, 0.00000000, 0.00000000, 0.00000000, 119.65076447, 33.74975204, 82.55926514, 1.00000000, 0.00000000, 0.00000000, 0.00000000, 0.29697007, 0.49657631, 0.42328918, 0.00000000, 0.00000000, 0.00000000, 0.00000000
1, 2.9600, 296, 0.26556289, -1.25464272, -0.02667009, 28.20488167, -99.25641632, -133.03410339, 0.00000000, 0.00000000, 0.00000000, 119.74342346, 35.36653519, 82.22586060, 1.00000000, 0.00000000, 0.00000000, 0.00000000, 0.30463389, 0.54133093, 0.43409997, 0.00000000, 0.00000000, 0.00000000, 0.00000000
1, 2.9700, 297, 0.21209961, -1.34856558, 0.01715573, 30.55493164, -110.67177582, -136.87228394, 0.00000000, 0.00000000, 0.00000000, 119.84339905, 37.10425568, 81.87829590, 1.00000000, 0.00000000, 0.00000000, 0.00000000, 0.38191050, 0.65058196, 0.38271642, 0.00000000, 0.00000000, 0.00000000, 0.00000000
1, 2.9800, 298, 0.00154967, -1.52979553, 0.04519317, 32.74332428, -126.55006409, -142.61599731, 0.00000000, 0.00000000, 0.00000000, 119.86727905, 38.97118759, 81.38615417, 1.00000000, 0.00000000, 0.00000000, 0.00000000, 0.61770213, 0.84892714, 0.34578180, 0.00000000, 0.00000000, 0.00000000, 0.00000000
1, 2.9900, 299, -0.12840751, -1.59710383, 0.16980030, 38.18990326, -142.43690491, -143.16740417, 0.00000000, 0.00000000, 0.00000000, 119.81058502, 40.92181015, 80.70359802, 1.00000000, 0.00000000, 0.00000000, 0.00000000, 0.77361977, 0.93443680, 0.21030754, 0.00000000, 0.00000000, 0.00000000, 0.00000000
1, 3.0000, 300, -0.18225214, -1.55702245, 0.28366679, 44.57792664, -158.37278748, -147.12582397, 0.00000000, 0.00000000, 0.00000000, 119.67611694, 42.98496628, 79.83596039, 1.00000000, 0.00000000, 0.00000000, 0.00000000, 0.85392457, 0.91376430, 0.08371710, 0.00000000, 0.00000000, 0.00000000, 0.00000000
1, 3.0100, 301, -0.16446629, -1.50426781, 0.45134813, 51.00915909, -163.53376770, -153.23260498, 0.00000000, 0.00000000, 0.00000000, 119.53530121, 45.08106613, 78.75068665, 1.00000000, 0.00000000, 0.00000000, 0.00000000, 0.86293477, 0.88201201, -0.09802791, 0.00000000, 0.00000000, 0.00000000, 0.00000000
1, 3.0200, 302, 0.09051697, -1.53489459, 0.49645942, 64.54972076, -159.25494385, -159.70007324, 0.00000000, 0.00000000, 0.00000000, 119.55814362, 47.25545120, 77.88677216, 1.00000000, 0.00000000, 0.00000000, 0.00000000, 0.63412893, 0.93533528, -0.15689403, 0.00000000, 0.00000000, 0.00000000, 0.00000000
1, 3.0300, 303, 0.31529024, -1.71872103, 0.40434426, 70.73122406, -135.28060913, -166.77273560, 0.00000000, 0.00000000, 0.00000000, 119.87512207, 49.37423325, 77.36326599, 1.00000000, 0.00000000, 0.00000000, 0.00000000, 0.43459761, 1.14435375, -0.07622375, 0.00000000, 0.00000000, 0.00000000, 0.00000000
1, 3.0400, 304, 0.43821502, -1.92517602, 0.39230949, 61.96845245, -126.53502655, -169.18725586, 0.00000000, 0.00000000, 0.00000000, 120.19456482, 51.47233200, 76.97382355, 1.00000000, 0.00000000, 0.00000000, 0.00000000, 0.33543366, 1.37702096, -0.07468072, 0.00000000, 0.00000000, 0.00000000, 0.00000000
1, 3.0500, 305, 0.40182519, -1.88547444, 0.54590535, 36.52685547, -108.04882812, -162.91818237, 0.00000000, 0.00000000, 0.00000000, 120.41739655, 53.42398834, 76.79325104, 1.00000000, 0.00000000, 0.00000000, 0.00000000, 0.39372313, 1.36256373, -0.23999922, 0.00000000, 0.00000000, 0.00000000, 0.00000000
1, 3.0600, 306, 0.32066411, -1.73946154, 0.54257822, 11.30151367, -75.45896912, -160.30033875, 0.00000000, 0.00000000, 0.00000000, 120.74865723, 55.15047455, 76.94667816, 1.00000000, 0.00000000, 0.00000000, 0.00000000, 0.49368435, 1.24007344, -0.24698016, 0.00000000, 0.00000000, 0.00000000, 0.00000000
1, 3.0700, 307, 0.32319954, -1.67644608, 0.37171927, 0.94867140, -73.54626465, -159.73107910, 0.00000000, 0.00000000, 0.00000000, 121.03829956, 56.89878845, 77.28491974, 1.00000000, 0.00000000, 0.00000000, 0.00000000, 0.50813419, 1.19983113, -0.08597665, 0.00000000, 0.00000000, 0.00000000, 0.00000000
1, 3.0800, 308, 0.40118670, -1.52633536, 0.35297367, 3.53906608, -86.68437195, -154.30043030, 0.00000000, 0.00000000, 0.00000000, 121.16038513, 58.66775894, 77.38741302, 1.00000000, 0.00000000, 0.00000000, 0.00000000, 0.44691828, 1.07278037, -0.07923744, 0.00000000, 0.00000000, 0.00000000, 0.00000000
1, 3.0900, 309, 0.45511404, -1.34127259, 0.35892364, 6.95273161, -76.83473206, -148.15388489, 0.00000000, 0.00000000, 0.00000000, 121.42158508, 60.33285141, 77.60958862, 1.00000000, 0.00000000, 0.00000000, 0.00000000, 0.40844500, 0.91049379, -0.09694929, 0.00000000, 0.00000000, 0.00000000, 0.00000000
1, 3.1000, 310, 0.63655454, -1.12089908, 0.27900743, 9.55201626, -64.62847137, -132.55505371, 0.00000000, 0.00000000, 0.00000000, 121.77782440, 61.80051041, 77.90752411, 1.00000000, 0.00000000, 0.00000000, 0.00000000, 0.24027678, 0.71165615, -0.02674419, 0.00000000, 0.00000000, 0.00000000, 0.00000000
1, 3.1100, 311, 0.60273182, -1.00361705, 0.30131903, 9.76641846, -73.44493866, -107.53283691, 0.00000000, 0.00000000, 0.00000000, 121.71174622, 63.00405121, 77.42424011, 1.00000000, 0.00000000, 0.00000000, 0.00000000, 0.28509697, 0.61257249, -0.05880824, 0.00000000, 0.00000000, 0.00000000, 0.00000000
1, 3.1200, 312, 0.27927917, -0.96176553, 0.27043769, 0.88493699, -89.83399200, -68.03427124, 0.00000000, 0.00000000, 0.00000000, 120.88925171, 64.05228424, 76.49614716, 1.00000000, 0.00000000, 0.00000000, 0.00000000, 0.61708254, 0.58285958, -0.04035631, 0.00000000, 0.00000000, 0.00000000, 0.00000000
1, 3.1300, 313, 0.13201539, -0.82127583, 0.16024727, -25.59421730, -71.89628601, -30.10299683, 0.00000000, 0.00000000, 0.00000000, 119.65598297, 64.67484283, 75.41233826, 1.00000000, 0.00000000, 0.00000000, 0.00000000, 0.77041137, 0.44857618, 0.05586966, 0.00000000, 0.00000000, 0.00000000, 0.00000000
1, 3.1400, 314, 0.16514710, -0.68484914, 0.10702868, -10.00017929, -27.74204636, 0.08024355, 0.00000000, 0.00000000, 0.00000000, 119.04251862, 64.81006622, 74.84471130, 1.00000000, 0.00000000, 0.00000000, 0.00000000, 0.73965436, 0.31312948, 0.10071501, 0.00000000, 0.00000000, 0.00000000, 0.00000000
1, 3.1500, 315, 0.27271441, -0.65598238, 0.09198613, 12.29426098, 17.11793518, 25.76251221, 0.00000000, 0.00000000, 0.00000000, 119.21622467, 64.50164795, 74.90097809, 1.00000000, 0.00000000, 0.00000000, 0.00000000, 0.63098073, 0.28188926, 0.11630709, 0.00000000, 0.00000000, 0.00000000, 0.00000000
1, 3.1600, 316, 0.33952698, -0.59835863, 0.07952935, 10.65342712, 47.67098236, 50.88660049, 0.00000000, 0.00000000, 0.00000000, 119.57685852, 63.74479675, 75.00140381, 1.00000000, 0.00000000, 0.00000000, 0.00000000, 0.55993807, 0.21792780, 0.13545476, 0.00000000, 0.00000000, 0.00000000, 0.00000000
1, 3.1700, 317, 0.34340698, -0.50981313, 0.06993426, 2.38331795, 69.78947449, 76.23737335, 0.00000000, 0.00000000, 0.00000000, 120.04959106, 62.73630142, 75.50415039, 1.00000000, 0.00000000, 0.00000000, 0.00000000, 0.54872352, 0.11807861, 0.15505259, 0.00000000, 0.00000000, 0.00000000, 0.00000000
1, 3.1800, 318, 0.33693653, -0.42888799, 0.04812929, -0.64326632, 85.85563660, 99.16024017, 0.00000000, 0.00000000, 0.00000000, 120.49937439, 61.44709396, 76.02025604, 1.00000000, 0.00000000, 0.00000000, 0.00000000, 0.54558349, 0.02304750, 0.18937707, 0.00000000, 0.00000000, 0.00000000, 0.00000000
1, 3.1900, 319, 0.32528967, -0.39536297, 0.05338908, -1.33821988, 94.19009399, 121.50841522, 0.00000000, 0.00000000, 0.00000000, 120.82546997, 59.92154312, 76.40930176, 1.00000000, 0.00000000, 0.00000000, 0.00000000, 0.54514009, -0.02779707, 0.19806594, 0.00000000, 0.00000000, 0.00000000, 0.00000000
1, 3.2000, 320, 0.29415548, -0.36679131, 0.08193704, -7.04280519, 95.05197144, 145.68475342, 0.00000000, 0.00000000, 0.00000000, 120.87020111, 58.18338394, 76.54319000, 1.00000000, 0.00000000, 0.00000000, 0.00000000, 0.56163204, -0.07715014, 0.18352431, 0.00000000, 0.00000000, 0.00000000, 0.00000000
1, 3.2100, 321, 0.29283583, -0.34661201, 0.11212745, -16.73166275, 94.57988739, 168.56417847, 0.00000000, 0.00000000, 0.00000000, 120.61137390, 56.23226166, 76.38847351, 1.00000000, 0.00000000, 0.00000000, 0.00000000, 0.54566836, -0.12168369, 0.16628945, 0.00000000, 0.00000000, 0.00000000, 0.00000000
1, 3.2200, 322, 0.33794275, -0.34955594, 0.10686490, -24.63298035, 94.11306763, 190.70431519, 0.00000000, 0.00000000, 0.00000000, 120.14588165, 54.11109924, 76.12126923, 1.00000000, 0.00000000, 0.00000000, 0.00000000, 0.48036924, -0.14646077, 0.18334468, 0.00000000, 0.00000000, 0.00000000, 0.00000000
1, 3.2300, 323, 0.38307622, -0.36638609, 0.11012413, -31.22904015, 98.14278412, 213.45895386, 0.00000000, 0.00000000, 0.00000000, 119.55377197, 51.77122116, 75.77062988, 1.00000000, 0.00000000, 0.00000000, 0.00000000, 0.41199628, -0.15993574, 0.19105384, 0.00000000, 0.00000000, 0.00000000, 0.00000000
1, 3.2400, 324, 0.40354130, -0.39629552, 0.08816875, -36.26127243, 99.78642273, 235.39637756, 0.00000000, 0.00000000, 0.00000000, 118.85472870, 49.22957230, 75.33422852, 1.00000000, 0.00000000, 0.00000000, 0.00000000, 0.36463499, -0.16287643, 0.22339281, 0.00000000, 0.00000000, 0.00000000, 0.00000000
1, 3.2500, 325, 0.40159747, -0.43546250, 0.12666751, -40.81119156, 95.34307098, 258.62103271, 0.00000000, 0.00000000, 0.00000000, 118.01223755, 46.50135803, 74.74835968, 1.00000000, 0.00000000, 0.00000000, 0.00000000, 0.33609825, -0.15867466, 0.19367221, 0.00000000, 0.00000000, 0.00000000, 0.00000000
1, 3.2600, 326, 0.37708607, -0.47329432, 0.13698032, -45.57073975, 95.75508118, 278.24819946, 0.00000000, 0.00000000, 0.00000000, 117.10400391, 43.58586884, 74.11845398, 1.00000000, 0.00000000, 0.00000000, 0.00000000, 0.32612881, -0.15751497, 0.19066840, 0.00000000, 0.00000000, 0.00000000, 0.00000000
1, 3.2700, 327, 0.35328630, -0.51051015, 0.14276317, -46.18420029, 88.81015015, 293.29309082, 0.00000000, 0.00000000, 0.00000000, 116.17184448, 40.56601715, 73.41640472, 1.00000000, 0.00000000, 0.00000000, 0.00000000, 0.31196341, -0.15741095, 0.19054386, 0.00000000, 0.00000000, 0.00000000, 0.00000000
1, 3.2800, 328, 0.31043348, -0.55227768, 0.17088696, -51.40797043, 86.67065430, 305.79122925, 0.00000000, 0.00000000, 0.00000000, 115.21633911, 37.43472672, 72.71519470, 1.00000000, 0.00000000, 0.00000000, 0.00000000, 0.31361514, -0.15241568, 0.16633996, 0.00000000, 0.00000000, 0.00000000, 0.00000000
1, 3.2900, 329, 0.31257156, -0.58737510, 0.16263278, -56.79851532, 86.25798035, 316.52682495, 0.00000000, 0.00000000, 0.00000000, 114.25781250, 34.19895172, 72.04801178, 1.00000000, 0.00000000, 0.00000000, 0.00000000, 0.26691723, -0.15341423, 0.17671733, 0.00000000, 0.00000000, 0.00000000, 0.00000000
1, 3.3000, 330, 0.39787483, -0.62740558, 0.15223832, -53.83716965, 81.15537262, 327.85739136, 0.00000000, 0.00000000, 0.00000000, 113.34928894, 30.87165642, 71.35965729, 1.00000000, 0.00000000, 0.00000000, 0.00000000, 0.13385797, -0.14803617, 0.18786612, 0.00000000, 0.00000000, 0.00000000, 0.00000000
1, 3.3100, 331, 0.45020410, -0.68541700, 0.22233973, -51.68769455, 81.28791046, 339.92456055, 0.00000000, 0.00000000, 0.00000000, 112.50610352, 27.42939377, 70.72605133, 1.00000000, 0.00000000, 0.00000000, 0.00000000, 0.03037767, -0.12275396, 0.11766592, 0.00000000, 0.00000000, 0.00000000, 0.00000000
1, 3.3200, 332, 0.41209590, -0.76187754, 0.22120139, -51.50746155, 81.62683105, 348.15100098, 0.00000000, 0.00000000, 0.00000000, 111.72457123, 23.89673042, 70.11119080, 1.00000000, 0.00000000, 0.00000000, 0.00000000, 0.01402093, -0.07669924, 0.11777316, 0.00000000, 0.00000000, 0.00000000, 0.00000000
1, 3.3300, 333, 0.44378006, -0.89289933, 0.24085940, -45.52015686, 85.87088776, 350.77005005, 0.00000000, 0.00000000, 0.00000000, 111.07368469, 20.31761169, 69.59315491, 1.00000000, 0.00000000, 0.00000000, 0.00000000, -0.07468273, 0.02718310, 0.09676219, 0.00000000, 0.00000000, 0.00000000, 0.00000000
1, 3.3400, 334, 0.55963629, -1.02648795, 0.25036258, -38.64930725, 123.42057037, 351.37365723, 0.00000000, 0.00000000, 0.00000000, 110.65273285, 16.59496689, 69.49004364, 1.00000000, 0.00000000, 0.00000000, 0.00000000, -0.25065437, 0.13755320, 0.08726098, 0.00000000, 0.00000000, 0.00000000, 0.00000000
1, 3.3500, 335, 0.69084513, -1.19669175, 0.31785700, -34.35189438, 144.44898987, 349.08407593, 0.00000000, 0.00000000, 0.00000000, 110.34308624, 12.81947041, 69.62538147, 1.00000000, 0.00000000, 0.00000000, 0.00000000, -0.44502774, 0.28864652, 0.02079745, 0.00000000, 0.00000000, 0.00000000, 0.00000000
1, 3.3600, 336, 0.84292954, -1.36856341, 0.41579989, -28.66281509, 144.52903748, 338.90084839, 0.00000000, 0.00000000, 0.00000000, 110.08825684, 9.15590191, 69.87870789, 1.00000000, 0.00000000, 0.00000000, 0.00000000, -0.66052425, 0.44586086, -0.07663777, 0.00000000, 0.00000000, 0.00000000, 0.00000000
1, 3.3700, 337, 1.07476032, -1.49021554, 0.49843031, -27.16415024, 128.24000549, 317.86651611, 0.00000000, 0.00000000, 0.00000000, 109.83269501, 5.73043013, 69.99973297, 1.00000000, 0.00000000, 0.00000000, 0.00000000, -0.95309293, 0.55722946, -0.16011107, 0.00000000, 0.00000000, 0.00000000, 0.00000000
1, 3.3800, 338, 1.33189678, -1.53793597, 0.66257775, -30.85756874, 112.95800781, 289.13793945, 0.00000000, 0.00000000, 0.00000000, 109.53042603, 2.62758207, 70.08927917, 1.00000000, 0.00000000, 0.00000000, 0.00000000, -1.26624799, 0.59830862, -0.32707012, 0.00000000, 0.00000000, 0.00000000, 0.00000000
1, 3.3900, 339, 1.43487871, -1.39664674, 0.73736298, -55.39238739, 112.52205658, 246.75263977, 0.00000000, 0.00000000, 0.00000000, 108.98113251, -0.07291743, 70.33638763, 1.00000000, 0.00000000, 0.00000000, 0.00000000, -1.41902947, 0.45253855, -0.40837494, 0.00000000, 0.00000000, 0.00000000, 0.00000000
1, 3.4000, 340, 1.63173711, -1.17922616, 0.67054230, -63.30136871, 104.89399719, 209.83628845, 0.00000000, 0.00000000, 0.00000000, 108.34104156, -2.39653373, 70.65899658, 1.00000000, 0.00000000, 0.00000000, 0.00000000, -1.65884662, 0.23170488, -0.35220999, 0.00000000, 0.00000000, 0.00000000, 0.00000000
1, 3.4100, 341, 1.64505601, -1.01389313, 0.68540931, -45.43454742, 91.11092377, 174.24682617, 0.00000000, 0.00000000, 0.00000000, 107.86855316, -4.30301952, 71.10339355, 1.00000000, 0.00000000, 0.00000000, 0.00000000, -1.70845795, 0.06497429, -0.37646443, 0.00000000, 0.00000000, 0.00000000, 0.00000000
1, 3.4200, 342, 1.78218889, -0.89321011, 0.74896073, -32.74219894, 67.87768555, 119.76268768, 0.00000000, 0.00000000, 0.00000000, 107.51665497, -5.65032196, 71.38716125, 1.00000000, 0.00000000, 0.00000000, 0.00000000, -1.87265635, -0.05585961, -0.44723243, 0.00000000, 0.00000000, 0.00000000, 0.00000000
1, 3.4300, 343, 1.93933558, -0.74845433, 0.93410277, -28.74269676, 48.78040314, 73.95578003, 0.00000000, 0.00000000, 0.00000000, 107.20295715, -6.50173283, 71.63326263, 1.00000000, 0.00000000, 0.00000000, 0.00000000, -2.04757786, -0.20056164, -0.63807136, 0.00000000, 0.00000000, 0.00000000, 0.00000000
1, 3.4400, 344, 1.78327572, -0.57060575, 0.85768104, -29.28580093, 39.98021317, 37.40794373, 0.00000000, 0.00000000, 0.00000000, 106.87775421, -6.97650719, 71.90768433, 1.00000000, 0.00000000, 0.00000000, 0.00000000, -1.90214944, -0.37894684, -0.56748784, 0.00000000, 0.00000000, 0.00000000, 0.00000000
1, 3.4500, 345, 1.63594139, -0.53192663, 0.76184875, -4.82136583, 32.72536087, 0.55473864, 0.00000000, 0.00000000, 0.00000000, 106.79095459, -7.07644367, 72.22167969, 1.00000000, 0.00000000, 0.00000000, 0.00000000, -1.75899541, -0.41813099, -0.47505963, 0.00000000, 0.00000000, 0.00000000, 0.00000000
1, 3.4600, 346, 1.60872257, -0.60272461, 0.71930593, 20.63467026, 26.82183838, -39.53201294, 0.00000000, 0.00000000, 0.00000000, 106.95935822, -6.71749401, 72.80126953, 1.00000000, 0.00000000, 0.00000000, 0.00000000, -1.72896576, -0.34723526, -0.43101358, 0.00000000, 0.00000000, 0.00000000, 0.00000000
1, 3.4700, 347, 1.57301605, -0.60998738, 0.72166473, 31.75674629, 17.60033035, -76.61258698, 0.00000000, 0.00000000, 0.00000000, 107.23281860, -6.03692818, 73.19721222, 1.00000000, 0.00000000, 0.00000000, 0.00000000, -1.68305790, -0.33988148, -0.42904609, 0.00000000, 0.00000000, 0.00000000, 0.00000000
1, 3.4800, 348, 1.44316804, -0.60474771, 0.70516062, 46.67018890, 21.41876411, -105.06374359, 0.00000000, 0.00000000, 0.00000000, 107.64896393, -5.09876966, 73.71884155, 1.00000000, 0.00000000, 0.00000000, 0.00000000, -1.53841889, -0.34471348, -0.40612185, 0.00000000, 0.00000000, 0.00000000, 0.00000000
1, 3.4900, 349, 1.42889059, -0.52707875, 0.60892165, 54.21105576, 18.83678436, -124.20805359, 0.00000000, 0.00000000, 0.00000000, 108.14642334, -3.97466350, 74.28166962, 1.00000000, 0.00000000, 0.00000000, 0.00000000, -1.50576520, -0.42137253, -0.30152392, 0.00000000, 0.00000000, 0.00000000, 0.00000000
1, 3.5000, 350, 0.07414588, -0.86362147, 0.05462987, 64.64157867, 4.37434530, -127.25358582, 0.00000000, 0.00000000, 0.00000000, 108.76607513, -2.78096390, 74.72638702, 1.00000000, 0.00000000, 0.00000000, 0.00000000, -0.13042375, -0.08310317, 0.26238996, 0.00000000, 0.00000000, 0.00000000, 0.00000000
1, 3.5100, 351, -1.06493819, -1.89641345, -0.59377927, 45.66617966, -150.75219727, -95.12931061, 0.00000000, 0.00000000, 0.00000000, 109.25341797, -1.39519274, 73.60675049, 1.00000000, 0.00000000, 0.00000000, 0.00000000, 1.03185701, 0.95196795, 0.92070305, 0.00000000, 0.00000000, 0.00000000, 0.00000000
1, 3.5200, 352, -0.57882535, -2.92728591, -0.06623688, 67.42953491, -58.05324936, -47.17760086, 0.00000000, 0.00000000, 0.00000000, 109.93661499, -0.75883931, 73.21644592, 1.00000000, 0.00000000, 0.00000000, 0.00000000, 0.56279808, 1.98551345, 0.40207639, 0.00000000, 0.00000000, 0.00000000, 0.00000000
1, 3.5300, 353, 0.17232248, -1.74694479, 0.26901162, 47.40483856, 119.75037384, -135.67440796, 0.00000000, 0.00000000, 0.00000000, 110.40118408, 0.09937251, 74.80977631, 1.00000000, 0.00000000, 0.00000000, 0.00000000, -0.17713174, 0.80903566, 0.07779977, 0.00000000, 0.00000000, 0.00000000, 0.00000000
1, 3.5400, 354, 1.06991291, -1.05507672, 0.54859090, 46.41493225, 153.88282776, -182.57760620, 0.00000000, 0.00000000, 0.00000000, 110.88908386, 1.26722682, 76.89286804, 1.00000000, 0.00000000, 0.00000000, 0.00000000, -1.05583513, 0.11948442, -0.19584846, 0.00000000, 0.00000000, 0.00000000, 0.00000000
1, 3.5500, 355, 1.08458400, -0.91239107, 0.76018596, 65.54181671, 34.04422760, -178.55482483, 0.00000000, 0.00000000, 0.00000000, 111.57505035, 2.80959439, 77.85791016, 1.00000000, 0.00000000, 0.00000000, 0.00000000, -1.04624224, -0.01842809, -0.39682066, 0.00000000, 0.00000000, 0.00000000, 0.00000000
1, 3.5600, 356, 0.50665826, -0.71449947, 0.32132822, 63.16883087, -48.09546280, -163.72740173, 0.00000000, 0.00000000, 0.00000000, 112.19895172, 4.58869457, 78.35788727, 1.00000000, 0.00000000, 0.00000000, 0.00000000, -0.43842915, -0.21057910, 0.05215697, 0.00000000, 0.00000000, 0.00000000, 0.00000000
1, 3.5700, 357, 0.77147901, -0.62579036, 0.23233289, 32.47589874, -4.19943810, -146.71749878, 0.00000000, 0.00000000, 0.00000000, 112.57265472, 5.96102142, 78.88019562, 1.00000000, 0.00000000, 0.00000000, 0.00000000, -0.67618012, -0.29425359, 0.14765672, 0.00000000, 0.00000000, 0.00000000, 0.00000000
1, 3.5800, 358, 0.61035490, -0.74580705, 0.28428915, 46.74181366, 38.00001907, -130.48788452, 0.00000000, 0.00000000, 0.00000000, 113.13832855, 7.01603222, 79.74203491, 1.00000000, 0.00000000, 0.00000000, 0.00000000, -0.49451065, -0.16915360, 0.10222644, 0.00000000, 0.00000000, 0.00000000, 0.00000000
1, 3.5900, 359, 0.49094772, -0.91515422, 0.19046240, 56.29378128, 30.49148178, -97.39242554, 0.00000000, 0.00000000, 0.00000000, 113.78746033, 7.78851080, 80.41501617, 1.00000000, 0.00000000, 0.00000000, 0.00000000, -0.36017823, 0.00635128, 0.20571218, 0.00000000, 0.00000000, 0.00000000, 0.00000000
1, 3.6000, 360, 0.52869183, -1.04257286, 0.28332740, 36.87444687, -5.38859701, -72.16896820, 0.00000000, 0.00000000, 0.00000000, 114.19107819, 8.46973133, 80.66184998, 1.00000000, 0.00000000, 0.00000000, 0.00000000, -0.38561767, 0.13886099, 0.12018325, 0.00000000, 0.00000000, 0.00000000, 0.00000000
1, 3.6100, 361, 0.51352805, -0.99470609, 0.29295751, 26.32726097, -1.73751783, -56.52758408, 0.00000000, 0.00000000, 0.00000000, 114.44470978, 9.09918118, 81.34529877, 1.00000000, 0.00000000, 0.00000000, 0.00000000, -0.36002499, 0.09453538, 0.11461850, 0.00000000, 0.00000000, 0.00000000, 0.00000000
1, 3.6200, 362, 0.48676437, -1.01467645, 0.37180218, 35.39302063, -10.83662415, -49.08118439, 0.00000000, 0.00000000, 0.00000000, 114.81600952, 9.59057140, 81.45274353, 1.00000000, 0.00000000, 0.00000000, 0.00000000, -0.32333893, 0.11819267, 0.04002295, 0.00000000, 0.00000000, 0.00000000, 0.00000000
1, 3.6300, 363, 0.46573988, -1.07611299, 0.41743839, 40.93286133, -11.73902702, -42.03747940, 0.00000000, 0.00000000, 0.00000000, 115.23770905, 10.02113724, 81.52522278, 1.00000000, 0.00000000, 0.00000000, 0.00000000, -0.29440570, 0.18377905, 0.00014567, 0.00000000, 0.00000000, 0.00000000, 0.00000000
1, 3.6400, 364, 0.34171095, -1.05976379, 0.42240125, 33.62084579, -15.76761627, -40.24555969, 0.00000000, 0.00000000, 0.00000000, 115.57933807, 10.45234585, 81.55605316, 1.00000000, 0.00000000, 0.00000000, 0.00000000, -0.16311637, 0.17142655, 0.00062792, 0.00000000, 0.00000000, 0.00000000, 0.00000000
1, 3.6500, 365, 0.26233882, -0.99493819, 0.41489309, 22.03628159, -21.92546654, -38.39145279, 0.00000000, 0.00000000, 0.00000000, 115.79380798, 10.89337063, 81.52435303, 1.00000000, 0.00000000, 0.00000000, 0.00000000, -0.07617524, 0.10974394, 0.01145038, 0.00000000, 0.00000000, 0.00000000, 0.00000000
1, 3.6600, 366, 0.30013201, -0.98734623, 0.47457078, 21.30055046, -19.78867149, -35.38240051, 0.00000000, 0.00000000, 0.00000000, 115.99793243, 11.32966709, 81.62534332, 1.00000000, 0.00000000, 0.00000000, 0.00000000, -0.10660902, 0.10496172, -0.04568733, 0.00000000, 0.00000000, 0.00000000, 0.00000000
1, 3.6700, 367, 0.25094736, -1.03192842, 0.41818675, 17.24354935, -14.59870911, -31.49174309, 0.00000000, 0.00000000, 0.00000000, 116.17187500, 11.67669487, 81.63288116, 1.00000000, 0.00000000, 0.00000000, 0.00000000, -0.05071653, 0.15219477, 0.01305903, 0.00000000, 0.00000000, 0.00000000, 0.00000000
1, 3.6800, 368, 0.29878524, -0.99843937, 0.42453128, 4.89701748, -12.47953033, -28.69076729, 0.00000000, 0.00000000, 0.00000000, 116.22394562, 11.98921585, 81.64795685, 1.00000000, 0.00000000, 0.00000000, 0.00000000, -0.09298865, 0.12051328, 0.00777796, 0.00000000, 0.00000000, 0.00000000, 0.00000000
1, 3.6900, 369, 0.40418708, -0.96194917, 0.45525023, 1.20374072, -10.75803471, -25.61541367, 0.00000000, 0.00000000, 0.00000000, 116.23958588, 12.26654053, 81.66503906, 1.00000000, 0.00000000, 0.00000000, 0.00000000, -0.19347927, 0.08505909, -0.02320379, 0.00000000, 0.00000000, 0.00000000, 0.00000000
1, 3.7000, 370, 0.40004891, -0.96187663, 0.39642817, 5.90024662, -19.75163078, -21.36913872, 0.00000000, 0.00000000, 0.00000000, 116.28033447, 12.54558182, 81.58046722, 1.00000000, 0.00000000, 0.00000000, 0.00000000, -0.18465507, 0.08617342, 0.03571478, 0.00000000, 0.00000000, 0.00000000, 0.00000000
1, 3.7100, 371, 0.43680593, -0.95885903, 0.37962615, 3.46616435, -36.41660309, -13.52120304, 0.00000000, 0.00000000, 0.00000000, 116.22200775, 12.94437408, 81.78437042, 1.00000000, 0.00000000, 0.00000000, 0.00000000, -0.21610993, 0.08421893, 0.05199097, 0.00000000, 0.00000000, 0.00000000, 0.00000000
1, 3.7200, 372, 0.43027970, -0.91512579, 0.37623602, -1.18789470, -49.06437302, -8.87107754, 0.00000000, 0.00000000, 0.00000000, 116.11679077, 13.24036694, 81.37243652, 1.00000000, 0.00000000, 0.00000000, 0.00000000, -0.20313945, 0.04099435, 0.05306483, 0.00000000, 0.00000000, 0.00000000, 0.00000000
1, 3.7300, 373, 0.28214726, -0.94241989, 0.35212597, 3.11002088, -51.43460464, -6.74673271, 0.00000000, 0.00000000, 0.00000000, 116.04500580, 13.52707291, 80.92803955, 1.00000000, 0.00000000, 0.00000000, 0.00000000, -0.05002054, 0.06869668, 0.07533484, 0.00000000, 0.00000000, 0.00000000, 0.00000000
1, 3.7400, 374, 0.24545379, -0.96418095, 0.38055494, 4.90085697, -44.59290695, -4.95557594, 0.00000000, 0.00000000, 0.00000000, 116.00200653, 13.76723766, 80.53805542, 1.00000000, 0.00000000, 0.00000000, 0.00000000, -0.00895995, 0.09099905, 0.04561715, 0.00000000, 0.00000000, 0.00000000, 0.00000000
1, 3.7500, 375, 0.15846024, -0.98399073, 0.35927799, 4.22694540, -34.60515976, -6.19451237, 0.00000000, 0.00000000, 0.00000000, 115.97418213, 13.97455597, 80.24561310, 1.00000000, 0.00000000, 0.00000000, 0.00000000, 0.08175160, 0.11139958, 0.06602409, 0.00000000, 0.00000000, 0.00000000, 0.00000000
1, 3.7600, 376, 0.12754221, -0.95730245, 0.36891836, -0.78807878, -24.36968613, -9.28480244, 0.00000000, 0.00000000, 0.00000000, 115.86383057, 14.04149818, 79.66419983, 1.00000000, 0.00000000, 0.00000000, 0.00000000, 0.11547688, 0.08492625, 0.05522855, 0.00000000, 0.00000000, 0.00000000, 0.00000000
1, 3.7700, 377, 0.12123457, -0.94188285, 0.35193697, -0.15850887, -8.52802372, -12.67557144, 0.00000000, 0.00000000, 0.00000000, 115.85686493, 14.19275761, 79.64206696, 1.00000000, 0.00000000, 0.00000000, 0.00000000, 0.12303006, 0.06923477, 0.07093372, 0.00000000, 0.00000000, 0.00000000, 0.00000000
1, 3.7800, 378, 0.11419568, -0.94467407, 0.34042612, 3.17983747, 3.02476501, -13.68267822, 0.00000000, 0.00000000, 0.00000000, 115.91076660, 14.30264187, 79.73176575, 1.00000000, 0.00000000, 0.00000000, 0.00000000, 0.13221994, 0.07275997, 0.08271077, 0.00000000, 0.00000000, 0.00000000, 0.00000000
1, 3.7900, 379, 0.30088928, -0.90262359, 0.37118778, 6.04863691, 13.47879505, -13.62954330, 0.00000000, 0.00000000, 0.00000000, 116.01748657, 14.36617947, 79.91841888, 1.00000000, 0.00000000, 0.00000000, 0.00000000, -0.05314863, 0.03163742, 0.05308487, 0.00000000, 0.00000000, 0.00000000, 0.00000000
1, 3.8000, 380, 0.38316673, -0.91370183, 0.32491007, 13.11838245, 12.08517838, -15.02744198, 0.00000000, 0.00000000, 0.00000000, 116.19352722, 14.44796753, 80.09873199, 1.00000000, 0.00000000, 0.00000000, 0.00000000, -0.13424049, 0.04412270, 0.10154860, 0.00000000, 0.00000000, 0.00000000, 0.00000000
1, 3.8100, 381, 0.35680884, -0.93013406, 0.31885529, 13.58009529, 3.47587228, -14.74961090, 0.00000000, 0.00000000, 0.00000000, 116.21945190, 14.67752457, 80.78073883, 1.00000000, 0.00000000, 0.00000000, 0.00000000, -0.10565818, 0.06211533, 0.10947215, 0.00000000, 0.00000000, 0.00000000, 0.00000000
1, 3.8200, 382, 0.31521469, -0.91400975, 0.35474825, 9.97549915, -7.20895767, -12.92405224, 0.00000000, 0.00000000, 0.00000000, 116.31723022, 14.82533550, 80.77304077, 1.00000000, 0.00000000, 0.00000000, 0.00000000, -0.06030039, 0.04701801, 0.07343769, 0.00000000, 0.00000000, 0.00000000, 0.00000000
1, 3.8300, 383, 0.24425992, -0.91235930, 0.34537894, 14.53104591, -14.80421543, -12.07190037, 0.00000000, 0.00000000, 0.00000000, 116.44149017, 14.99927521, 80.69128418, 1.00000000, 0.00000000, 0.00000000, 0.00000000, 0.01340609, 0.04682139, 0.08409884, 0.00000000, 0.00000000, 0.00000000, 0.00000000
1, 3.8400, 384, 0.12386317, -0.92614287, 0.32510886, 18.82021141, -26.53674889, -13.08517838, 0.00000000, 0.00000000, 0.00000000, 116.58132935, 15.23484421, 80.50585175, 1.00000000, 0.00000000, 0.00000000, 0.00000000, 0.13730186, 0.06250313, 0.10607261, 0.00000000, 0.00000000, 0.00000000, 0.00000000
1, 3.8500, 385, 0.10066155, -0.88360596, 0.35580960, 19.17170143, -32.10324478, -20.59224510, 0.00000000, 0.00000000, 0.00000000, 116.71949005, 15.56288719, 80.30406952, 1.00000000, 0.00000000, 0.00000000, 0.00000000, 0.16543552, 0.02219445, 0.07680964, 0.00000000, 0.00000000, 0.00000000, 0.00000000
1, 3.8600, 386, 0.02747506, -0.88386130, 0.35013530, 20.81775284, -33.97451401, -29.78651428, 0.00000000, 0.00000000, 0.00000000, 116.85811615, 15.87004757, 79.72016907, 1.00000000, 0.00000000, 0.00000000, 0.00000000, 0.24467424, 0.02505718, 0.08390085, 0.00000000, 0.00000000, 0.00000000, 0.00000000
1, 3.8700, 387, -0.00064673, -0.86743987, 0.35486892, 18.78009605, -28.50785065, -38.76168060, 0.00000000, 0.00000000, 0.00000000, 117.02330780, 16.34474754, 79.63848114, 1.00000000, 0.00000000, 0.00000000, 0.00000000, 0.27900061, 0.01136267, 0.08061345, 0.00000000, 0.00000000, 0.00000000, 0.00000000
1, 3.8800, 388, 0.03354361, -0.85465550, 0.31760803, 17.12205124, -22.75620651, -47.51065063, 0.00000000, 0.00000000, 0.00000000, 117.19877625, 16.87133217, 79.65304565, 1.00000000, 0.00000000, 0.00000000, 0.00000000, 0.25332686, 0.00208852, 0.11922994, 0.00000000, 0.00000000, 0.00000000, 0.00000000
1, 3.8900, 389, 0.08426060, -0.87961072, 0.31238994, 18.98633957, -13.79744911, -55.47746658, 0.00000000, 0.00000000, 0.00000000, 117.42945099, 17.42754745, 79.79116821, 1.00000000, 0.00000000, 0.00000000, 0.00000000, 0.21172251, 0.03111251, 0.12628543, 0.00000000, 0.00000000, 0.00000000, 0.00000000
1, 3.9000, 390, 0.20219801, -0.93051451, 0.28500822, 18.94074631, -9.67930126, -63.09299088, 0.00000000, 0.00000000, 0.00000000, 117.68478394, 18.03166008, 80.00754547, 1.00000000, 0.00000000, 0.00000000, 0.00000000, 0.10350950, 0.08664770, 0.15592411, 0.00000000, 0.00000000, 0.00000000, 0.00000000
1, 3.9100, 391, 0.22507773, -1.01701975, 0.26479146, 16.36658287, -11.14606094, -70.58591461, 0.00000000, 0.00000000, 0.00000000, 117.86163330, 18.67119026, 80.17622375, 1.00000000, 0.00000000, 0.00000000, 0.00000000, 0.09120597, 0.17801984, 0.17796499, 0.00000000, 0.00000000, 0.00000000, 0.00000000
1, 3.9200, 392, 0.21402559, -1.10617793, 0.25063100, 15.88283253, -15.71691990, -75.51615143, 0.00000000, 0.00000000, 0.00000000, 118.09483337, 19.41182518, 80.40416718, 1.00000000, 0.00000000, 0.00000000, 0.00000000, 0.11367816, 0.27204031, 0.19300196, 0.00000000, 0.00000000, 0.00000000, 0.00000000
1, 3.9300, 393, 0.25876036, -1.15708888, 0.24643210, 17.65990067, -18.53797150, -81.76585388, 0.00000000, 0.00000000, 0.00000000, 118.35193634, 20.21993256, 80.64157104, 1.00000000, 0.00000000, 0.00000000, 0.00000000, 0.08182113, 0.32889763, 0.19863673, 0.00000000, 0.00000000, 0.00000000, 0.00000000
1, 3.9400, 394, 0.15278420, -1.17787194, 0.24291560, 14.81471252, -19.46310806, -88.26912689, 0.00000000, 0.00000000, 0.00000000, 118.59426880, 21.08862305, 80.90853119, 1.00000000, 0.00000000, 0.00000000, 0.00000000, 0.20165712, 0.35616186, 0.20334034, 0.00000000, 0.00000000, 0.00000000, 0.00000000
