SensorId, TimeStamp (s), FrameNumber, AccX (g), AccY (g), AccZ (g), GyroX (deg/s), GyroY (deg/s), GyroZ (deg/s), MagX (uT), MagY (uT), MagZ (uT), EulerX (deg), EulerY (deg), EulerZ (deg), QuatW, QuatX, QuatY, QuatZ, LinAccX (g), LinAccY (g), LinAccZ (g), Pressure (kPa), Altitude (m), Temperature (degC), HeaveMotion (m)
1, 0.0000, 0, 0.21234323, -0.94849843, 0.29687038, -16.42114067, -6.22550774, -46.12067413, 0.00000000, 0.00000000, 0.00000000, 104.84205627, 10.82397556, 55.60330582, 1.00000000, 0.00000000, 0.00000000, 0.00000000, -0.02755085, -0.00125758, -0.04426504, 0.00000000, 0.00000000, 0.00000000, 0.00000000
1, 0.0100, 1, 0.18994702, -1.00224364, 0.29906690, -11.51577377, -22.06692886, -41.29272079, 0.00000000, 0.00000000, 0.00000000, 104.70571136, 11.27949619, 55.49319077, 1.00000000, 0.00000000, 0.00000000, 0.00000000, 0.00276254, 0.05336620, -0.04908802, 0.00000000, 0.00000000, 0.00000000, 0.00000000
1, 0.0200, 2, 0.22671711, -0.99850696, 0.29390827, -10.94608402, -36.71369553, -35.03267670, 0.00000000, 0.00000000, 0.00000000, 104.54190826, 11.71114731, 55.22093201, 1.00000000, 0.00000000, 0.00000000, 0.00000000, -0.02648955, 0.05041333, -0.04688103, 0.00000000, 0.00000000, 0.00000000, 0.00000000
1, 0.0300, 3, 0.12414759, -1.00542080, 0.34249836, -10.50026417, -38.80848694, -32.56045532, 0.00000000, 0.00000000, 0.00000000, 104.38929749, 12.08909321, 54.91998672, 1.00000000, 0.00000000, 0.00000000, 0.00000000, 0.08310804, 0.05804133, -0.09854446, 0.00000000, 0.00000000, 0.00000000, 0.00000000
1, 0.0400, 4, 0.08000567, -1.00311136, 0.32236546, -7.32102108, -40.71016693, -31.92182159, 0.00000000, 0.00000000, 0.00000000, 104.24731445, 12.49907112, 54.59707260, 1.00000000, 0.00000000, 0.00000000, 0.00000000, 0.13378835, 0.05650538, -0.08106750, 0.00000000, 0.00000000, 0.00000000, 0.00000000
1, 0.0500, 5, 0.08599073, -1.01555085, 0.29166278, -9.74054623, -40.52107620, -33.18490982, 0.00000000, 0.00000000, 0.00000000, 104.07964325, 12.92000580, 54.27756882, 1.00000000, 0.00000000, 0.00000000, 0.00000000, 0.13490602, 0.06982121, -0.05334530, 0.00000000, 0.00000000, 0.00000000, 0.00000000
1, 0.0600, 6, -0.02257727, -1.02346957, 0.26852682, -8.00796318, -38.02606964, -35.03162003, 0.00000000, 0.00000000, 0.00000000, 103.93326569, 13.35194778, 53.98576355, 1.00000000, 0.00000000, 0.00000000, 0.00000000, 0.25075617, 0.07872103, -0.03319822, 0.00000000, 0.00000000, 0.00000000, 0.00000000
1, 0.0700, 7, -0.00184625, -1.00711155, 0.25950006, -9.76641846, -34.44791031, -35.40539169, 0.00000000, 0.00000000, 0.00000000, 103.77538300, 13.77819824, 53.72893143, 1.00000000, 0.00000000, 0.00000000, 0.00000000, 0.23730618, 0.06342211, -0.02711264, 0.00000000, 0.00000000, 0.00000000, 0.00000000
1, 0.0800, 8, 0.03981692, -1.03703821, 0.25877982, -11.11566257, -30.41930580, -36.95130157, 0.00000000, 0.00000000, 0.00000000, 103.61973572, 14.14999294, 53.51590729, 1.00000000, 0.00000000, 0.00000000, 0.00000000, 0.20263898, 0.09439021, -0.02937659, 0.00000000, 0.00000000, 0.00000000, 0.00000000
1, 0.0900, 9, 0.07716300, -1.04449201, 0.25256661, -12.67733765, -27.82351685, -38.68649673, 0.00000000, 0.00000000, 0.00000000, 103.44685364, 14.59123421, 53.33013153, 1.00000000, 0.00000000, 0.00000000, 0.00000000, 0.17196429, 0.10283539, -0.02626336, 0.00000000, 0.00000000, 0.00000000, 0.00000000
1, 0.1000, 10, 0.14197700, -1.00332510, 0.25076208, -14.02660275, -30.90678406, -38.51383972, 0.00000000, 0.00000000, 0.00000000, 103.25054932, 15.03732586, 53.11103821, 1.00000000, 0.00000000, 0.00000000, 0.00000000, 0.11463664, 0.06282650, -0.02803769, 0.00000000, 0.00000000, 0.00000000, 0.00000000
1, 0.1100, 11, 0.13380790, -0.97636211, 0.23544711, -13.13025379, -31.61227036, -39.07560730, 0.00000000, 0.00000000, 0.00000000, 103.05950928, 15.48977661, 52.88415527, 1.00000000, 0.00000000, 0.00000000, 0.00000000, 0.13038793, 0.03712153, -0.01630794, 0.00000000, 0.00000000, 0.00000000, 0.00000000
1, 0.1200, 12, 0.13306235, -0.98292160, 0.25073600, -14.32385063, -33.14266205, -40.70645905, 0.00000000, 0.00000000, 0.00000000, 102.85102844, 15.96078777, 52.64341354, 1.00000000, 0.00000000, 0.00000000, 0.00000000, 0.13892800, 0.04502028, -0.03543140, 0.00000000, 0.00000000, 0.00000000, 0.00000000
1, 0.1300, 13, 0.10698971, -0.99833596, 0.23739518, -18.06731415, -33.30639267, -41.13504791, 0.00000000, 0.00000000, 0.00000000, 102.60990143, 16.38535500, 52.40123367, 1.00000000, 0.00000000, 0.00000000, 0.00000000, 0.17275080, 0.06176242, -0.02627954, 0.00000000, 0.00000000, 0.00000000, 0.00000000
1, 0.1400, 14, 0.06247454, -0.97086608, 0.24260359, -24.95537376, -29.05099106, -40.63308716, 0.00000000, 0.00000000, 0.00000000, 102.30187225, 16.84481049, 52.19672012, 1.00000000, 0.00000000, 0.00000000, 0.00000000, 0.22445267, 0.03534663, -0.03652361, 0.00000000, 0.00000000, 0.00000000, 0.00000000
1, 0.1500, 15, 0.13582104, -0.94764489, 0.21259072, -30.32343483, -27.25807381, -39.95127487, 0.00000000, 0.00000000, 0.00000000, 101.94258881, 17.29267502, 52.00571823, 1.00000000, 0.00000000, 0.00000000, 0.00000000, 0.15863116, 0.01314284, -0.01260052, 0.00000000, 0.00000000, 0.00000000, 0.00000000
1, 0.1600, 16, 0.16933171, -0.93454736, 0.15649070, -32.75390625, -21.18994522, -40.72494507, 0.00000000, 0.00000000, 0.00000000, 101.57579803, 17.73459435, 51.87522507, 1.00000000, 0.00000000, 0.00000000, 0.00000000, 0.13252315, 0.00104687, 0.03703669, 0.00000000, 0.00000000, 0.00000000, 0.00000000
1, 0.1700, 17, 0.14682427, -0.92898262, 0.15543184, -31.73962402, -16.18305588, -41.46579361, 0.00000000, 0.00000000, 0.00000000, 101.23361206, 18.17309189, 51.79470444, 1.00000000, 0.00000000, 0.00000000, 0.00000000, 0.16237527, -0.00336519, 0.03196138, 0.00000000, 0.00000000, 0.00000000, 0.00000000
1, 0.1800, 18, 0.16741732, -0.89360422, 0.17040507, -35.70657349, -12.86736584, -40.52069092, 0.00000000, 0.00000000, 0.00000000, 100.85884094, 18.55715752, 51.74457169, 1.00000000, 0.00000000, 0.00000000, 0.00000000, 0.14869508, -0.03768462, 0.01061341, 0.00000000, 0.00000000, 0.00000000, 0.00000000
1, 0.1900, 19, 0.16332318, -0.89778644, 0.19026189, -35.12224579, -9.32664299, -41.29106140, 0.00000000, 0.00000000, 0.00000000, 100.50249481, 18.98021507, 51.72859955, 1.00000000, 0.00000000, 0.00000000, 0.00000000, 0.15930136, -0.03247671, -0.01557077, 0.00000000, 0.00000000, 0.00000000, 0.00000000
1, 0.2000, 20, 0.21787742, -0.92123324, 0.21394336, -31.92000198, -8.63099957, -42.44200134, 0.00000000, 0.00000000, 0.00000000, 100.18022919, 19.41323853, 51.71933746, 1.00000000, 0.00000000, 0.00000000, 0.00000000, 0.11181599, -0.00764363, -0.04517277, 0.00000000, 0.00000000, 0.00000000, 0.00000000
1, 0.2100, 21, 0.25871265, -0.95524424, 0.18180668, -30.43513298, -10.82204151, -41.96102905, 0.00000000, 0.00000000, 0.00000000, 99.86389923, 19.84526634, 51.68371964, 1.00000000, 0.00000000, 0.00000000, 0.00000000, 0.07810944, 0.02793649, -0.01857505, 0.00000000, 0.00000000, 0.00000000, 0.00000000
1, 0.2200, 22, 0.26917598, -0.96333510, 0.16479151, -27.76852608, -13.33642197, -41.06086349, 0.00000000, 0.00000000, 0.00000000, 99.56350708, 20.27248764, 51.61752319, 1.00000000, 0.00000000, 0.00000000, 0.00000000, 0.07470544, 0.03768098, -0.00698159, 0.00000000, 0.00000000, 0.00000000, 0.00000000
1, 0.2300, 23, 0.28156641, -0.96938246, 0.14628690, -26.35120201, -15.01511383, -40.41553116, 0.00000000, 0.00000000, 0.00000000, 99.26098633, 20.67679214, 51.52965546, 1.00000000, 0.00000000, 0.00000000, 0.00000000, 0.06916926, 0.04542427, 0.00629142, 0.00000000, 0.00000000, 0.00000000, 0.00000000
1, 0.2400, 24, 0.26456553, -0.97355431, 0.14467807, -25.56720161, -15.38710690, -39.83454514, 0.00000000, 0.00000000, 0.00000000, 98.97142029, 21.09446716, 51.43457413, 1.00000000, 0.00000000, 0.00000000, 0.00000000, 0.09278931, 0.05128792, 0.00268678, 0.00000000, 0.00000000, 0.00000000, 0.00000000
1, 0.2500, 25, 0.22771882, -0.98692632, 0.16091777, -23.48172760, -15.20885944, -39.14049911, 0.00000000, 0.00000000, 0.00000000, 98.70146179, 21.50459099, 51.33781433, 1.00000000, 0.00000000, 0.00000000, 0.00000000, 0.13639459, 0.06654355, -0.01839959, 0.00000000, 0.00000000, 0.00000000, 0.00000000
1, 0.2600, 26, 0.32219887, -0.98220998, 0.14355016, -22.79015160, -14.82331276, -37.02701950, 0.00000000, 0.00000000, 0.00000000, 98.43717194, 21.89281082, 51.23942566, 1.00000000, 0.00000000, 0.00000000, 0.00000000, 0.04831661, 0.06367396, -0.00569145, 0.00000000, 0.00000000, 0.00000000, 0.00000000
1, 0.2700, 27, 0.27966070, -0.99068886, 0.14622906, -20.81232452, -17.02793694, -37.54969788, 0.00000000, 0.00000000, 0.00000000, 98.18267059, 22.28896713, 51.11612701, 1.00000000, 0.00000000, 0.00000000, 0.00000000, 0.09721000, 0.07407421, -0.01288360, 0.00000000, 0.00000000, 0.00000000, 0.00000000
1, 0.2800, 28, 0.28955603, -0.98755169, 0.14892405, -19.35978699, -19.79274940, -35.92015457, 0.00000000, 0.00000000, 0.00000000, 97.93350220, 22.65122986, 50.95998001, 1.00000000, 0.00000000, 0.00000000, 0.00000000, 0.09353553, 0.07289173, -0.01995238, 0.00000000, 0.00000000, 0.00000000, 0.00000000
1, 0.2900, 29, 0.31777611, -0.99082994, 0.16182639, -19.14317894, -22.65584755, -35.34408569, 0.00000000, 0.00000000, 0.00000000, 97.66771698, 23.03214455, 50.76845932, 1.00000000, 0.00000000, 0.00000000, 0.00000000, 0.07114939, 0.07801998, -0.03728724, 0.00000000, 0.00000000, 0.00000000, 0.00000000
1, 0.3000, 30, 0.20965029, -0.98853534, 0.17932056, -19.56890488, -25.52249908, -35.60016632, 0.00000000, 0.00000000, 0.00000000, 97.38343048, 23.41850090, 50.54384613, 1.00000000, 0.00000000, 0.00000000, 0.00000000, 0.18550715, 0.07776339, -0.05957068, 0.00000000, 0.00000000, 0.00000000, 0.00000000
1, 0.3100, 31, 0.28238821, -1.00073624, 0.19266376, -19.61338997, -26.75203705, -33.74170685, 0.00000000, 0.00000000, 0.00000000, 97.08991241, 23.78691483, 50.30060959, 1.00000000, 0.00000000, 0.00000000, 0.00000000, 0.11872606, 0.09193595, -0.07784042, 0.00000000, 0.00000000, 0.00000000, 0.00000000
1, 0.3200, 32, 0.24625674, -1.00961399, 0.17807539, -20.47648048, -27.50163841, -35.06991196, 0.00000000, 0.00000000, 0.00000000, 96.78256226, 24.16824722, 50.04817200, 1.00000000, 0.00000000, 0.00000000, 0.00000000, 0.16086306, 0.10285410, -0.06837354, 0.00000000, 0.00000000, 0.00000000, 0.00000000
1, 0.3300, 33, 0.19299488, -1.05355179, 0.19646159, -20.98100662, -28.56041145, -36.66864395, 0.00000000, 0.00000000, 0.00000000, 96.48047638, 24.50687408, 49.78863144, 1.00000000, 0.00000000, 0.00000000, 0.00000000, 0.22012839, 0.14889562, -0.09195359, 0.00000000, 0.00000000, 0.00000000, 0.00000000
1, 0.3400, 34, 0.20706369, -1.05527318, 0.17932504, -23.81019020, -28.04127884, -38.04532623, 0.00000000, 0.00000000, 0.00000000, 96.13336182, 24.91583443, 49.52783966, 1.00000000, 0.00000000, 0.00000000, 0.00000000, 0.21175820, 0.15263215, -0.08022370, 0.00000000, 0.00000000, 0.00000000, 0.00000000
1, 0.3500, 35, 0.17688371, -1.07298458, 0.17515767, -26.08242416, -27.17000389, -41.27958679, 0.00000000, 0.00000000, 0.00000000, 95.76583862, 25.35457802, 49.27659988, 1.00000000, 0.00000000, 0.00000000, 0.00000000, 0.24870159, 0.17287186, -0.08206090, 0.00000000, 0.00000000, 0.00000000, 0.00000000
1, 0.3600, 36, 0.18820959, -1.08054769, 0.14972208, -28.85413742, -26.91733742, -43.57006836, 0.00000000, 0.00000000, 0.00000000, 95.36928558, 25.81434631, 49.02645111, 1.00000000, 0.00000000, 0.00000000, 0.00000000, 0.24450375, 0.18320340, -0.06298060, 0.00000000, 0.00000000, 0.00000000, 0.00000000
1, 0.3700, 37, 0.17848758, -1.08498383, 0.15722294, -31.80508232, -25.88091469, -47.31904602, 0.00000000, 0.00000000, 0.00000000, 94.94602203, 26.30890656, 48.78687668, 1.00000000, 0.00000000, 0.00000000, 0.00000000, 0.26176545, 0.19067875, -0.07730814, 0.00000000, 0.00000000, 0.00000000, 0.00000000
1, 0.3800, 38, 0.12428252, -1.11461496, 0.16644415, -34.21184921, -24.64251328, -51.33478928, 0.00000000, 0.00000000, 0.00000000, 94.51696777, 26.78084183, 48.56554413, 1.00000000, 0.00000000, 0.00000000, 0.00000000, 0.32386333, 0.22363308, -0.09358746, 0.00000000, 0.00000000, 0.00000000, 0.00000000
1, 0.3900, 39, 0.21527335, -1.13600063, 0.16777469, -38.35762787, -22.24721527, -54.58065414, 0.00000000, 0.00000000, 0.00000000, 94.04085541, 27.34174347, 48.36212540, 1.00000000, 0.00000000, 0.00000000, 0.00000000, 0.24067792, 0.24841638, -0.10227276, 0.00000000, 0.00000000, 0.00000000, 0.00000000
1, 0.4000, 40, 0.15142928, -1.16469979, 0.15982823, -40.46271133, -22.73856544, -60.68538666, 0.00000000, 0.00000000, 0.00000000, 93.53837585, 27.96229935, 48.15127945, 1.00000000, 0.00000000, 0.00000000, 0.00000000, 0.31382158, 0.28140497, -0.10222882, 0.00000000, 0.00000000, 0.00000000, 0.00000000
1, 0.4100, 41, 0.18817739, -1.17344785, 0.15492603, -43.14825439, -23.23398590, -63.59820938, 0.00000000, 0.00000000, 0.00000000, 93.00160980, 28.61051559, 47.92907333, 1.00000000, 0.00000000, 0.00000000, 0.00000000, 0.28689855, 0.29488921, -0.10570955, 0.00000000, 0.00000000, 0.00000000, 0.00000000
1, 0.4200, 42, 0.16178825, -1.16858625, 0.14380996, -47.42707443, -22.44912720, -68.36635590, 0.00000000, 0.00000000, 0.00000000, 92.42117310, 29.30405235, 47.70977402, 1.00000000, 0.00000000, 0.00000000, 0.00000000, 0.32362148, 0.29524034, -0.10348537, 0.00000000, 0.00000000, 0.00000000, 0.00000000
1, 0.4300, 43, 0.14492165, -1.18256223, 0.14804366, -51.08449173, -20.61294746, -72.81472778, 0.00000000, 0.00000000, 0.00000000, 91.82159424, 29.98947525, 47.50981522, 1.00000000, 0.00000000, 0.00000000, 0.00000000, 0.35128018, 0.31491798, -0.11706549, 0.00000000, 0.00000000, 0.00000000, 0.00000000
1, 0.4400, 44, 0.17134736, -1.18046820, 0.12607348, -56.71691895, -17.75489807, -76.42190552, 0.00000000, 0.00000000, 0.00000000, 91.16210175, 30.75807953, 47.32714081, 1.00000000, 0.00000000, 0.00000000, 0.00000000, 0.33569163, 0.31881893, -0.10486152, 0.00000000, 0.00000000, 0.00000000, 0.00000000
1, 0.4500, 45, 0.17214900, -1.19363761, 0.13227139, -59.04237366, -15.52727509, -80.21700287, 0.00000000, 0.00000000, 0.00000000, 90.48479462, 31.56241035, 47.15921783, 1.00000000, 0.00000000, 0.00000000, 0.00000000, 0.34675005, 0.33888781, -0.12117869, 0.00000000, 0.00000000, 0.00000000, 0.00000000
1, 0.4600, 46, 0.24336630, -1.20102084, 0.12008336, -62.29763031, -14.51948547, -84.26007843, 0.00000000, 0.00000000, 0.00000000, 89.77230835, 32.40531921, 46.99023438, 1.00000000, 0.00000000, 0.00000000, 0.00000000, 0.28780633, 0.35377279, -0.11946146, 0.00000000, 0.00000000, 0.00000000, 0.00000000
1, 0.4700, 47, 0.23153500, -1.20697308, 0.11921170, -64.35353088, -16.25381470, -89.05011749, 0.00000000, 0.00000000, 0.00000000, 89.01769257, 33.29402542, 46.78557587, 1.00000000, 0.00000000, 0.00000000, 0.00000000, 0.31248423, 0.36797899, -0.12936926, 0.00000000, 0.00000000, 0.00000000, 0.00000000
1, 0.4800, 48, 0.20028833, -1.21644270, 0.12631762, -65.49593353, -19.52646828, -93.01203918, 0.00000000, 0.00000000, 0.00000000, 88.23466492, 34.17370987, 46.53230286, 1.00000000, 0.00000000, 0.00000000, 0.00000000, 0.35684052, 0.38630879, -0.14768668, 0.00000000, 0.00000000, 0.00000000, 0.00000000
1, 0.4900, 49, 0.14256582, -1.24844611, 0.08703133, -67.21775818, -22.69606018, -96.33567810, 0.00000000, 0.00000000, 0.00000000, 87.38021851, 35.12766647, 46.21178055, 1.00000000, 0.00000000, 0.00000000, 0.00000000, 0.42767060, 0.42764539, -0.11994007, 0.00000000, 0.00000000, 0.00000000, 0.00000000
1, 0.5000, 50, -0.07761534, -1.31368887, 0.15539925, -69.16247559, -23.26314926, -99.74838257, 0.00000000, 0.00000000, 0.00000000, 86.48414612, 36.11140823, 45.86051941, 1.00000000, 0.00000000, 0.00000000, 0.00000000, 0.66178226, 0.50332510, -0.20038842, 0.00000000, 0.00000000, 0.00000000, 0.00000000
1, 0.5100, 51, -0.01241561, -1.38076484, 0.41654423, -70.06597137, -0.83776647, -105.28267670, 0.00000000, 0.00000000, 0.00000000, 85.72401428, 37.16136932, 45.76044464, 1.00000000, 0.00000000, 0.00000000, 0.00000000, 0.61081892, 0.58155704, -0.47262585, 0.00000000, 0.00000000, 0.00000000, 0.00000000
1, 0.5200, 52, 0.16300714, -1.53721702, 0.37361735, -75.77675629, 7.87641335, -111.67221069, 0.00000000, 0.00000000, 0.00000000, 84.95697784, 38.28075027, 45.74541473, 1.00000000, 0.00000000, 0.00000000, 0.00000000, 0.45070672, 0.75040627, -0.43876874, 0.00000000, 0.00000000, 0.00000000, 0.00000000
1, 0.5300, 53, 0.06281526, -1.48280132, 0.51588696, -69.12702179, 1.23094034, -120.45903015, 0.00000000, 0.00000000, 0.00000000, 84.21713257, 39.44458008, 45.63103485, 1.00000000, 0.00000000, 0.00000000, 0.00000000, 0.56675506, 0.70948994, -0.59065908, 0.00000000, 0.00000000, 0.00000000, 0.00000000
1, 0.5400, 54, -0.27614120, -1.50956929, 0.64292288, -56.66358948, -17.24301720, -116.71707916, 0.00000000, 0.00000000, 0.00000000, 83.40055084, 40.58619690, 45.24271393, 1.00000000, 0.00000000, 0.00000000, 0.00000000, 0.92111439, 0.74999046, -0.72664779, 0.00000000, 0.00000000, 0.00000000, 0.00000000
1, 0.5500, 55, 0.14473021, -1.52768981, 0.54348248, -60.06993103, -27.22535896, -111.24584961, 0.00000000, 0.00000000, 0.00000000, 82.44416046, 41.65655518, 44.70217514, 1.00000000, 0.00000000, 0.00000000, 0.00000000, 0.51467794, 0.78183132, -0.63748270, 0.00000000, 0.00000000, 0.00000000, 0.00000000
1, 0.5600, 56, -0.06315158, -1.57107365, 0.63012469, -48.96470261, -35.37789917, -121.06742096, 0.00000000, 0.00000000, 0.00000000, 81.48239899, 42.80567932, 44.00012207, 1.00000000, 0.00000000, 0.00000000, 0.00000000, 0.73705935, 0.83975440, -0.73489326, 0.00000000, 0.00000000, 0.00000000, 0.00000000
1, 0.5700, 57, -0.44637480, -1.53927243, 0.71185756, -38.34175110, -62.85747528, -117.98656464, 0.00000000, 0.00000000, 0.00000000, 80.33663940, 43.87119293, 42.89038467, 1.00000000, 0.00000000, 0.00000000, 0.00000000, 1.13455820, 0.82312328, -0.82800764, 0.00000000, 0.00000000, 0.00000000, 0.00000000
1, 0.5800, 58, -0.26630896, -1.50461090, 0.43827116, -24.95269775, -98.03817749, -105.47583771, 0.00000000, 0.00000000, 0.00000000, 78.99227905, 44.69094849, 41.29747391, 1.00000000, 0.00000000, 0.00000000, 0.00000000, 0.96608675, 0.80225360, -0.56853271, 0.00000000, 0.00000000, 0.00000000, 0.00000000
1, 0.5900, 59, -0.09908950, -1.43703270, 0.25846899, -31.87999725, -112.87535858, -106.14344788, 0.00000000, 0.00000000, 0.00000000, 77.34711456, 45.49908447, 39.42459869, 1.00000000, 0.00000000, 0.00000000, 0.00000000, 0.80853194, 0.74773169, -0.40511978, 0.00000000, 0.00000000, 0.00000000, 0.00000000
1, 0.6000, 60, 0.20449750, -1.26968896, -0.01041839, -66.05643463, -104.03964233, -117.11791992, 0.00000000, 0.00000000, 0.00000000, 75.35652924, 46.39251328, 37.57363510, 1.00000000, 0.00000000, 0.00000000, 0.00000000, 0.51545072, 0.59594142, -0.15593077, 0.00000000, 0.00000000, 0.00000000, 0.00000000
1, 0.6100, 61, 0.71846813, -1.12214184, 0.11415794, -92.82708740, -78.42107391, -133.58488464, 0.00000000, 0.00000000, 0.00000000, 73.23433685, 47.46678543, 35.93836212, 1.00000000, 0.00000000, 0.00000000, 0.00000000, 0.01340511, 0.46706674, -0.30166739, 0.00000000, 0.00000000, 0.00000000, 0.00000000
1, 0.6200, 62, 0.66128165, -1.17534232, 0.33700523, -73.94692993, -66.48313904, -150.15945435, 0.00000000, 0.00000000, 0.00000000, 71.27919006, 48.69389343, 34.30460739, 1.00000000, 0.00000000, 0.00000000, 0.00000000, 0.08451985, 0.54184097, -0.54287040, 0.00000000, 0.00000000, 0.00000000, 0.00000000
1, 0.6300, 63, 0.41442096, -1.31072462, 0.38642114, -56.19394684, -66.69194031, -150.74670410, 0.00000000, 0.00000000, 0.00000000, 69.45283508, 49.86075974, 32.60090256, 1.00000000, 0.00000000, 0.00000000, 0.00000000, 0.34531200, 0.69926131, -0.60744917, 0.00000000, 0.00000000, 0.00000000, 0.00000000
1, 0.6400, 64, 0.33240023, -1.32137513, 0.32481548, -52.77053833, -81.44228363, -135.66822815, 0.00000000, 0.00000000, 0.00000000, 67.40930176, 50.82308960, 30.63297272, 1.00000000, 0.00000000, 0.00000000, 0.00000000, 0.43907017, 0.73066241, -0.56109989, 0.00000000, 0.00000000, 0.00000000, 0.00000000
1, 0.6500, 65, 0.53113544, -1.23213172, 0.45182088, -61.54822159, -88.29467010, -121.79974365, 0.00000000, 0.00000000, 0.00000000, 65.17913055, 51.58370972, 28.56134415, 1.00000000, 0.00000000, 0.00000000, 0.00000000, 0.24935816, 0.66095626, -0.70584488, 0.00000000, 0.00000000, 0.00000000, 0.00000000
1, 0.6600, 66, 0.69101471, -1.00580049, 0.64770883, -56.37994385, -84.03327942, -110.15833282, 0.00000000, 0.00000000, 0.00000000, 63.03749847, 52.20751190, 26.55666351, 1.00000000, 0.00000000, 0.00000000, 0.00000000, 0.09691383, 0.45322913, -0.91934192, 0.00000000, 0.00000000, 0.00000000, 0.00000000
1, 0.6700, 67, 0.57273185, -0.88164312, 0.52843678, -28.21642113, -99.09070587, -88.36913300, 0.00000000, 0.00000000, 0.00000000, 61.08213806, 52.52330017, 24.44488716, 1.00000000, 0.00000000, 0.00000000, 0.00000000, 0.21997035, 0.34438163, -0.81642783, 0.00000000, 0.00000000, 0.00000000, 0.00000000
1, 0.6800, 68, 0.35499683, -0.77371943, 0.23333742, -21.74675941, -121.00970459, -64.47039795, 0.00000000, 0.00000000, 0.00000000, 59.18055725, 52.45062256, 22.26581192, 1.00000000, 0.00000000, 0.00000000, 0.00000000, 0.43846822, 0.24739361, -0.53889000, 0.00000000, 0.00000000, 0.00000000, 0.00000000
1, 0.6900, 69, 0.30029777, -0.54843485, 0.13299163, -30.89498711, -130.93972778, -46.20637894, 0.00000000, 0.00000000, 0.00000000, 57.11656189, 52.15213013, 20.04826927, 1.00000000, 0.00000000, 0.00000000, 0.00000000, 0.49072614, 0.03029745, -0.45822144, 0.00000000, 0.00000000, 0.00000000, 0.00000000
1, 0.7000, 70, 0.28392482, -0.36959559, 0.15141381, -10.26428509, -136.54353333, -29.11330032, 0.00000000, 0.00000000, 0.00000000, 55.36014175, 51.63453293, 17.94713593, 1.00000000, 0.00000000, 0.00000000, 0.00000000, 0.50244308, -0.14238748, -0.49705195, 0.00000000, 0.00000000, 0.00000000, 0.00000000
1, 0.7100, 71, 0.20646726, -0.43479079, 0.25682300, 25.40595245, -145.23524475, -12.69567871, 0.00000000, 0.00000000, 0.00000000, 54.04484177, 50.89844894, 15.93570614, 1.00000000, 0.00000000, 0.00000000, 0.00000000, 0.57271016, -0.07554931, -0.62070024, 0.00000000, 0.00000000, 0.00000000, 0.00000000
1, 0.7200, 72, -0.09544581, -0.50288206, 0.37368077, 41.87508774, -140.34089661, -4.47495890, 0.00000000, 0.00000000, 0.00000000, 53.06188202, 50.10031891, 14.11936760, 1.00000000, 0.00000000, 0.00000000, 0.00000000, 0.86596727, -0.00883392, -0.75370657, 0.00000000, 0.00000000, 0.00000000, 0.00000000
1, 0.7300, 73, -0.42046681, -0.54260933, 0.24971437, 44.40032196, -133.95617676, 10.00620842, 0.00000000, 0.00000000, 0.00000000, 52.42958069, 49.12834167, 12.64893436, 1.00000000, 0.00000000, 0.00000000, 0.00000000, 1.18124568, 0.02689715, -0.64370489, 0.00000000, 0.00000000, 0.00000000, 0.00000000
1, 0.7400, 74, -0.57950848, -0.48702160, 0.03152014, 20.12314415, -119.32782745, 34.22216415, 0.00000000, 0.00000000, 0.00000000, 51.79941177, 48.12550735, 11.54167938, 1.00000000, 0.00000000, 0.00000000, 0.00000000, 1.32854450, -0.03517274, -0.43923315, 0.00000000, 0.00000000, 0.00000000, 0.00000000
1, 0.7500, 75, -0.51099044, -0.36278224, -0.10549640, 21.15751839, -102.94778442, 53.59918976, 0.00000000, 0.00000000, 0.00000000, 51.49081421, 47.06618118, 10.83797550, 1.00000000, 0.00000000, 0.00000000, 0.00000000, 1.24770284, -0.16686061, -0.31486717, 0.00000000, 0.00000000, 0.00000000, 0.00000000
1, 0.7600, 76, -0.36213490, -0.32606706, -0.15823591, 31.54743195, -38.10998154, 64.91090393, 0.00000000, 0.00000000, 0.00000000, 51.91553116, 46.32039642, 10.98882389, 1.00000000, 0.00000000, 0.00000000, 0.00000000, 1.08846819, -0.21336365, -0.26772130, 0.00000000, 0.00000000, 0.00000000, 0.00000000
1, 0.7700, 77, -0.17882779, -0.31998214, -0.10311764, 53.20258713, 1.87415481, 71.38192749, 0.00000000, 0.00000000, 0.00000000, 52.91448212, 45.76606369, 11.63787270, 1.00000000, 0.00000000, 0.00000000, 0.00000000, 0.89768302, -0.23154339, -0.32002187, 0.00000000, 0.00000000, 0.00000000, 0.00000000
1, 0.7800, 78, -0.05903992, -0.35193223, -0.04792610, 70.41479492, 30.57132721, 75.04441071, 0.00000000, 0.00000000, 0.00000000, 54.36647415, 45.30695724, 12.65713596, 1.00000000, 0.00000000, 0.00000000, 0.00000000, 0.77212691, -0.21362451, -0.36634538, 0.00000000, 0.00000000, 0.00000000, 0.00000000
1, 0.7900, 79, -0.01229482, -0.41837755, 0.04869048, 88.56427002, 47.89838409, 81.30873108, 0.00000000, 0.00000000, 0.00000000, 56.11252213, 44.91205215, 13.87169361, 1.00000000, 0.00000000, 0.00000000, 0.00000000, 0.72015458, -0.16328207, -0.44939643, 0.00000000, 0.00000000, 0.00000000, 0.00000000
1, 0.8000, 80, -0.01215133, -0.50410616, 0.13029112, 97.95468140, 61.69724655, 88.54863739, 0.00000000, 0.00000000, 0.00000000, 58.08092117, 44.50355911, 15.27744484, 1.00000000, 0.00000000, 0.00000000, 0.00000000, 0.71501440, -0.09464106, -0.51426196, 0.00000000, 0.00000000, 0.00000000, 0.00000000
1, 0.8100, 81, -0.02562462, -0.58275282, 0.13022888, 104.68370819, 78.43401337, 97.37816620, 0.00000000, 0.00000000, 0.00000000, 60.27144623, 44.06906891, 16.91544724, 1.00000000, 0.00000000, 0.00000000, 0.00000000, 0.72322375, -0.03412372, -0.49458310, 0.00000000, 0.00000000, 0.00000000, 0.00000000
1, 0.8200, 82, -0.02881229, -0.65819418, 0.10890771, 114.23435974, 93.62999725, 107.06495667, 0.00000000, 0.00000000, 0.00000000, 62.69398117, 43.57522583, 18.76422691, 1.00000000, 0.00000000, 0.00000000, 0.00000000, 0.72053224, 0.02197324, -0.45047170, 0.00000000, 0.00000000, 0.00000000, 0.00000000
1, 0.8300, 83, -0.01772174, -0.72272485, 0.07377855, 123.56537628, 102.64960480, 115.29919434, 0.00000000, 0.00000000, 0.00000000, 65.31607819, 42.95254135, 20.75372887, 1.00000000, 0.00000000, 0.00000000, 0.00000000, 0.70234734, 0.06592011, -0.38968539, 0.00000000, 0.00000000, 0.00000000, 0.00000000
1, 0.8400, 84, 0.01316619, -0.76554710, 0.07311039, 132.64181519, 117.21850586, 124.87940216, 0.00000000, 0.00000000, 0.00000000, 68.08732605, 42.26899338, 22.88775253, 1.00000000, 0.00000000, 0.00000000, 0.00000000, 0.66283274, 0.08711553, -0.36058897, 0.00000000, 0.00000000, 0.00000000, 0.00000000
1, 0.8500, 85, 0.05154024, -0.81784225, 0.09900687, 140.24255371, 132.48260498, 132.89341736, 0.00000000, 0.00000000, 0.00000000, 71.01902771, 41.48631287, 25.17846680, 1.00000000, 0.00000000, 0.00000000, 0.00000000, 0.61483324, 0.11766161, -0.35506046, 0.00000000, 0.00000000, 0.00000000, 0.00000000
1, 0.8600, 86, 0.10414229, -0.88467062, 0.10979894, 143.21969604, 145.15451050, 141.52848816, 0.00000000, 0.00000000, 0.00000000, 74.02608490, 40.57195663, 27.57706261, 1.00000000, 0.00000000, 0.00000000, 0.00000000, 0.55094779, 0.16260841, -0.33192337, 0.00000000, 0.00000000, 0.00000000, 0.00000000
1, 0.8700, 87, 0.18849561, -0.94631690, 0.11732858, 138.32937622, 149.21871948, 152.11824036, 0.00000000, 0.00000000, 0.00000000, 76.94295502, 39.47294617, 29.96077538, 1.00000000, 0.00000000, 0.00000000, 0.00000000, 0.45296708, 0.20247357, -0.30461252, 0.00000000, 0.00000000, 0.00000000, 0.00000000
1, 0.8800, 88, 0.28605342, -0.97818035, 0.10374123, 129.57174683, 138.08920288, 164.13365173, 0.00000000, 0.00000000, 0.00000000, 79.61368561, 38.12887192, 32.13362885, 1.00000000, 0.00000000, 0.00000000, 0.00000000, 0.33860344, 0.21268936, -0.25762898, 0.00000000, 0.00000000, 0.00000000, 0.00000000
1, 0.8900, 89, 0.36859566, -1.01227832, 0.08197020, 125.23394012, 116.15972900, 175.93261719, 0.00000000, 0.00000000, 0.00000000, 81.95701599, 36.57848358, 33.93002319, 1.00000000, 0.00000000, 0.00000000, 0.00000000, 0.23565026, 0.22514611, -0.20513791, 0.00000000, 0.00000000, 0.00000000, 0.00000000
1, 0.9000, 90, 0.39805198, -1.07431543, 0.05451089, 122.33779144, 89.60060120, 185.41947937, 0.00000000, 0.00000000, 0.00000000, 83.98364258, 34.84822464, 35.30432892, 1.00000000, 0.00000000, 0.00000000, 0.00000000, 0.18276241, 0.26600254, -0.15016489, 0.00000000, 0.00000000, 0.00000000, 0.00000000
1, 0.9100, 91, 0.36805728, -1.13704777, 0.05429939, 121.18653107, 65.09072876, 193.17674255, 0.00000000, 0.00000000, 0.00000000, 85.74831390, 32.98278809, 36.29362106, 1.00000000, 0.00000000, 0.00000000, 0.00000000, 0.18663527, 0.30810654, -0.12528132, 0.00000000, 0.00000000, 0.00000000, 0.00000000
1, 0.9200, 92, 0.31205001, -1.19770300, 0.06673244, 120.48290253, 50.54226685, 201.46591187, 0.00000000, 0.00000000, 0.00000000, 87.34451294, 31.00242043, 37.03124237, 1.00000000, 0.00000000, 0.00000000, 0.00000000, 0.21418422, 0.34880155, -0.11476156, 0.00000000, 0.00000000, 0.00000000, 0.00000000
1, 0.9300, 93, 0.26794469, -1.20922375, 0.07827996, 118.62068939, 43.99190140, 207.76370239, 0.00000000, 0.00000000, 0.00000000, 88.83042145, 28.92385292, 37.62209702, 1.00000000, 0.00000000, 0.00000000, 0.00000000, 0.22770554, 0.34117609, -0.10438116, 0.00000000, 0.00000000, 0.00000000, 0.00000000
1, 0.9400, 94, 0.23987225, -1.23678255, 0.10060500, 122.37530518, 45.44688416, 211.19972229, 0.00000000, 0.00000000, 0.00000000, 90.30300140, 26.81534195, 38.15431213, 1.00000000, 0.00000000, 0.00000000, 0.00000000, 0.22353603, 0.35072899, -0.10445464, 0.00000000, 0.00000000, 0.00000000, 0.00000000
1, 0.9500, 95, 0.23124944, -1.29190040, 0.10444378, 126.21281433, 53.71746445, 213.47264099, 0.00000000, 0.00000000, 0.00000000, 91.80509949, 24.67100906, 38.70697021, 1.00000000, 0.00000000, 0.00000000, 0.00000000, 0.19888794, 0.38943440, -0.08487028, 0.00000000, 0.00000000, 0.00000000, 0.00000000
1, 0.9600, 96, 0.25679520, -1.34002054, 0.10726783, 128.68196106, 61.56277084, 215.09233093, 0.00000000, 0.00000000, 0.00000000, 93.31842041, 22.49467087, 39.27313232, 1.00000000, 0.00000000, 0.00000000, 0.00000000, 0.13893767, 0.42280084, -0.06317348, 0.00000000, 0.00000000, 0.00000000, 0.00000000
1, 0.9700, 97, 0.28600436, -1.38984215, 0.10506775, 129.52406311, 67.20058441, 216.79342651, 0.00000000, 0.00000000, 0.00000000, 94.81602478, 20.28451920, 39.82773972, 1.00000000, 0.00000000, 0.00000000, 0.00000000, 0.07423899, 0.45964783, -0.03578430, 0.00000000, 0.00000000, 0.00000000, 0.00000000
1, 0.9800, 98, 0.30748954, -1.42574143, 0.11957397, 128.29002380, 69.77120209, 219.65617371, 0.00000000, 0.00000000, 0.00000000, 96.26558685, 18.02653313, 40.33857346, 1.00000000, 0.00000000, 0.00000000, 0.00000000, 0.01604636, 0.48433566, -0.02516393, 0.00000000, 0.00000000, 0.00000000, 0.00000000
1, 0.9900, 99, 0.32269296, -1.46294272, 0.12959155, 127.26157379, 74.12561035, 221.66250610, 0.00000000, 0.00000000, 0.00000000, 97.67980957, 15.73626614, 40.82612610, 1.00000000, 0.00000000, 0.00000000, 0.00000000, -0.03705715, 0.51215202, -0.01025932, 0.00000000, 0.00000000, 0.00000000, 0.00000000
1, 1.0000, 100, 0.34703109, -1.51151729, 0.12080182, 126.90890503, 78.68733215, 222.61308289, 0.00000000, 0.00000000, 0.00000000, 99.06721497, 13.41932774, 41.29555130, 1.00000000, 0.00000000, 0.00000000, 0.00000000, -0.10021523, 0.55330771, 0.02323101, 0.00000000, 0.00000000, 0.00000000, 0.00000000
1, 1.0100, 101, 0.34077066, -1.55365002, 0.12604448, 129.95256042, 79.35026550, 223.49359131, 0.00000000, 0.00000000, 0.00000000, 100.45446014, 11.08228683, 41.70808411, 1.00000000, 0.00000000, 0.00000000, 0.00000000, -0.13355038, 0.59011465, 0.04273060, 0.00000000, 0.00000000, 0.00000000, 0.00000000
1, 1.0200, 102, 0.30656457, -1.58451581, 0.11198431, 130.33093262, 81.20803833, 223.79086304, 0.00000000, 0.00000000, 0.00000000, 101.82143402, 8.72963238, 42.07804108, 1.00000000, 0.00000000, 0.00000000, 0.00000000, -0.13958675, 0.61779201, 0.08137679, 0.00000000, 0.00000000, 0.00000000, 0.00000000
1, 1.0300, 103, 0.28974470, -1.61762524, 0.09779259, 129.77937317, 89.09272003, 222.35063171, 0.00000000, 0.00000000, 0.00000000, 103.16488647, 6.36825609, 42.47072983, 1.00000000, 0.00000000, 0.00000000, 0.00000000, -0.16349868, 0.64985192, 0.11969809, 0.00000000, 0.00000000, 0.00000000, 0.00000000
1, 1.0400, 104, 0.31919247, -1.66261244, 0.09120110, 127.18727875, 96.74186707, 218.85021973, 0.00000000, 0.00000000, 0.00000000, 104.47459412, 4.01196337, 42.88896561, 1.00000000, 0.00000000, 0.00000000, 0.00000000, -0.23387422, 0.69588810, 0.14961517, 0.00000000, 0.00000000, 0.00000000, 0.00000000
1, 1.0500, 105, 0.41503769, -1.72009015, 0.07113677, 122.53523254, 101.52864838, 214.51879883, 0.00000000, 0.00000000, 0.00000000, 105.72084808, 1.67632377, 43.31085968, 1.00000000, 0.00000000, 0.00000000, 0.00000000, -0.37055308, 0.75637639, 0.19175330, 0.00000000, 0.00000000, 0.00000000, 0.00000000
1, 1.0600, 106, 0.54318851, -1.74425638, 0.07947521, 115.27528381, 102.65589905, 209.23120117, 0.00000000, 0.00000000, 0.00000000, 106.87736511, -0.62001920, 43.70863342, 1.00000000, 0.00000000, 0.00000000, 0.00000000, -0.53903091, 0.78529340, 0.20375086, 0.00000000, 0.00000000, 0.00000000, 0.00000000
1, 1.0700, 107, 0.62529469, -1.68608725, 0.05194549, 101.54003906, 100.75226593, 206.06953430, 0.00000000, 0.00000000, 0.00000000, 107.88236237, -2.88756680, 44.05441666, 1.00000000, 0.00000000, 0.00000000, 0.00000000, -0.66088855, 0.73312783, 0.24881440, 0.00000000, 0.00000000, 0.00000000, 0.00000000
1, 1.0800, 108, 0.70044941, -1.59568131, -0.01725088, 93.37978363, 98.28409576, 200.31309509, 0.00000000, 0.00000000, 0.00000000, 108.78444672, -5.08067989, 44.36014175, 1.00000000, 0.00000000, 0.00000000, 0.00000000, -0.77495742, 0.64980423, 0.33289820, 0.00000000, 0.00000000, 0.00000000, 0.00000000
1, 1.0900, 109, 0.88503593, -1.52605641, 0.01101343, 89.47706604, 100.66794586, 188.03459167, 0.00000000, 0.00000000, 0.00000000, 109.64323425, -7.18769503, 44.69395828, 1.00000000, 0.00000000, 0.00000000, 0.00000000, -0.99663144, 0.58834070, 0.31779516, 0.00000000, 0.00000000, 0.00000000, 0.00000000
1, 1.1000, 110, 1.09248710, -1.51030493, -0.04342223, 90.21305084, 93.78128052, 172.38761902, 0.00000000, 0.00000000, 0.00000000, 110.50418854, -9.12862396, 44.98599243, 1.00000000, 0.00000000, 0.00000000, 0.00000000, -1.23885226, 0.58190954, 0.38482395, 0.00000000, 0.00000000, 0.00000000, 0.00000000
1, 1.1100, 111, 1.25571275, -1.34747589, -0.15211958, 76.95737457, 73.79959869, 154.67515564, 0.00000000, 0.00000000, 0.00000000, 111.24968719, -10.83663845, 45.12677383, 1.00000000, 0.00000000, 0.00000000, 0.00000000, -1.43310618, 0.42853767, 0.50426280, 0.00000000, 0.00000000, 0.00000000, 0.00000000
1, 1.1200, 112, 1.41885638, -1.28417873, -0.18867613, 84.24555969, 56.64298630, 128.20494080, 0.00000000, 0.00000000, 0.00000000, 112.08122253, -12.23723030, 45.18134308, 1.00000000, 0.00000000, 0.00000000, 0.00000000, -1.62227619, 0.37493807, 0.55177617, 0.00000000, 0.00000000, 0.00000000, 0.00000000
1, 1.1300, 113, 1.52930117, -1.23734152, -0.36192182, 68.90686035, 43.96328354, 92.85990143, 0.00000000, 0.00000000, 0.00000000, 112.74398804, -13.23615170, 45.23979950, 1.00000000, 0.00000000, 0.00000000, 0.00000000, -1.75265121, 0.33692783, 0.73520446, 0.00000000, 0.00000000, 0.00000000, 0.00000000
1, 1.1400, 114, 1.49595022, -1.19566882, -0.49472994, 51.25508118, 30.79169846, 47.68535614, 0.00000000, 0.00000000, 0.00000000, 113.23297882, -13.79549789, 45.33997345, 1.00000000, 0.00000000, 0.00000000, 0.00000000, -1.73145294, 0.30150989, 0.87552834, 0.00000000, 0.00000000, 0.00000000, 0.00000000
1, 1.1500, 115, 1.44568682, -1.22425401, -0.48892856, 21.28400993, 27.98048973, 1.47129428, 0.00000000, 0.00000000, 0.00000000, 113.38367462, -13.91988087, 45.59872055, 1.00000000, 0.00000000, 0.00000000, 0.00000000, -1.68602931, 0.33310667, 0.87375486, 0.00000000, 0.00000000, 0.00000000, 0.00000000
1, 1.1600, 116, 1.42481041, -1.25165534, -0.44677076, -5.21865368, 27.73103905, -42.41012573, 0.00000000, 0.00000000, 0.00000000, 113.22772980, -13.64020729, 46.03377151, 1.00000000, 0.00000000, 0.00000000, 0.00000000, -1.66288388, 0.35966420, 0.83104861, 0.00000000, 0.00000000, 0.00000000, 0.00000000
1, 1.1700, 117, 1.34143615, -1.21841872, -0.40739074, -28.76222420, 36.81940079, -77.73059082, 0.00000000, 0.00000000, 0.00000000, 112.78746796, -13.06879425, 46.69446945, 1.00000000, 0.00000000, 0.00000000, 0.00000000, -1.57158077, 0.32250166, 0.78732711, 0.00000000, 0.00000000, 0.00000000, 0.00000000
1, 1.1800, 118, 1.27459002, -1.11940491, -0.34214038, -46.73390961, 52.53116608, -114.23111725, 0.00000000, 0.00000000, 0.00000000, 112.09378052, -12.17448902, 47.64553452, 1.00000000, 0.00000000, 0.00000000, 0.00000000, -1.49172151, 0.21671639, 0.71359074, 0.00000000, 0.00000000, 0.00000000, 0.00000000
1, 1.1900, 119, 1.21334267, -1.08989477, -0.23258708, -49.32057953, 62.01761627, -138.79641724, 0.00000000, 0.00000000, 0.00000000, 111.37585449, -11.11476421, 48.75838089, 1.00000000, 0.00000000, 0.00000000, 0.00000000, -1.41317952, 0.17918655, 0.59402311, 0.00000000, 0.00000000, 0.00000000, 0.00000000
1, 1.2000, 120, 1.07734060, -1.10380292, -0.11028914, -48.98546219, 66.39466858, -159.25791931, 0.00000000, 0.00000000, 0.00000000, 110.66534424, -9.86614037, 49.96941757, 1.00000000, 0.00000000, 0.00000000, 0.00000000, -1.25695848, 0.18497692, 0.46163815, 0.00000000, 0.00000000, 0.00000000, 0.00000000
1, 1.2100, 121, 0.70200628, -1.11541665, -0.00598623, -44.84494781, 67.03454590, -171.09548950, 0.00000000, 0.00000000, 0.00000000, 110.01889801, -8.49496746, 51.20856476, 1.00000000, 0.00000000, 0.00000000, 0.00000000, -0.85871595, 0.18890260, 0.34797835, 0.00000000, 0.00000000, 0.00000000, 0.00000000
1, 1.2200, 122, -1.01343548, -1.03104544, 1.44418919, -39.41600037, 100.87135315, -178.65512085, 0.00000000, 0.00000000, 0.00000000, 109.41399384, -7.15206528, 52.77490234, 1.00000000, 0.00000000, 0.00000000, 0.00000000, 0.88061708, 0.09747621, -1.11138535, 0.00000000, 0.00000000, 0.00000000, 0.00000000
1, 1.2300, 123, -4.03458261, -1.89982331, 1.73235929, 41.21812057, 167.96641541, -121.99629974, 0.00000000, 0.00000000, 0.00000000, 109.58878326, -6.56003618, 54.77824783, 1.00000000, 0.00000000, 0.00000000, 0.00000000, 3.91790867, 0.96303803, -1.40249348, 0.00000000, 0.00000000, 0.00000000, 0.00000000
1, 1.2400, 124, -2.61843586, -1.75667393, -0.47032785, 28.36106491, -41.93653870, 46.00569916, 0.00000000, 0.00000000, 0.00000000, 109.93710327, -6.84725285, 54.22239685, 1.00000000, 0.00000000, 0.00000000, 0.00000000, 2.50174975, 0.82394636, 0.81149119, 0.00000000, 0.00000000, 0.00000000, 0.00000000
1, 1.2500, 125, 1.20999718, -1.06638980, -1.12642717, -199.88943481, -8.89815617, -22.33013535, 0.00000000, 0.00000000, 0.00000000, 107.94026184, -6.60749674, 54.20497894, 1.00000000, 0.00000000, 0.00000000, 0.00000000, -1.32922816, 0.12548620, 1.44327736, 0.00000000, 0.00000000, 0.00000000, 0.00000000
1, 1.2600, 126, 1.06402040, -2.05333924, 1.03866947, 1.77851200, 73.26430511, -188.95185852, 0.00000000, 0.00000000, 0.00000000, 107.83556366, -5.03712368, 55.49205017, 1.00000000, 0.00000000, 0.00000000, 0.00000000, -1.16064215, 1.10677147, -0.73106933, 0.00000000, 0.00000000, 0.00000000, 0.00000000
1, 1.2700, 127, -0.53078961, -1.09818172, 0.44442302, -177.76126099, 198.52156067, -132.36019897, 0.00000000, 0.00000000, 0.00000000, 105.86861420, -4.35047960, 57.78331757, 1.00000000, 0.00000000, 0.00000000, 0.00000000, 0.45023647, 0.14310777, -0.15940961, 0.00000000, 0.00000000, 0.00000000, 0.00000000
1, 1.2800, 128, 0.44155607, -0.37714568, -0.31732821, -30.31275177, 19.99176598, -124.40525055, 0.00000000, 0.00000000, 0.00000000, 105.48802948, -3.09476733, 58.32143402, 1.00000000, 0.00000000, 0.00000000, 0.00000000, -0.50468731, -0.58456767, 0.58393657, 0.00000000, 0.00000000, 0.00000000, 0.00000000
1, 1.2900, 129, 1.65694749, -0.87049997, -0.14476006, 38.03673553, -25.94493866, -123.14102173, 0.00000000, 0.00000000, 0.00000000, 105.86499786, -1.83907127, 58.40400314, 1.00000000, 0.00000000, 0.00000000, 0.00000000, -1.69755876, -0.09138481, 0.41510361, 0.00000000, 0.00000000, 0.00000000, 0.00000000
1, 1.3000, 130, 1.07393098, -1.66395414, 0.85145235, 113.01664734, 17.07580757, -163.29214478, 0.00000000, 0.00000000, 0.00000000, 106.98560333, -0.32240379, 59.02877045, 1.00000000, 0.00000000, 0.00000000, 0.00000000, -1.08954847, 0.70544738, -0.56697047, 0.00000000, 0.00000000, 0.00000000, 0.00000000
1, 1.3100, 131, -0.21279643, -2.03508210, 0.74490255, 29.69359589, 109.36952972, -162.07667542, 0.00000000, 0.00000000, 0.00000000, 107.29142761, 0.90096319, 60.55380630, 1.00000000, 0.00000000, 0.00000000, 0.00000000, 0.22104119, 1.08031392, -0.44772196, 0.00000000, 0.00000000, 0.00000000, 0.00000000
1, 1.3200, 132, -0.71691436, -1.30603957, -0.70497704, -22.20733643, 50.61359024, -112.97898102, 0.00000000, 0.00000000, 0.00000000, 107.08747101, 1.83060122, 61.37118912, 1.00000000, 0.00000000, 0.00000000, 0.00000000, 0.74303752, 0.35082129, 0.99968964, 0.00000000, 0.00000000, 0.00000000, 0.00000000
1, 1.3300, 133, 0.04700134, -0.83803368, 0.08635874, -4.29517555, -29.36812019, -86.40500641, 0.00000000, 0.00000000, 0.00000000, 107.05943298, 2.77861547, 61.34051514, 1.00000000, 0.00000000, 0.00000000, 0.00000000, -0.00516957, -0.11716241, 0.20660554, 0.00000000, 0.00000000, 0.00000000, 0.00000000
1, 1.3400, 134, 0.14100994, -0.89568990, 0.38848689, 4.31641436, -52.68783188, -95.53490448, 0.00000000, 0.00000000, 0.00000000, 107.08987427, 3.84661055, 61.11727142, 1.00000000, 0.00000000, 0.00000000, 0.00000000, -0.08101362, -0.05840835, -0.09511351, 0.00000000, 0.00000000, 0.00000000, 0.00000000
1, 1.3500, 135, 0.16415794, -0.61904514, 0.32735634, -38.48068237, -26.94612885, -93.27268219, 0.00000000, 0.00000000, 0.00000000, 106.70610809, 4.81739902, 61.13083649, 1.00000000, 0.00000000, 0.00000000, 0.00000000, -0.08646257, -0.33505026, -0.03815161, 0.00000000, 0.00000000, 0.00000000, 0.00000000
1, 1.3600, 136, 0.32132611, -0.61128062, 0.24657857, -8.03977108, -45.44757843, -93.61839294, 0.00000000, 0.00000000, 0.00000000, 106.60968781, 5.84444284, 60.96240234, 1.00000000, 0.00000000, 0.00000000, 0.00000000, -0.22629902, -0.34263498, 0.03800756, 0.00000000, 0.00000000, 0.00000000, 0.00000000
1, 1.3700, 137, 0.34839979, -0.94303817, 0.47409755, 2.31974792, -76.39046478, -89.19274139, 0.00000000, 0.00000000, 0.00000000, 106.57926941, 6.91751003, 60.48231506, 1.00000000, 0.00000000, 0.00000000, 0.00000000, -0.23486149, -0.00904669, -0.19016805, 0.00000000, 0.00000000, 0.00000000, 0.00000000
1, 1.3800, 138, 0.18663606, -0.92407608, 0.42276254, -11.76802158, -57.63388824, -73.88989258, 0.00000000, 0.00000000, 0.00000000, 106.43624115, 7.77533960, 60.13447571, 1.00000000, 0.00000000, 0.00000000, 0.00000000, -0.05645748, -0.02664864, -0.14140931, 0.00000000, 0.00000000, 0.00000000, 0.00000000
1, 1.3900, 139, -0.07913611, -0.90556705, 0.32186261, -4.99695015, -53.67479324, -62.79662704, 0.00000000, 0.00000000, 0.00000000, 106.33774567, 8.52916050, 59.79309464, 1.00000000, 0.00000000, 0.00000000, 0.00000000, 0.22256808, -0.04399233, -0.04302485, 0.00000000, 0.00000000, 0.00000000, 0.00000000
1, 1.4000, 140, -0.04253955, -1.07771516, 0.22878921, -4.26015711, -46.11327744, -55.89183044, 0.00000000, 0.00000000, 0.00000000, 106.25065613, 9.19506550, 59.50398636, 1.00000000, 0.00000000, 0.00000000, 0.00000000, 0.19824603, 0.12958467, 0.04832795, 0.00000000, 0.00000000, 0.00000000, 0.00000000
1, 1.4100, 141, 0.05180347, -1.04603541, 0.23753639, -12.09535980, -32.54803085, -46.93892670, 0.00000000, 0.00000000, 0.00000000, 106.09949493, 9.73655415, 59.31964493, 1.00000000, 0.00000000, 0.00000000, 0.00000000, 0.11393280, 0.09879899, 0.03681271, 0.00000000, 0.00000000, 0.00000000, 0.00000000
1, 1.4200, 142, -0.13739514, -0.99222833, 0.22133636, -8.09323311, -18.47302246, -43.65462494, 0.00000000, 0.00000000, 0.00000000, 106.00860596, 10.20717335, 59.26195145, 1.00000000, 0.00000000, 0.00000000, 0.00000000, 0.31161958, 0.04585800, 0.05073701, 0.00000000, 0.00000000, 0.00000000, 0.00000000
1, 1.4300, 143, -0.10630400, -1.04738879, 0.16639908, -12.48995018, -5.07555103, -45.24527740, 0.00000000, 0.00000000, 0.00000000, 105.85657501, 10.57283115, 59.34157944, 1.00000000, 0.00000000, 0.00000000, 0.00000000, 0.28798071, 0.10181355, 0.10355902, 0.00000000, 0.00000000, 0.00000000, 0.00000000
1, 1.4400, 144, -0.04742902, -1.04201365, 0.17497878, -15.29215527, 8.67731667, -50.31608200, 0.00000000, 0.00000000, 0.00000000, 105.74575806, 11.03336811, 59.56602478, 1.00000000, 0.00000000, 0.00000000, 0.00000000, 0.23581368, 0.09694879, 0.09215069, 0.00000000, 0.00000000, 0.00000000, 0.00000000
1, 1.4500, 145, 0.07612765, -1.00558770, 0.22080080, -17.04553223, 11.92394543, -51.93626785, 0.00000000, 0.00000000, 0.00000000, 105.62615204, 11.50111961, 59.82630157, 1.00000000, 0.00000000, 0.00000000, 0.00000000, 0.12026449, 0.06153703, 0.04413865, 0.00000000, 0.00000000, 0.00000000, 0.00000000
1, 1.4600, 146, 0.28263572, -0.94191384, 0.33044076, -14.57114601, 2.67789817, -49.55567932, 0.00000000, 0.00000000, 0.00000000, 105.51331329, 11.97130680, 59.98843002, 1.00000000, 0.00000000, 0.00000000, 0.00000000, -0.07823310, -0.00114569, -0.06804255, 0.00000000, 0.00000000, 0.00000000, 0.00000000
1, 1.4700, 147, 0.24687034, -0.97290999, 0.26163641, -7.00816154, -17.85354614, -43.38061905, 0.00000000, 0.00000000, 0.00000000, 105.43090057, 12.43699265, 59.93078995, 1.00000000, 0.00000000, 0.00000000, 0.00000000, -0.03444817, 0.03111680, -0.00106563, 0.00000000, 0.00000000, 0.00000000, 0.00000000
1, 1.4800, 148, 0.19330250, -0.97612506, 0.25304404, -6.78266048, -36.15893555, -34.83211136, 0.00000000, 0.00000000, 0.00000000, 105.31168365, 12.84701061, 59.66778946, 1.00000000, 0.00000000, 0.00000000, 0.00000000, 0.02660643, 0.03542566, 0.00525917, 0.00000000, 0.00000000, 0.00000000, 0.00000000
1, 1.4900, 149, 0.13485582, -0.98881316, 0.29819655, -3.08731556, -43.84680176, -32.11561584, 0.00000000, 0.00000000, 0.00000000, 105.20227814, 13.27222633, 59.32028198, 1.00000000, 0.00000000, 0.00000000, 0.00000000, 0.09199882, 0.04915071, -0.04213665, 0.00000000, 0.00000000, 0.00000000, 0.00000000
1, 1.5000, 150, 0.02932366, -1.01769578, 0.33410358, -2.38696671, -43.59809875, -34.04615784, 0.00000000, 0.00000000, 0.00000000, 105.09880829, 13.71479607, 58.97901154, 1.00000000, 0.00000000, 0.00000000, 0.00000000, 0.20493323, 0.07925373, -0.08024311, 0.00000000, 0.00000000, 0.00000000, 0.00000000
1, 1.5100, 151, 0.03348028, -1.01052451, 0.30696821, -3.38697290, -35.63949203, -35.60251236, 0.00000000, 0.00000000, 0.00000000, 105.00251770, 14.15116024, 58.71968079, 1.00000000, 0.00000000, 0.00000000, 0.00000000, 0.20824535, 0.07342306, -0.05516521, 0.00000000, 0.00000000, 0.00000000, 0.00000000
1, 1.5200, 152, 0.04642042, -1.02684903, 0.27224934, -3.42244744, -31.40514755, -36.75960159, 0.00000000, 0.00000000, 0.00000000, 104.91491699, 14.58735275, 58.50442886, 1.00000000, 0.00000000, 0.00000000, 0.00000000, 0.20265996, 0.09113370, -0.02246754, 0.00000000, 0.00000000, 0.00000000, 0.00000000
1, 1.5300, 153, 0.06943040, -1.05719268, 0.25290051, -5.07531166, -28.55668259, -37.93072891, 0.00000000, 0.00000000, 0.00000000, 104.80921936, 14.96993256, 58.31968689, 1.00000000, 0.00000000, 0.00000000, 0.00000000, 0.18682407, 0.12288374, -0.00511707, 0.00000000, 0.00000000, 0.00000000, 0.00000000
1, 1.5400, 154, 0.12872495, -1.01801348, 0.25273246, -4.01878643, -28.42210197, -36.90962601, 0.00000000, 0.00000000, 0.00000000, 104.71997070, 15.39926434, 58.13237381, 1.00000000, 0.00000000, 0.00000000, 0.00000000, 0.13413748, 0.08498552, -0.00705425, 0.00000000, 0.00000000, 0.00000000, 0.00000000
1, 1.5500, 155, 0.15983459, -1.01732373, 0.23477782, -2.17682934, -30.08018684, -35.16680145, 0.00000000, 0.00000000, 0.00000000, 104.64180756, 15.81567574, 57.92278290, 1.00000000, 0.00000000, 0.00000000, 0.00000000, 0.11009153, 0.08584008, 0.00909475, 0.00000000, 0.00000000, 0.00000000, 0.00000000
1, 1.5600, 156, 0.13937485, -1.02081192, 0.24143650, -2.59298897, -33.36208725, -34.86791229, 0.00000000, 0.00000000, 0.00000000, 104.54836273, 16.23717117, 57.67829514, 1.00000000, 0.00000000, 0.00000000, 0.00000000, 0.13758054, 0.09089193, 0.00051381, 0.00000000, 0.00000000, 0.00000000, 0.00000000
1, 1.5700, 157, 0.18569276, -0.98392206, 0.26448682, -3.63340902, -35.82062912, -34.11420059, 0.00000000, 0.00000000, 0.00000000, 104.43485260, 16.65710449, 57.40571594, 1.00000000, 0.00000000, 0.00000000, 0.00000000, 0.09831406, 0.05555663, -0.02475114, 0.00000000, 0.00000000, 0.00000000, 0.00000000
1, 1.5800, 158, 0.11274116, -0.97213793, 0.26621294, -4.33117628, -35.67343140, -34.50640869, 0.00000000, 0.00000000, 0.00000000, 104.31948090, 17.00992966, 57.13491440, 1.00000000, 0.00000000, 0.00000000, 0.00000000, 0.17802164, 0.04523976, -0.02890833, 0.00000000, 0.00000000, 0.00000000, 0.00000000
1, 1.5900, 159, 0.11874848, -0.99157810, 0.26357269, -7.60726976, -33.08232880, -35.66070557, 0.00000000, 0.00000000, 0.00000000, 104.17124176, 17.43698311, 56.89109421, 1.00000000, 0.00000000, 0.00000000, 0.00000000, 0.17823559, 0.06599164, -0.02886989, 0.00000000, 0.00000000, 0.00000000, 0.00000000
1, 1.6000, 160, 0.18654226, -0.99695128, 0.23328266, -10.83158398, -30.22435379, -36.07752228, 0.00000000, 0.00000000, 0.00000000, 103.99760437, 17.86047745, 56.67562485, 1.00000000, 0.00000000, 0.00000000, 0.00000000, 0.11751485, 0.07286997, -0.00172675, 0.00000000, 0.00000000, 0.00000000, 0.00000000
1, 1.6100, 161, 0.10764569, -0.96495622, 0.21795529, -12.13394451, -27.86339951, -36.64621735, 0.00000000, 0.00000000, 0.00000000, 103.81678009, 18.28317261, 56.48378372, 1.00000000, 0.00000000, 0.00000000, 0.00000000, 0.20346361, 0.04234709, 0.01007627, 0.00000000, 0.00000000, 0.00000000, 0.00000000
1, 1.6200, 162, 0.18943584, -0.92198950, 0.22473435, -14.09613228, -24.39128876, -36.37127686, 0.00000000, 0.00000000, 0.00000000, 103.62545776, 18.69435692, 56.32490921, 1.00000000, 0.00000000, 0.00000000, 0.00000000, 0.12853050, 0.00085305, -0.00023415, 0.00000000, 0.00000000, 0.00000000, 0.00000000
1, 1.6300, 163, 0.20686249, -0.92537200, 0.20529963, -11.47743320, -20.98900223, -37.36066437, 0.00000000, 0.00000000, 0.00000000, 103.46276093, 19.06028557, 56.20170212, 1.00000000, 0.00000000, 0.00000000, 0.00000000, 0.11772753, 0.00575264, 0.01591951, 0.00000000, 0.00000000, 0.00000000, 0.00000000
1, 1.6400, 164, 0.20334582, -0.92941594, 0.20644133, -12.38124180, -19.83201599, -37.59845734, 0.00000000, 0.00000000, 0.00000000, 103.30194855, 19.47195625, 56.08949661, 1.00000000, 0.00000000, 0.00000000, 0.00000000, 0.12746249, 0.01126195, 0.01162867, 0.00000000, 0.00000000, 0.00000000, 0.00000000
1, 1.6500, 165, 0.23066789, -0.92983264, 0.19478597, -10.37578392, -20.25325394, -36.70051193, 0.00000000, 0.00000000, 0.00000000, 103.15769196, 19.87556267, 55.96931076, 1.00000000, 0.00000000, 0.00000000, 0.00000000, 0.10682037, 0.01341969, 0.02035275, 0.00000000, 0.00000000, 0.00000000, 0.00000000
1, 1.6600, 166, 0.24902666, -0.92485034, 0.18972248, -12.70694160, -20.00415230, -35.05912399, 0.00000000, 0.00000000, 0.00000000, 102.98842621, 20.26233101, 55.84631729, 1.00000000, 0.00000000, 0.00000000, 0.00000000, 0.09492849, 0.01012962, 0.02235478, 0.00000000, 0.00000000, 0.00000000, 0.00000000
1, 1.6700, 167, 0.21692228, -0.91586649, 0.20406871, -11.17602062, -19.73173714, -34.72465897, 0.00000000, 0.00000000, 0.00000000, 102.83386993, 20.64489174, 55.72387314, 1.00000000, 0.00000000, 0.00000000, 0.00000000, 0.13332160, 0.00282057, 0.00491027, 0.00000000, 0.00000000, 0.00000000, 0.00000000
1, 1.6800, 168, 0.27418512, -0.91412938, 0.20347181, -12.34265041, -20.53059196, -33.91483688, 0.00000000, 0.00000000, 0.00000000, 102.66353607, 20.99149513, 55.59024048, 1.00000000, 0.00000000, 0.00000000, 0.00000000, 0.08210641, 0.00271723, 0.00239442, 0.00000000, 0.00000000, 0.00000000, 0.00000000
1, 1.6900, 169, 0.23166089, -0.91927320, 0.22074530, -11.36696339, -20.28296471, -34.02885818, 0.00000000, 0.00000000, 0.00000000, 102.50188446, 21.36779976, 55.45745087, 1.00000000, 0.00000000, 0.00000000, 0.00000000, 0.13039559, 0.00943743, -0.01798941, 0.00000000, 0.00000000, 0.00000000, 0.00000000
1, 1.7000, 170, 0.23816194, -0.92369908, 0.24846178, -12.46606350, -20.35746384, -34.01628494, 0.00000000, 0.00000000, 0.00000000, 102.32758331, 21.74377060, 55.32231903, 1.00000000, 0.00000000, 0.00000000, 0.00000000, 0.13001987, 0.01561202, -0.04892229, 0.00000000, 0.00000000, 0.00000000, 0.00000000
1, 1.7100, 171, 0.30894747, -0.92824596, 0.22648183, -12.42340469, -20.92842484, -33.28857422, 0.00000000, 0.00000000, 0.00000000, 102.14942932, 22.11344910, 55.17789841, 1.00000000, 0.00000000, 0.00000000, 0.00000000, 0.06523304, 0.02188854, -0.03026445, 0.00000000, 0.00000000, 0.00000000, 0.00000000
1, 1.7200, 172, 0.22405386, -0.95850086, 0.22988757, -10.95054150, -20.14929199, -34.15487289, 0.00000000, 0.00000000, 0.00000000, 101.98839569, 22.48957443, 55.04212189, 1.00000000, 0.00000000, 0.00000000, 0.00000000, 0.15619311, 0.05399549, -0.03681159, 0.00000000, 0.00000000, 0.00000000, 0.00000000
1, 1.7300, 173, 0.28282174, -0.95881689, 0.21314159, -14.06792545, -21.37515068, -33.09871292, 0.00000000, 0.00000000, 0.00000000, 101.78950500, 22.83117294, 54.88993835, 1.00000000, 0.00000000, 0.00000000, 0.00000000, 0.10330015, 0.05608396, -0.02345880, 0.00000000, 0.00000000, 0.00000000, 0.00000000
1, 1.7400, 174, 0.28992429, -0.94660503, 0.18771635, -13.94867325, -22.17768478, -33.38962555, 0.00000000, 0.00000000, 0.00000000, 101.58648682, 23.20307922, 54.72746658, 1.00000000, 0.00000000, 0.00000000, 0.00000000, 0.10182132, 0.04553072, -0.00171598, 0.00000000, 0.00000000, 0.00000000, 0.00000000
1, 1.7500, 175, 0.21412374, -0.95025575, 0.19427703, -16.10926056, -22.59518051, -34.01557159, 0.00000000, 0.00000000, 0.00000000, 101.35887146, 23.58139038, 54.55993652, 1.00000000, 0.00000000, 0.00000000, 0.00000000, 0.18365994, 0.05102642, -0.01220522, 0.00000000, 0.00000000, 0.00000000, 0.00000000
1, 1.7600, 176, 0.24331109, -0.93863153, 0.19682544, -19.01119232, -21.26606941, -34.01688385, 0.00000000, 0.00000000, 0.00000000, 101.10610962, 23.95648384, 54.40445328, 1.00000000, 0.00000000, 0.00000000, 0.00000000, 0.16048476, 0.04121946, -0.01907331, 0.00000000, 0.00000000, 0.00000000, 0.00000000
1, 1.7700, 177, 0.23813610, -0.93329000, 0.23218800, -24.85646248, -19.84596634, -35.18853760, 0.00000000, 0.00000000, 0.00000000, 100.80020905, 24.33970261, 54.26425171, 1.00000000, 0.00000000, 0.00000000, 0.00000000, 0.17171611, 0.03766014, -0.05937962, 0.00000000, 0.00000000, 0.00000000, 0.00000000
1, 1.7800, 178, 0.20613441, -0.93634528, 0.23852178, -33.96575928, -16.84240341, -35.67160034, 0.00000000, 0.00000000, 0.00000000, 100.43653870, 24.66986847, 54.15937424, 1.00000000, 0.00000000, 0.00000000, 0.00000000, 0.20959511, 0.04229525, -0.07167381, 0.00000000, 0.00000000, 0.00000000, 0.00000000
1, 1.7900, 179, 0.26517376, -0.94604409, 0.25096256, -37.42577362, -19.33134079, -36.51605606, 0.00000000, 0.00000000, 0.00000000, 100.00413513, 25.06352806, 54.02108383, 1.00000000, 0.00000000, 0.00000000, 0.00000000, 0.15609142, 0.05334923, -0.09088784, 0.00000000, 0.00000000, 0.00000000, 0.00000000
1, 1.8000, 180, 0.23227504, -0.96473384, 0.23462522, -36.99600220, -21.94219589, -37.70703888, 0.00000000, 0.00000000, 0.00000000, 99.56233215, 25.47237778, 53.85282135, 1.00000000, 0.00000000, 0.00000000, 0.00000000, 0.19536623, 0.07379711, -0.08182897, 0.00000000, 0.00000000, 0.00000000, 0.00000000
1, 1.8100, 181, 0.31731066, -0.98774201, 0.21287227, -37.48369598, -24.05359268, -38.21593857, 0.00000000, 0.00000000, 0.00000000, 99.10316467, 25.88848686, 53.65820312, 1.00000000, 0.00000000, 0.00000000, 0.00000000, 0.11683495, 0.09867935, -0.06769270, 0.00000000, 0.00000000, 0.00000000, 0.00000000
1, 1.8200, 182, 0.23592038, -1.02902365, 0.23510996, -37.13757324, -23.99691200, -41.28185654, 0.00000000, 0.00000000, 0.00000000, 98.64682007, 26.33339882, 53.46509552, 1.00000000, 0.00000000, 0.00000000, 0.00000000, 0.20504381, 0.14211553, -0.09750286, 0.00000000, 0.00000000, 0.00000000, 0.00000000
1, 1.8300, 183, 0.24390785, -1.02320337, 0.22721334, -40.14099503, -25.48684502, -41.49015427, 0.00000000, 0.00000000, 0.00000000, 98.17014313, 26.73490524, 53.25648117, 1.00000000, 0.00000000, 0.00000000, 0.00000000, 0.20386896, 0.13852420, -0.09748052, 0.00000000, 0.00000000, 0.00000000, 0.00000000
1, 1.8400, 184, 0.24732992, -1.04363048, 0.23890078, -37.76837158, -27.57414055, -44.22116852, 0.00000000, 0.00000000, 0.00000000, 97.68449402, 27.21091080, 53.01844406, 1.00000000, 0.00000000, 0.00000000, 0.00000000, 0.20711496, 0.16124588, -0.11696939, 0.00000000, 0.00000000, 0.00000000, 0.00000000
1, 1.8500, 185, 0.23195848, -1.09266829, 0.23867781, -37.91187286, -27.87122536, -47.33776855, 0.00000000, 0.00000000, 0.00000000, 97.19358826, 27.71639061, 52.77603149, 1.00000000, 0.00000000, 0.00000000, 0.00000000, 0.23017135, 0.21320346, -0.12480494, 0.00000000, 0.00000000, 0.00000000, 0.00000000
1, 1.8600, 186, 0.25487939, -1.13632679, 0.22938445, -39.27967834, -28.12243843, -50.36883545, 0.00000000, 0.00000000, 0.00000000, 96.68480682, 28.25036812, 52.52882767, 1.00000000, 0.00000000, 0.00000000, 0.00000000, 0.21533871, 0.26013637, -0.12367912, 0.00000000, 0.00000000, 0.00000000, 0.00000000
1, 1.8700, 187, 0.22449236, -1.16384923, 0.22269624, -39.97307968, -28.60676575, -54.95084000, 0.00000000, 0.00000000, 0.00000000, 96.16390228, 28.82844925, 52.27519226, 1.00000000, 0.00000000, 0.00000000, 0.00000000, 0.25431460, 0.29133916, -0.12545082, 0.00000000, 0.00000000, 0.00000000, 0.00000000
1, 1.8800, 188, 0.16944627, -1.18019903, 0.20109110, -41.27650833, -29.55973816, -57.99097824, 0.00000000, 0.00000000, 0.00000000, 95.62902069, 29.38416672, 52.01057434, 1.00000000, 0.00000000, 0.00000000, 0.00000000, 0.31833306, 0.31175184, -0.11244296, 0.00000000, 0.00000000, 0.00000000, 0.00000000
1, 1.8900, 189, 0.23826875, -1.18636620, 0.15560581, -43.37070084, -28.69261742, -60.94747925, 0.00000000, 0.00000000, 0.00000000, 95.06477356, 30.01773834, 51.74705505, 1.00000000, 0.00000000, 0.00000000, 0.00000000, 0.25833338, 0.32207596, -0.07577442, 0.00000000, 0.00000000, 0.00000000, 0.00000000
1, 1.9000, 190, 0.15818740, -1.19507265, 0.12553249, -45.34100723, -27.77399826, -66.09227753, 0.00000000, 0.00000000, 0.00000000, 94.48150635, 30.69950867, 51.49005127, 1.00000000, 0.00000000, 0.00000000, 0.00000000, 0.34846264, 0.33583355, -0.05484525, 0.00000000, 0.00000000, 0.00000000, 0.00000000
1, 1.9100, 191, 0.17378584, -1.20298147, 0.11955493, -48.69198990, -25.06278801, -69.22163391, 0.00000000, 0.00000000, 0.00000000, 93.87449646, 31.40818214, 51.25717163, 1.00000000, 0.00000000, 0.00000000, 0.00000000, 0.34334660, 0.34928229, -0.05829089, 0.00000000, 0.00000000, 0.00000000, 0.00000000
1, 1.9200, 192, 0.20398873, -1.20638049, 0.10308336, -51.52729797, -22.52853584, -74.28430939, 0.00000000, 0.00000000, 0.00000000, 93.24848938, 32.16360092, 51.04691696, 1.00000000, 0.00000000, 0.00000000, 0.00000000, 0.32409260, 0.35876900, -0.05146816, 0.00000000, 0.00000000, 0.00000000, 0.00000000
1, 1.9300, 193, 0.17609252, -1.21564388, 0.11197270, -54.94937897, -20.98007393, -79.36892700, 0.00000000, 0.00000000, 0.00000000, 92.59547424, 32.91701508, 50.84952164, 1.00000000, 0.00000000, 0.00000000, 0.00000000, 0.36342826, 0.37471920, -0.07023203, 0.00000000, 0.00000000, 0.00000000, 0.00000000
1, 1.9400, 194, 0.26317495, -1.23151767, 0.08663717, -57.56199646, -19.91773224, -82.54428101, 0.00000000, 0.00000000, 0.00000000, 91.91028595, 33.74964523, 50.65015030, 1.00000000, 0.00000000, 0.00000000, 0.00000000, 0.28780347, 0.39761180, -0.05502478, 0.00000000, 0.00000000, 0.00000000, 0.00000000
1, 1.9500, 195, 0.22063246, -1.24015307, 0.08315823, -58.48880768, -20.60151291, -87.52825928, 0.00000000, 0.00000000, 0.00000000, 91.20156860, 34.63016891, 50.42984772, 1.00000000, 0.00000000, 0.00000000, 0.00000000, 0.34283853, 0.41430509, -0.06197621, 0.00000000, 0.00000000, 0.00000000, 0.00000000
1, 1.9600, 196, 0.08572741, -1.26369715, 0.08221423, -58.81797028, -22.62964249, -89.98050690, 0.00000000, 0.00000000, 0.00000000, 90.46363068, 35.53316116, 50.16932297, 1.00000000, 0.00000000, 0.00000000, 0.00000000, 0.49060556, 0.44656819, -0.07161875, 0.00000000, 0.00000000, 0.00000000, 0.00000000
1, 1.9700, 197, 0.15259235, -1.28440762, 0.16924641, -62.94746780, -15.16398335, -90.17444611, 0.00000000, 0.00000000, 0.00000000, 89.72538757, 36.43528748, 49.98392868, 1.00000000, 0.00000000, 0.00000000, 0.00000000, 0.43655342, 0.47639805, -0.16918010, 0.00000000, 0.00000000, 0.00000000, 0.00000000
1, 1.9800, 198, 0.07910388, -1.34380102, 0.27866802, -61.41778183, -1.18789446, -96.48558044, 0.00000000, 0.00000000, 0.00000000, 89.11640930, 37.34860229, 49.96694565, 1.00000000, 0.00000000, 0.00000000, 0.00000000, 0.52298474, 0.54544264, -0.28805056, 0.00000000, 0.00000000, 0.00000000, 0.00000000
1, 1.9900, 199, 0.21858928, -1.38037908, 0.27028191, -67.26519012, 2.16302395, -99.47184753, 0.00000000, 0.00000000, 0.00000000, 88.44416046, 38.34355545, 49.96757889, 1.00000000, 0.00000000, 0.00000000, 0.00000000, 0.39662218, 0.59223878, -0.28814489, 0.00000000, 0.00000000, 0.00000000, 0.00000000
1, 2.0000, 200, 0.05402397, -1.34942484, 0.38820583, -61.48731995, -0.49519047, -103.47622681, 0.00000000, 0.00000000, 0.00000000, 87.79769897, 39.37751770, 49.91746521, 1.00000000, 0.00000000, 0.00000000, 0.00000000, 0.57513499, 0.57262349, -0.41479585, 0.00000000, 0.00000000, 0.00000000, 0.00000000
1, 2.0100, 201, 0.04003920, -1.39705729, 0.43504301, -59.46117020, -7.39614582, -102.82991791, 0.00000000, 0.00000000, 0.00000000, 87.10305786, 40.40145874, 49.76165009, 1.00000000, 0.00000000, 0.00000000, 0.00000000, 0.60299569, 0.63204587, -0.47014028, 0.00000000, 0.00000000, 0.00000000, 0.00000000
1, 2.0200, 202, 0.15183717, -1.44511175, 0.48357010, -58.02609253, -9.62297249, -108.15847778, 0.00000000, 0.00000000, 0.00000000, 86.38594818, 41.47578049, 49.55286407, 1.00000000, 0.00000000, 0.00000000, 0.00000000, 0.50507301, 0.69245356, -0.52761281, 0.00000000, 0.00000000, 0.00000000, 0.00000000
1, 2.0300, 203, -0.15785259, -1.47407758, 0.59870189, -48.11892319, -21.04666138, -113.97914124, 0.00000000, 0.00000000, 0.00000000, 85.68096161, 42.55556107, 49.18278122, 1.00000000, 0.00000000, 0.00000000, 0.00000000, 0.82913470, 0.73476267, -0.65123886, 0.00000000, 0.00000000, 0.00000000, 0.00000000
1, 2.0400, 204, -0.14206751, -1.44023490, 0.61510026, -43.35500717, -41.01568222, -108.27066040, 0.00000000, 0.00000000, 0.00000000, 84.78061676, 43.60026550, 48.50002670, 1.00000000, 0.00000000, 0.00000000, 0.00000000, 0.82682943, 0.71411401, -0.67685395, 0.00000000, 0.00000000, 0.00000000, 0.00000000
1, 2.0500, 205, 0.00893951, -1.42061079, 0.52611887, -37.53987503, -65.64673615, -100.58262634, 0.00000000, 0.00000000, 0.00000000, 83.67460632, 44.53480911, 47.45019913, 1.00000000, 0.00000000, 0.00000000, 0.00000000, 0.68812722, 0.70741749, -0.59972316, 0.00000000, 0.00000000, 0.00000000, 0.00000000
1, 2.0600, 206, -0.09110964, -1.43753123, 0.48801309, -31.41674995, -93.18149567, -97.72734070, 0.00000000, 0.00000000, 0.00000000, 82.31726837, 45.39101410, 45.97459030, 1.00000000, 0.00000000, 0.00000000, 0.00000000, 0.79913259, 0.73686612, -0.57594460, 0.00000000, 0.00000000, 0.00000000, 0.00000000
1, 2.0700, 207, -0.22875667, -1.38587248, 0.28178757, -24.38079262, -119.59162903, -97.49484253, 0.00000000, 0.00000000, 0.00000000, 80.70948792, 46.17878723, 44.07209778, 1.00000000, 0.00000000, 0.00000000, 0.00000000, 0.94674152, 0.69778925, -0.38663840, 0.00000000, 0.00000000, 0.00000000, 0.00000000
1, 2.0800, 208, 0.00987033, -1.24770665, 0.14429879, -45.12205124, -124.47593689, -99.78344727, 0.00000000, 0.00000000, 0.00000000, 78.80752563, 46.89220047, 42.05286789, 1.00000000, 0.00000000, 0.00000000, 0.00000000, 0.71717125, 0.57256776, -0.26897490, 0.00000000, 0.00000000, 0.00000000, 0.00000000
1, 2.0900, 209, 0.58217674, -1.09993935, 0.08028016, -68.39566040, -104.10389709, -114.81515503, 0.00000000, 0.00000000, 0.00000000, 76.75599670, 47.79445648, 40.19243240, 1.00000000, 0.00000000, 0.00000000, 0.00000000, 0.15435974, 0.43957651, -0.22646075, 0.00000000, 0.00000000, 0.00000000, 0.00000000
1, 2.1000, 210, 0.68704534, -1.17238724, 0.24828827, -64.90145874, -78.81012726, -137.15112305, 0.00000000, 0.00000000, 0.00000000, 74.86926270, 48.93095398, 38.53601074, 1.00000000, 0.00000000, 0.00000000, 0.00000000, 0.06181137, 0.53060120, -0.41338122, 0.00000000, 0.00000000, 0.00000000, 0.00000000
1, 2.1100, 211, 0.44583195, -1.31643617, 0.31048411, -62.05806351, -70.98829651, -145.31831360, 0.00000000, 0.00000000, 0.00000000, 72.97766113, 50.13101578, 36.86518097, 1.00000000, 0.00000000, 0.00000000, 0.00000000, 0.31661761, 0.69546735, -0.49213833, 0.00000000, 0.00000000, 0.00000000, 0.00000000
1, 2.1200, 212, 0.28565121, -1.34914732, 0.26516390, -61.27796555, -70.42907715, -137.56913757, 0.00000000, 0.00000000, 0.00000000, 71.02774811, 51.22163010, 35.13747787, 1.00000000, 0.00000000, 0.00000000, 0.00000000, 0.48962069, 0.74924713, -0.46267262, 0.00000000, 0.00000000, 0.00000000, 0.00000000
1, 2.1300, 213, 0.37110099, -1.28688359, 0.33804029, -62.76716995, -100.64629364, -123.90784454, 0.00000000, 0.00000000, 0.00000000, 68.73115540, 52.01411057, 32.97158051, 1.00000000, 0.00000000, 0.00000000, 0.00000000, 0.41417068, 0.70657659, -0.55374461, 0.00000000, 0.00000000, 0.00000000, 0.00000000
1, 2.1400, 214, 0.53854859, -1.10177004, 0.53616625, -68.23089600, -109.43267059, -115.84246063, 0.00000000, 0.00000000, 0.00000000, 66.16338348, 52.66421127, 30.59015274, 1.00000000, 0.00000000, 0.00000000, 0.00000000, 0.25404698, 0.54003972, -0.77319664, 0.00000000, 0.00000000, 0.00000000, 0.00000000
1, 2.1500, 215, 0.59954500, -0.92888850, 0.60196722, -44.64635468, -104.23772430, -105.16790009, 0.00000000, 0.00000000, 0.00000000, 63.87841034, 53.17693329, 28.28611565, 1.00000000, 0.00000000, 0.00000000, 0.00000000, 0.19908933, 0.38478699, -0.85904288, 0.00000000, 0.00000000, 0.00000000, 0.00000000
1, 2.1600, 216, 0.45963362, -0.84098393, 0.43858477, -27.32281303, -106.64126587, -86.40418243, 0.00000000, 0.00000000, 0.00000000, 61.80150604, 53.45888519, 26.03754807, 1.00000000, 0.00000000, 0.00000000, 0.00000000, 0.34288019, 0.31143302, -0.71337509, 0.00000000, 0.00000000, 0.00000000, 0.00000000
1, 2.1700, 217, 0.26350793, -0.70284748, 0.23753385, -28.90712166, -109.02552795, -69.54371643, 0.00000000, 0.00000000, 0.00000000, 59.76773453, 53.53379440, 23.86735153, 1.00000000, 0.00000000, 0.00000000, 0.00000000, 0.54053080, 0.18523750, -0.53005230, 0.00000000, 0.00000000, 0.00000000, 0.00000000
1, 2.1800, 218, 0.24647804, -0.50412905, 0.18738605, -23.48215866, -115.82873535, -50.17876816, 0.00000000, 0.00000000, 0.00000000, 57.95039749, 53.35662460, 21.83851433, 1.00000000, 0.00000000, 0.00000000, 0.00000000, 0.55679488, -0.00408768, -0.49793500, 0.00000000, 0.00000000, 0.00000000, 0.00000000
1, 2.1900, 219, 0.30365580, -0.45046437, 0.23230249, 9.74472141, -122.02120972, -33.14180374, 0.00000000, 0.00000000, 0.00000000, 56.43874359, 52.97340393, 19.82851219, 1.00000000, 0.00000000, 0.00000000, 0.00000000, 0.49636722, -0.05250100, -0.55936038, 0.00000000, 0.00000000, 0.00000000, 0.00000000
1, 2.2000, 220, 0.14451036, -0.53042334, 0.38143656, 40.42466354, -121.76165771, -17.64252090, 0.00000000, 0.00000000, 0.00000000, 55.38901901, 52.43665695, 18.00118065, 1.00000000, 0.00000000, 0.00000000, 0.00000000, 0.65039301, 0.02892645, -0.72292376, 0.00000000, 0.00000000, 0.00000000, 0.00000000
1, 2.2100, 221, -0.16818474, -0.56959373, 0.42055279, 55.62616348, -112.82978058, -2.02653909, 0.00000000, 0.00000000, 0.00000000, 54.74096298, 51.80688858, 16.47576523, 1.00000000, 0.00000000, 0.00000000, 0.00000000, 0.95672172, 0.06609766, -0.77366483, 0.00000000, 0.00000000, 0.00000000, 0.00000000
1, 2.2200, 222, -0.37703499, -0.56761962, 0.30446240, 50.29801559, -104.97524261, 17.90531921, 0.00000000, 0.00000000, 0.00000000, 54.30151367, 51.05179596, 15.27089405, 1.00000000, 0.00000000, 0.00000000, 0.00000000, 1.15799451, 0.05942887, -0.66754407, 0.00000000, 0.00000000, 0.00000000, 0.00000000
1, 2.2300, 223, -0.48277256, -0.47153178, 0.11887203, 37.80910873, -101.79280853, 42.73450851, 0.00000000, 0.00000000, 0.00000000, 54.04196930, 50.02748871, 14.41997337, 1.00000000, 0.00000000, 0.00000000, 0.00000000, 1.25395405, -0.04418550, -0.49208349, 0.00000000, 0.00000000, 0.00000000, 0.00000000
1, 2.2400, 224, -0.43779111, -0.41636175, -0.04174285, 40.12085724, -112.50977325, 63.49136353, 0.00000000, 0.00000000, 0.00000000, 53.81716919, 48.85177231, 13.59627247, 1.00000000, 0.00000000, 0.00000000, 0.00000000, 1.19593894, -0.11042741, -0.34253621, 0.00000000, 0.00000000, 0.00000000, 0.00000000
1, 2.2500, 225, -0.29059932, -0.40815446, -0.04898686, 39.78451538, -88.53282928, 71.96775818, 0.00000000, 0.00000000, 0.00000000, 53.88875580, 47.74820709, 13.15996361, 1.00000000, 0.00000000, 0.00000000, 0.00000000, 1.03541315, -0.13047308, -0.34484670, 0.00000000, 0.00000000, 0.00000000, 0.00000000
1, 2.2600, 226, -0.15480255, -0.42104265, -0.06255367, 51.12725449, -44.00114059, 74.78630066, 0.00000000, 0.00000000, 0.00000000, 54.48759842, 46.88399124, 13.27982330, 1.00000000, 0.00000000, 0.00000000, 0.00000000, 0.88834679, -0.13023700, -0.33491582, 0.00000000, 0.00000000, 0.00000000, 0.00000000
1, 2.2700, 227, -0.05600400, -0.47452182, -0.03281844, 67.34711456, -9.25274754, 77.95478821, 0.00000000, 0.00000000, 0.00000000, 55.55263519, 46.19211197, 13.81956959, 1.00000000, 0.00000000, 0.00000000, 0.00000000, 0.78072357, -0.09079526, -0.36110204, 0.00000000, 0.00000000, 0.00000000, 0.00000000
1, 2.2800, 228, 0.02606536, -0.53447533, 0.04939686, 81.76590729, 3.10167360, 82.14126587, 0.00000000, 0.00000000, 0.00000000, 56.95002747, 45.48641968, 14.56762028, 1.00000000, 0.00000000, 0.00000000, 0.00000000, 0.69042265, -0.04641807, -0.43562430, 0.00000000, 0.00000000, 0.00000000, 0.00000000
1, 2.2900, 229, 0.05885270, -0.60939682, 0.12316418, 93.78429413, 15.47754860, 84.64244080, 0.00000000, 0.00000000, 0.00000000, 58.47430801, 44.85340500, 15.39476871, 1.00000000, 0.00000000, 0.00000000, 0.00000000, 0.64931709, 0.01140995, -0.49848986, 0.00000000, 0.00000000, 0.00000000, 0.00000000
1, 2.3000, 230, 0.03303176, -0.67817903, 0.13782342, 102.38744354, 33.18592072, 89.59317780, 0.00000000, 0.00000000, 0.00000000, 60.22888947, 44.25164032, 16.43646240, 1.00000000, 0.00000000, 0.00000000, 0.00000000, 0.66759682, 0.06306899, -0.49936479, 0.00000000, 0.00000000, 0.00000000, 0.00000000
1, 2.3100, 231, 0.00831006, -0.72806531, 0.12612393, 111.09375763, 49.81486893, 98.69472504, 0.00000000, 0.00000000, 0.00000000, 62.21833801, 43.62615204, 17.70267296, 1.00000000, 0.00000000, 0.00000000, 0.00000000, 0.68463510, 0.09474465, -0.47061220, 0.00000000, 0.00000000, 0.00000000, 0.00000000
1, 2.3200, 232, 0.00696129, -0.74006557, 0.09709492, 119.36168671, 65.23768616, 109.37985229, 0.00000000, 0.00000000, 0.00000000, 64.42349243, 42.94154739, 19.17810822, 1.00000000, 0.00000000, 0.00000000, 0.00000000, 0.67762554, 0.08730423, -0.42139262, 0.00000000, 0.00000000, 0.00000000, 0.00000000
1, 2.3300, 233, 0.01634715, -0.74284655, 0.07314542, 128.98338318, 81.51666260, 118.32607269, 0.00000000, 0.00000000, 0.00000000, 66.88569641, 42.16273499, 20.87694359, 1.00000000, 0.00000000, 0.00000000, 0.00000000, 0.65888536, 0.06941931, -0.37391305, 0.00000000, 0.00000000, 0.00000000, 0.00000000
1, 2.3400, 234, 0.05596970, -0.76864505, 0.07173355, 136.92810059, 98.50575256, 126.19873810, 0.00000000, 0.00000000, 0.00000000, 69.49015808, 41.35678864, 22.73159218, 1.00000000, 0.00000000, 0.00000000, 0.00000000, 0.60880214, 0.07364103, -0.34548685, 0.00000000, 0.00000000, 0.00000000, 0.00000000
1, 2.3500, 235, 0.11058920, -0.81806141, 0.09099215, 141.86558533, 113.33750916, 135.93771362, 0.00000000, 0.00000000, 0.00000000, 72.22254181, 40.44397736, 24.73776627, 1.00000000, 0.00000000, 0.00000000, 0.00000000, 0.54278845, 0.10151455, -0.33498985, 0.00000000, 0.00000000, 0.00000000, 0.00000000
1, 2.3600, 236, 0.16408345, -0.88269770, 0.11870387, 141.44760132, 119.17668915, 145.65370178, 0.00000000, 0.00000000, 0.00000000, 74.93787384, 39.38344955, 26.76464081, 1.00000000, 0.00000000, 0.00000000, 0.00000000, 0.47592711, 0.14444157, -0.33138609, 0.00000000, 0.00000000, 0.00000000, 0.00000000
1, 2.3700, 237, 0.21953487, -0.93905437, 0.11634003, 137.45111084, 116.21847534, 156.42973328, 0.00000000, 0.00000000, 0.00000000, 77.51807404, 38.14074326, 28.68934441, 1.00000000, 0.00000000, 0.00000000, 0.00000000, 0.40464211, 0.17922169, -0.29779008, 0.00000000, 0.00000000, 0.00000000, 0.00000000
1, 2.3800, 238, 0.26743501, -0.97851855, 0.09292437, 133.50958252, 103.83215332, 167.72386169, 0.00000000, 0.00000000, 0.00000000, 79.90310669, 36.67908096, 30.39511108, 1.00000000, 0.00000000, 0.00000000, 0.00000000, 0.33783266, 0.19714811, -0.24449778, 0.00000000, 0.00000000, 0.00000000, 0.00000000
1, 2.3900, 239, 0.28887311, -1.01524019, 0.09054852, 131.97319031, 90.01221466, 177.81677246, 0.00000000, 0.00000000, 0.00000000, 82.06760406, 35.06403732, 31.83565521, 1.00000000, 0.00000000, 0.00000000, 0.00000000, 0.29439646, 0.21244617, -0.21376780, 0.00000000, 0.00000000, 0.00000000, 0.00000000
1, 2.4000, 240, 0.27082318, -1.04382551, 0.09410914, 130.80284119, 77.51687622, 186.55584717, 0.00000000, 0.00000000, 0.00000000, 84.05182648, 33.30598450, 33.03807068, 1.00000000, 0.00000000, 0.00000000, 0.00000000, 0.28798786, 0.22023684, -0.19051324, 0.00000000, 0.00000000, 0.00000000, 0.00000000
1, 2.4100, 241, 0.24314985, -1.07096624, 0.10412213, 130.78587341, 67.75494385, 194.26309204, 0.00000000, 0.00000000, 0.00000000, 85.89572144, 31.43033218, 34.03841019, 1.00000000, 0.00000000, 0.00000000, 0.00000000, 0.28885779, 0.22725825, -0.17471164, 0.00000000, 0.00000000, 0.00000000, 0.00000000
1, 2.4200, 242, 0.21963780, -1.10233700, 0.12196755, 132.16288757, 62.23390579, 202.37075806, 0.00000000, 0.00000000, 0.00000000, 87.64963531, 29.44494247, 34.89104462, 1.00000000, 0.00000000, 0.00000000, 0.00000000, 0.28333691, 0.23930757, -0.16721840, 0.00000000, 0.00000000, 0.00000000, 0.00000000
1, 2.4300, 243, 0.20947459, -1.14565051, 0.15443125, 136.46679688, 63.61761475, 209.52655029, 0.00000000, 0.00000000, 0.00000000, 89.39752197, 27.35027504, 35.67982101, 1.00000000, 0.00000000, 0.00000000, 0.00000000, 0.26226562, 0.26421914, -0.17384188, 0.00000000, 0.00000000, 0.00000000, 0.00000000
1, 2.4400, 244, 0.18678749, -1.22294271, 0.18900400, 143.73686218, 66.07281494, 213.84130859, 0.00000000, 0.00000000, 0.00000000, 91.15624237, 25.20875549, 36.40525055, 1.00000000, 0.00000000, 0.00000000, 0.00000000, 0.25180501, 0.32438493, -0.18118986, 0.00000000, 0.00000000, 0.00000000, 0.00000000
1, 2.4500, 245, 0.14315976, -1.29899979, 0.19671047, 148.28884888, 67.91430664, 217.13214111, 0.00000000, 0.00000000, 0.00000000, 92.90863037, 23.01477432, 37.06445312, 1.00000000, 0.00000000, 0.00000000, 0.00000000, 0.26103112, 0.38512948, -0.16072904, 0.00000000, 0.00000000, 0.00000000, 0.00000000
1, 2.4600, 246, 0.13863842, -1.36116695, 0.21719258, 151.83934021, 70.83706665, 221.16542053, 0.00000000, 0.00000000, 0.00000000, 94.65260315, 20.76128006, 37.66898346, 1.00000000, 0.00000000, 0.00000000, 0.00000000, 0.22963932, 0.43381691, -0.15231331, 0.00000000, 0.00000000, 0.00000000, 0.00000000
1, 2.4700, 247, 0.18785767, -1.43130004, 0.23522548, 153.47337341, 71.01352692, 224.62983704, 0.00000000, 0.00000000, 0.00000000, 96.36266327, 18.45734787, 38.19041824, 1.00000000, 0.00000000, 0.00000000, 0.00000000, 0.14304157, 0.49244291, -0.14107493, 0.00000000, 0.00000000, 0.00000000, 0.00000000
1, 2.4800, 248, 0.26420131, -1.51031578, 0.22367924, 153.97814941, 66.65319061, 227.98461914, 0.00000000, 0.00000000, 0.00000000, 98.01961517, 16.10854912, 38.58431244, 1.00000000, 0.00000000, 0.00000000, 0.00000000, 0.02804426, 0.56204832, -0.10043028, 0.00000000, 0.00000000, 0.00000000, 0.00000000
1, 2.4900, 249, 0.35701904, -1.58751333, 0.19382019, 152.03666687, 59.25568390, 231.42097473, 0.00000000, 0.00000000, 0.00000000, 99.60202026, 13.73115635, 38.82334900, 1.00000000, 0.00000000, 0.00000000, 0.00000000, -0.10455742, 0.63195640, -0.04221494, 0.00000000, 0.00000000, 0.00000000, 0.00000000
1, 2.5000, 250, 0.47036469, -1.68498063, 0.17246279, 153.86888123, 51.46240616, 232.65411377, 0.00000000, 0.00000000, 0.00000000, 101.16045380, 11.35018063, 38.91259766, 1.00000000, 0.00000000, 0.00000000, 0.00000000, -0.25833640, 0.72441435, 0.00688823, 0.00000000, 0.00000000, 0.00000000, 0.00000000
1, 2.5100, 251, 0.55910856, -1.77032006, 0.17466727, 156.96588135, 48.18221283, 232.59503174, 0.00000000, 0.00000000, 0.00000000, 102.72858429, 8.97501564, 38.90252304, 1.00000000, 0.00000000, 0.00000000, 0.00000000, -0.38778776, 0.80723500, 0.03251760, 0.00000000, 0.00000000, 0.00000000, 0.00000000
1, 2.5200, 252, 0.51608199, -1.80064762, 0.12852113, 157.64881897, 56.53942490, 230.42781067, 0.00000000, 0.00000000, 0.00000000, 104.30644989, 6.60228062, 38.91374969, 1.00000000, 0.00000000, 0.00000000, 0.00000000, -0.38570952, 0.83754742, 0.10652968, 0.00000000, 0.00000000, 0.00000000, 0.00000000
1, 2.5300, 253, 0.46283415, -1.83840501, 0.00473428, 154.95190430, 68.34239960, 225.26271057, 0.00000000, 0.00000000, 0.00000000, 105.85483551, 4.25379896, 38.98864746, 1.00000000, 0.00000000, 0.00000000, 0.00000000, -0.37342256, 0.87771237, 0.25773165, 0.00000000, 0.00000000, 0.00000000, 0.00000000
1, 2.5400, 254, 0.50142395, -1.89862800, -0.11876637, 149.54104614, 79.50746155, 215.87104797, 0.00000000, 0.00000000, 0.00000000, 107.35788727, 1.95773315, 39.13370132, 1.00000000, 0.00000000, 0.00000000, 0.00000000, -0.45234799, 0.94255269, 0.40744296, 0.00000000, 0.00000000, 0.00000000, 0.00000000
1, 2.5500, 255, 0.60395914, -1.91118407, -0.22456463, 131.89837646, 86.15169525, 205.63082886, 0.00000000, 0.00000000, 0.00000000, 108.67956543, -0.26428834, 39.31624222, 1.00000000, 0.00000000, 0.00000000, 0.00000000, -0.59412646, 0.96135908, 0.53694206, 0.00000000, 0.00000000, 0.00000000, 0.00000000
1, 2.5600, 256, 0.73335195, -1.80053306, -0.33120185, 107.02476501, 86.47273254, 197.43446350, 0.00000000, 0.00000000, 0.00000000, 109.74593353, -2.41327524, 39.48265457, 1.00000000, 0.00000000, 0.00000000, 0.00000000, -0.76150382, 0.85752869, 0.66258633, 0.00000000, 0.00000000, 0.00000000, 0.00000000
1, 2.5700, 257, 0.94116694, -1.74819005, -0.30921486, 95.32910156, 89.94993591, 186.52415466, 0.00000000, 0.00000000, 0.00000000, 110.68702698, -4.47452974, 39.68267059, 1.00000000, 0.00000000, 0.00000000, 0.00000000, -1.00586963, 0.81253111, 0.65596461, 0.00000000, 0.00000000, 0.00000000, 0.00000000
1, 2.5800, 258, 1.11175883, -1.74808061, -0.23812184, 83.18167877, 85.44946289, 171.06301880, 0.00000000, 0.00000000, 0.00000000, 111.49082947, -6.36079693, 39.86648560, 1.00000000, 0.00000000, 0.00000000, 0.00000000, -1.21060407, 0.82051051, 0.59832644, 0.00000000, 0.00000000, 0.00000000, 0.00000000
1, 2.5900, 259, 1.29170918, -1.34616053, -0.25366023, 58.23231888, 84.22795868, 153.25987244, 0.00000000, 0.00000000, 0.00000000, 112.04581451, -8.09649944, 40.08222580, 1.00000000, 0.00000000, 0.00000000, 0.00000000, -1.42156732, 0.42581639, 0.62247878, 0.00000000, 0.00000000, 0.00000000, 0.00000000
1, 2.6000, 260, 1.54026306, -1.20519173, -0.30170304, 82.28335571, 90.77516937, 114.78952026, 0.00000000, 0.00000000, 0.00000000, 112.80583954, -9.50417805, 40.48853302, 1.00000000, 0.00000000, 0.00000000, 0.00000000, -1.69679284, 0.29291010, 0.68009812, 0.00000000, 0.00000000, 0.00000000, 0.00000000
1, 2.6100, 261, 1.66433704, -1.12177587, -0.55178964, 66.85240173, 88.95582581, 63.33443451, 0.00000000, 0.00000000, 0.00000000, 113.37360382, -10.43584728, 41.06749344, 1.00000000, 0.00000000, 0.00000000, 0.00000000, -1.84021831, 0.21680920, 0.93918657, 0.00000000, 0.00000000, 0.00000000, 0.00000000
1, 2.6200, 262, 1.55713749, -1.11516690, -0.72098386, 52.25124741, 75.54112244, 8.89762688, 0.00000000, 0.00000000, 0.00000000, 113.77229309, -10.81977272, 41.73602295, 1.00000000, 0.00000000, 0.00000000, 0.00000000, -1.74307489, 0.21506104, 1.11497772, 0.00000000, 0.00000000, 0.00000000, 0.00000000
1, 2.6300, 263, 1.40485764, -1.26305234, -0.70502514, 22.73857117, 73.63909912, -42.22859192, 0.00000000, 0.00000000, 0.00000000, 113.81840515, -10.70576477, 42.60211563, 1.00000000, 0.00000000, 0.00000000, 0.00000000, -1.59208846, 0.36456200, 1.10208762, 0.00000000, 0.00000000, 0.00000000, 0.00000000
1, 2.6400, 264, 1.31390440, -1.36946344, -0.66566503, -14.33846569, 84.50731659, -85.76202393, 0.00000000, 0.00000000, 0.00000000, 113.46782684, -10.25949001, 43.73931885, 1.00000000, 0.00000000, 0.00000000, 0.00000000, -1.49528432, 0.46850568, 1.05983138, 0.00000000, 0.00000000, 0.00000000, 0.00000000
1, 2.6500, 265, 1.27568197, -1.35783684, -0.59250385, -43.30978394, 97.10391235, -116.89737701, 0.00000000, 0.00000000, 0.00000000, 112.79819489, -9.56628704, 45.11212540, 1.00000000, 0.00000000, 0.00000000, 0.00000000, -1.44661212, 0.45135266, 0.97856843, 0.00000000, 0.00000000, 0.00000000, 0.00000000
1, 2.6600, 266, 1.21017039, -1.29258263, -0.43570191, -58.86738586, 109.06017303, -138.92993164, 0.00000000, 0.00000000, 0.00000000, 111.96234131, -8.69686508, 46.66928101, 1.00000000, 0.00000000, 0.00000000, 0.00000000, -1.36719632, 0.37876490, 0.81019437, 0.00000000, 0.00000000, 0.00000000, 0.00000000
1, 2.6700, 267, 0.92467374, -1.10999846, -0.03069190, -71.20503235, 115.73047638, -158.57931519, 0.00000000, 0.00000000, 0.00000000, 111.01193237, -7.64521027, 48.34389114, 1.00000000, 0.00000000, 0.00000000, 0.00000000, -1.06481338, 0.18798016, 0.39151573, 0.00000000, 0.00000000, 0.00000000, 0.00000000
1, 2.6800, 268, -0.93862218, -0.95960170, 1.68155134, -44.72783279, 178.45065308, -182.97773743, 0.00000000, 0.00000000, 0.00000000, 110.28392792, -6.56317663, 50.67508698, 1.00000000, 0.00000000, 0.00000000, 0.00000000, 0.81810105, 0.02989219, -1.33358765, 0.00000000, 0.00000000, 0.00000000, 0.00000000
1, 2.6900, 269, -3.91324210, -1.59158182, 1.33021641, 37.08208847, 199.99108887, -116.19589233, 0.00000000, 0.00000000, 0.00000000, 110.40176392, -6.16390276, 52.96730804, 1.00000000, 0.00000000, 0.00000000, 0.00000000, 3.80420351, 0.65893978, -0.98629117, 0.00000000, 0.00000000, 0.00000000, 0.00000000
1, 2.7000, 270, -1.63138545, -1.61009109, -0.70378733, 24.69412231, -53.09174728, 4.51606846, 0.00000000, 0.00000000, 0.00000000, 110.70322418, -6.01723623, 52.45193481, 1.00000000, 0.00000000, 0.00000000, 0.00000000, 1.52541554, 0.68033695, 1.05638337, 0.00000000, 0.00000000, 0.00000000, 0.00000000
1, 2.7100, 271, 1.28397071, -1.47584808, -0.93145394, -139.46551514, -104.35580444, -46.66400146, 0.00000000, 0.00000000, 0.00000000, 109.39136505, -5.22156811, 51.62416458, 1.00000000, 0.00000000, 0.00000000, 0.00000000, -1.38197494, 0.53970587, 1.26904917, 0.00000000, 0.00000000, 0.00000000, 0.00000000
1, 2.7200, 272, 1.30332673, -2.01499176, 0.66307205, -21.38882256, 11.42852020, -167.92582703, 0.00000000, 0.00000000, 0.00000000, 109.13188934, -3.67341399, 52.28785706, 1.00000000, 0.00000000, 0.00000000, 0.00000000, -1.37675905, 1.07338786, -0.33454022, 0.00000000, 0.00000000, 0.00000000, 0.00000000
1, 2.7300, 273, -0.00800408, -1.62039685, 0.66133142, -132.79841614, 163.72119141, -141.87789917, 0.00000000, 0.00000000, 0.00000000, 107.67819214, -2.85726047, 54.29800034, 1.00000000, 0.00000000, 0.00000000, 0.00000000, -0.04692176, 0.67248440, -0.34769526, 0.00000000, 0.00000000, 0.00000000, 0.00000000
1, 2.7400, 274, 0.27297238, -0.88378316, -0.39846733, -69.75399780, 5.79204702, -129.19966125, 0.00000000, 0.00000000, 0.00000000, 106.95998383, -1.64179122, 54.73445129, 1.00000000, 0.00000000, 0.00000000, 0.00000000, -0.31039888, -0.07146128, 0.69182807, 0.00000000, 0.00000000, 0.00000000, 0.00000000
1, 2.7500, 275, 1.34064579, -1.22569311, 0.27406812, 59.55274200, -130.16885376, -140.20735168, 0.00000000, 0.00000000, 0.00000000, 107.56663513, 0.08322591, 53.90692902, 1.00000000, 0.00000000, 0.00000000, 0.00000000, -1.35098052, 0.27109396, 0.02350119, 0.00000000, 0.00000000, 0.00000000, 0.00000000
1, 2.7600, 276, 0.42016384, -1.86307752, 0.37160364, 9.02307320, -27.18928337, -159.63629150, 0.00000000, 0.00000000, 0.00000000, 107.66446686, 1.68632364, 54.13377762, 1.00000000, 0.00000000, 0.00000000, 0.00000000, -0.40025902, 0.91079336, -0.06713697, 0.00000000, 0.00000000, 0.00000000, 0.00000000
1, 2.7700, 277, -0.44677249, -1.05067718, -0.31983563, -61.98941040, 18.49884796, -120.30782318, 0.00000000, 0.00000000, 0.00000000, 107.06391144, 2.77862334, 54.66934967, 1.00000000, 0.00000000, 0.00000000, 0.00000000, 0.48843005, 0.09654015, 0.61623323, 0.00000000, 0.00000000, 0.00000000, 0.00000000
1, 2.7800, 278, -0.27108976, -0.67545044, -0.02398259, 41.69940567, -27.23531532, -90.26764679, 0.00000000, 0.00000000, 0.00000000, 107.46652985, 3.68066263, 54.68051147, 1.00000000, 0.00000000, 0.00000000, 0.00000000, 0.32978225, -0.27774695, 0.32053852, 0.00000000, 0.00000000, 0.00000000, 0.00000000
1, 2.7900, 279, 0.04309346, -0.72773147, 0.31702915, -14.74594879, -32.35548401, -84.66738892, 0.00000000, 0.00000000, 0.00000000, 107.31529999, 4.58544397, 54.62573624, 1.00000000, 0.00000000, 0.00000000, 0.00000000, 0.03100036, -0.22367768, -0.01818236, 0.00000000, 0.00000000, 0.00000000, 0.00000000
1, 2.8000, 280, 0.21944796, -0.58346295, 0.32419550, -11.66792107, 1.12850165, -86.13021851, 0.00000000, 0.00000000, 0.00000000, 107.22229004, 5.40482140, 54.89262009, 1.00000000, 0.00000000, 0.00000000, 0.00000000, -0.13039996, -0.36795026, -0.02946154, 0.00000000, 0.00000000, 0.00000000, 0.00000000
1, 2.8100, 281, 0.16743629, -0.81564140, 0.33264193, 7.78676033, 4.85110378, -84.46953583, 0.00000000, 0.00000000, 0.00000000, 107.33023071, 6.19698572, 55.19140625, 1.00000000, 0.00000000, 0.00000000, 0.00000000, -0.06479698, -0.13409257, -0.03691456, 0.00000000, 0.00000000, 0.00000000, 0.00000000
1, 2.8200, 282, 0.10217353, -0.97823912, 0.35638377, 0.90205044, -8.89846039, -84.37239075, 0.00000000, 0.00000000, 0.00000000, 107.35836029, 7.02886200, 55.35917664, 1.00000000, 0.00000000, 0.00000000, 0.00000000, 0.01482341, 0.03032599, -0.06014724, 0.00000000, 0.00000000, 0.00000000, 0.00000000
1, 2.8300, 283, 0.16053225, -0.96709406, 0.44116953, -6.86518908, -14.53840446, -71.49942017, 0.00000000, 0.00000000, 0.00000000, 107.32993317, 7.76647854, 55.42958450, 1.00000000, 0.00000000, 0.00000000, 0.00000000, -0.03000575, 0.02068774, -0.14576170, 0.00000000, 0.00000000, 0.00000000, 0.00000000
1, 2.8400, 284, 0.17610802, -0.98241520, 0.36446166, -6.59575748, -8.92158318, -62.59943008, 0.00000000, 0.00000000, 0.00000000, 107.27829742, 8.39070034, 55.53150940, 1.00000000, 0.00000000, 0.00000000, 0.00000000, -0.03420735, 0.03725955, -0.07029190, 0.00000000, 0.00000000, 0.00000000, 0.00000000
1, 2.8500, 285, 0.11805551, -1.05859065, 0.32156742, -3.01985741, -9.91978073, -58.05268860, 0.00000000, 0.00000000, 0.00000000, 107.25991058, 8.97449589, 55.61006165, 1.00000000, 0.00000000, 0.00000000, 0.00000000, 0.03429304, 0.11483005, -0.02814311, 0.00000000, 0.00000000, 0.00000000, 0.00000000
1, 2.8600, 286, 0.06875667, -1.04913914, 0.25418743, -7.27057362, -15.37301254, -43.15567017, 0.00000000, 0.00000000, 0.00000000, 107.18408203, 9.43221474, 55.59078217, 1.00000000, 0.00000000, 0.00000000, 0.00000000, 0.09238217, 0.10642879, 0.03792048, 0.00000000, 0.00000000, 0.00000000, 0.00000000
1, 2.8700, 287, -0.02041403, -0.96972942, 0.27811900, -6.32963467, -8.76067352, -33.46469498, 0.00000000, 0.00000000, 0.00000000, 107.12335968, 9.77782345, 55.60597610, 1.00000000, 0.00000000, 0.00000000, 0.00000000, 0.18807843, 0.02768321, 0.01245768, 0.00000000, 0.00000000, 0.00000000, 0.00000000
1, 2.8800, 288, 0.00917894, -0.92604727, 0.28744352, -4.61698198, -4.74413776, -35.22322083, 0.00000000, 0.00000000, 0.00000000, 107.08460236, 10.05385208, 55.66679382, 1.00000000, 0.00000000, 0.00000000, 0.00000000, 0.16403645, -0.01530394, 0.00212958, 0.00000000, 0.00000000, 0.00000000, 0.00000000
1, 2.8900, 289, 0.01510264, -0.96748257, 0.25392923, -4.12457752, -2.73598957, -40.70030594, 0.00000000, 0.00000000, 0.00000000, 107.06024933, 10.45095158, 55.76165009, 1.00000000, 0.00000000, 0.00000000, 0.00000000, 0.16367510, 0.02693774, 0.03487874, 0.00000000, 0.00000000, 0.00000000, 0.00000000
1, 2.9000, 290, 0.00684191, -0.96756095, 0.25661007, -5.94610786, -2.70011473, -42.75999451, 0.00000000, 0.00000000, 0.00000000, 107.01948547, 10.86769295, 55.86288452, 1.00000000, 0.00000000, 0.00000000, 0.00000000, 0.17903376, 0.02810547, 0.03126070, 0.00000000, 0.00000000, 0.00000000, 0.00000000
1, 2.9100, 291, 0.13145263, -0.94808203, 0.28196472, -4.30723619, -8.44366360, -38.98044586, 0.00000000, 0.00000000, 0.00000000, 106.98288727, 11.26514721, 55.89672852, 1.00000000, 0.00000000, 0.00000000, 0.00000000, 0.06139239, 0.00970994, 0.00485390, 0.00000000, 0.00000000, 0.00000000, 0.00000000
1, 2.9200, 292, 0.12136686, -0.99189490, 0.29246283, -2.81357598, -10.95425892, -35.10851669, 0.00000000, 0.00000000, 0.00000000, 106.95426178, 11.63291550, 55.89434814, 1.00000000, 0.00000000, 0.00000000, 0.00000000, 0.07793145, 0.05459185, -0.00656081, 0.00000000, 0.00000000, 0.00000000, 0.00000000
1, 2.9300, 293, 0.04745891, -1.04159772, 0.30184487, -1.11414421, -14.01461697, -33.20549011, 0.00000000, 0.00000000, 0.00000000, 106.92902374, 11.90950394, 55.85810089, 1.00000000, 0.00000000, 0.00000000, 0.00000000, 0.15767533, 0.10534047, -0.01664204, 0.00000000, 0.00000000, 0.00000000, 0.00000000
1, 2.9400, 294, 0.10257991, -1.01580966, 0.31368533, -3.26405907, -17.12159538, -29.27849579, 0.00000000, 0.00000000, 0.00000000, 106.87951660, 12.23942947, 55.77764511, 1.00000000, 0.00000000, 0.00000000, 0.00000000, 0.10733114, 0.08031411, -0.02946207, 0.00000000, 0.00000000, 0.00000000, 0.00000000
1, 2.9500, 295, 0.12228468, -0.99214113, 0.29096243, -2.63213277, -20.98777962, -27.87938499, 0.00000000, 0.00000000, 0.00000000, 106.82677460, 12.56709480, 55.65473557, 1.00000000, 0.00000000, 0.00000000, 0.00000000, 0.09318528, 0.05753486, -0.00797670, 0.00000000, 0.00000000, 0.00000000, 0.00000000
1, 2.9600, 296, 0.09535775, -0.98320603, 0.27591005, -2.31018305, -24.64837456, -28.17146873, 0.00000000, 0.00000000, 0.00000000, 106.76873779, 12.90802765, 55.49629211, 1.00000000, 0.00000000, 0.00000000, 0.00000000, 0.12585315, 0.04956798, 0.00583949, 0.00000000, 0.00000000, 0.00000000, 0.00000000
1, 2.9700, 297, 0.13680385, -0.96593952, 0.28211722, -2.58622026, -29.62875557, -27.40434265, 0.00000000, 0.00000000, 0.00000000, 106.69525146, 13.25575638, 55.28597641, 1.00000000, 0.00000000, 0.00000000, 0.00000000, 0.09026550, 0.03324747, -0.00189948, 0.00000000, 0.00000000, 0.00000000, 0.00000000
1, 2.9800, 298, 0.03621338, -0.99064094, 0.26778111, -2.84538555, -31.56338120, -26.84650612, 0.00000000, 0.00000000, 0.00000000, 106.59696198, 13.51940918, 55.05652237, 1.00000000, 0.00000000, 0.00000000, 0.00000000, 0.19642816, 0.05881418, 0.01074154, 0.00000000, 0.00000000, 0.00000000, 0.00000000
1, 2.9900, 299, 0.06874713, -1.01602745, 0.26724678, -3.27751780, -31.84605408, -27.28202820, 0.00000000, 0.00000000, 0.00000000, 106.50875854, 13.87165070, 54.82232285, 1.00000000, 0.00000000, 0.00000000, 0.00000000, 0.16875899, 0.08484469, 0.00931505, 0.00000000, 0.00000000, 0.00000000, 0.00000000
1, 3.0000, 300, 0.06826957, -1.00533748, 0.29810533, -6.00837946, -28.96732712, -28.71959305, 0.00000000, 0.00000000, 0.00000000, 106.39952850, 14.22914791, 54.61982727, 1.00000000, 0.00000000, 0.00000000, 0.00000000, 0.17525554, 0.07511160, -0.02356588, 0.00000000, 0.00000000, 0.00000000, 0.00000000
1, 3.0100, 301, 0.02758776, -0.99478096, 0.31985593, -5.01991987, -28.46826935, -30.26573563, 0.00000000, 0.00000000, 0.00000000, 106.30103302, 14.59968948, 54.42572403, 1.00000000, 0.00000000, 0.00000000, 0.00000000, 0.22211201, 0.06555390, -0.04748938, 0.00000000, 0.00000000, 0.00000000, 0.00000000
1, 3.0200, 302, 0.09723880, -0.99768656, 0.33084148, -7.82860279, -30.58855820, -30.99131966, 0.00000000, 0.00000000, 0.00000000, 106.16806793, 14.98275566, 54.21159363, 1.00000000, 0.00000000, 0.00000000, 0.00000000, 0.15885398, 0.06951228, -0.06083219, 0.00000000, 0.00000000, 0.00000000, 0.00000000
1, 3.0300, 303, 0.09574471, -0.99400228, 0.32742268, -8.95216656, -31.71695328, -31.70833588, 0.00000000, 0.00000000, 0.00000000, 106.03593445, 15.31386852, 53.98838425, 1.00000000, 0.00000000, 0.00000000, 0.00000000, 0.16664155, 0.06680194, -0.06012118, 0.00000000, 0.00000000, 0.00000000, 0.00000000
1, 3.0400, 304, 0.09756466, -0.98045075, 0.33804840, -11.19847679, -33.31454468, -32.22464752, 0.00000000, 0.00000000, 0.00000000, 105.85961914, 15.71524143, 53.74784851, 1.00000000, 0.00000000, 0.00000000, 0.00000000, 0.17075944, 0.05410606, -0.07369404, 0.00000000, 0.00000000, 0.00000000, 0.00000000
1, 3.0500, 305, 0.13044281, -0.96517789, 0.32579154, -12.60027313, -34.99002838, -32.62972641, 0.00000000, 0.00000000, 0.00000000, 105.66285706, 16.12431526, 53.48984528, 1.00000000, 0.00000000, 0.00000000, 0.00000000, 0.14469239, 0.03981261, -0.06503337, 0.00000000, 0.00000000, 0.00000000, 0.00000000
1, 3.0600, 306, 0.11910972, -0.95364022, 0.29546055, -14.71665955, -34.45301056, -32.92997360, 0.00000000, 0.00000000, 0.00000000, 105.44432068, 16.53394508, 53.23600769, 1.00000000, 0.00000000, 0.00000000, 0.00000000, 0.16290644, 0.02925633, -0.03860206, 0.00000000, 0.00000000, 0.00000000, 0.00000000
1, 3.0700, 307, 0.18394855, -0.93343359, 0.27338523, -16.17135239, -34.41735458, -33.38422775, 0.00000000, 0.00000000, 0.00000000, 105.20932007, 16.94689178, 52.98152542, 1.00000000, 0.00000000, 0.00000000, 0.00000000, 0.10493912, 0.00998804, -0.02082430, 0.00000000, 0.00000000, 0.00000000, 0.00000000
1, 3.0800, 308, 0.10338897, -0.94669926, 0.25474954, -16.32527161, -31.34197044, -34.86851120, 0.00000000, 0.00000000, 0.00000000, 104.97929382, 17.29037857, 52.76219177, 1.00000000, 0.00000000, 0.00000000, 0.00000000, 0.19213678, 0.02420299, -0.00643267, 0.00000000, 0.00000000, 0.00000000, 0.00000000
1, 3.0900, 309, 0.13503815, -0.94468307, 0.24188620, -17.25546074, -28.90738487, -34.47844315, 0.00000000, 0.00000000, 0.00000000, 104.74655914, 17.69777679, 52.56198120, 1.00000000, 0.00000000, 0.00000000, 0.00000000, 0.16644305, 0.02299331, 0.00222842, 0.00000000, 0.00000000, 0.00000000, 0.00000000
1, 3.1000, 310, 0.19737762, -0.94112629, 0.21281694, -16.99094772, -27.69680595, -34.36241531, 0.00000000, 0.00000000, 0.00000000, 104.51815033, 18.10021973, 52.37157822, 1.00000000, 0.00000000, 0.00000000, 0.00000000, 0.11078546, 0.02052654, 0.02703036, 0.00000000, 0.00000000, 0.00000000, 0.00000000
1, 3.1100, 311, 0.19775994, -0.95801497, 0.20025192, -17.96713829, -28.41759872, -34.91893768, 0.00000000, 0.00000000, 0.00000000, 104.27613831, 18.50910378, 52.17311478, 1.00000000, 0.00000000, 0.00000000, 0.00000000, 0.11714780, 0.03858201, 0.03527072, 0.00000000, 0.00000000, 0.00000000, 0.00000000
1, 3.1200, 312, 0.20492835, -0.96290785, 0.22101407, -18.43750763, -28.80382729, -35.19771576, 0.00000000, 0.00000000, 0.00000000, 104.02629852, 18.92082787, 51.96908951, 1.00000000, 0.00000000, 0.00000000, 0.00000000, 0.11678094, 0.04468377, 0.00998868, 0.00000000, 0.00000000, 0.00000000, 0.00000000
1, 3.1300, 313, 0.20492543, -0.95672399, 0.18829224, -18.75546646, -29.62501526, -34.78352737, 0.00000000, 0.00000000, 0.00000000, 103.75097656, 19.29290962, 51.75341797, 1.00000000, 0.00000000, 0.00000000, 0.00000000, 0.12340710, 0.03966737, 0.03798226, 0.00000000, 0.00000000, 0.00000000, 0.00000000
1, 3.1400, 314, 0.17179221, -0.95478857, 0.21486165, -19.66051102, -28.30072021, -34.58184433, 0.00000000, 0.00000000, 0.00000000, 103.48584747, 19.69565964, 51.54803467, 1.00000000, 0.00000000, 0.00000000, 0.00000000, 0.16275471, 0.03878008, 0.00650116, 0.00000000, 0.00000000, 0.00000000, 0.00000000
1, 3.1500, 315, 0.19012639, -0.95562792, 0.24004012, -19.86090088, -26.49098015, -33.98058701, 0.00000000, 0.00000000, 0.00000000, 103.22238159, 20.08746719, 51.35740280, 1.00000000, 0.00000000, 0.00000000, 0.00000000, 0.15093757, 0.04088143, -0.02345495, 0.00000000, 0.00000000, 0.00000000, 0.00000000
1, 3.1600, 316, 0.20514055, -0.95577919, 0.23724771, -19.64680481, -25.34310532, -34.47714615, 0.00000000, 0.00000000, 0.00000000, 102.96356201, 20.48068237, 51.17749405, 1.00000000, 0.00000000, 0.00000000, 0.00000000, 0.14232796, 0.04234642, -0.02534863, 0.00000000, 0.00000000, 0.00000000, 0.00000000
1, 3.1700, 317, 0.17010742, -0.94545376, 0.26090655, -19.71378899, -25.25204086, -35.05273056, 0.00000000, 0.00000000, 0.00000000, 102.70288086, 20.87854195, 50.99754715, 1.00000000, 0.00000000, 0.00000000, 0.00000000, 0.18385352, 0.03344169, -0.05368607, 0.00000000, 0.00000000, 0.00000000, 0.00000000
1, 3.1800, 318, 0.21957242, -0.91949511, 0.25460309, -20.43899155, -25.82470894, -35.22559738, 0.00000000, 0.00000000, 0.00000000, 102.44819641, 21.23150444, 50.81319046, 1.00000000, 0.00000000, 0.00000000, 0.00000000, 0.14066933, 0.00888649, -0.05208481, 0.00000000, 0.00000000, 0.00000000, 0.00000000
1, 3.1900, 319, 0.12439058, -0.90054893, 0.28725791, -21.29700661, -25.06153870, -37.48098373, 0.00000000, 0.00000000, 0.00000000, 102.17046356, 21.65113449, 50.63598633, 1.00000000, 0.00000000, 0.00000000, 0.00000000, 0.24201640, -0.00862987, -0.08943478, 0.00000000, 0.00000000, 0.00000000, 0.00000000
1, 3.2000, 320, 0.20726758, -0.88853377, 0.30096078, -22.35761452, -26.64020920, -37.60911179, 0.00000000, 0.00000000, 0.00000000, 101.87375641, 22.07446098, 50.43962479, 1.00000000, 0.00000000, 0.00000000, 0.00000000, 0.16594571, -0.01898520, -0.10830833, 0.00000000, 0.00000000, 0.00000000, 0.00000000
1, 3.2100, 321, 0.26109087, -0.90236980, 0.29165715, -23.53315353, -26.81585312, -39.69669342, 0.00000000, 0.00000000, 0.00000000, 101.56381226, 22.51762199, 50.24299622, 1.00000000, 0.00000000, 0.00000000, 0.00000000, 0.11916386, -0.00334500, -0.10435986, 0.00000000, 0.00000000, 0.00000000, 0.00000000
1, 3.2200, 322, 0.20756046, -0.93399554, 0.27997991, -27.01142120, -29.70997429, -41.14066696, 0.00000000, 0.00000000, 0.00000000, 101.20564270, 22.97959518, 50.01527786, 1.00000000, 0.00000000, 0.00000000, 0.00000000, 0.18005589, 0.03018987, -0.09864879, 0.00000000, 0.00000000, 0.00000000, 0.00000000
1, 3.2300, 323, 0.22103791, -0.94327182, 0.30814883, -33.98601151, -30.67867470, -41.60919189, 0.00000000, 0.00000000, 0.00000000, 100.79618073, 23.41765785, 49.77878571, 1.00000000, 0.00000000, 0.00000000, 0.00000000, 0.17392807, 0.04129618, -0.13369529, 0.00000000, 0.00000000, 0.00000000, 0.00000000
1, 3.2400, 324, 0.31468844, -0.95815516, 0.24530354, -36.86758804, -31.59632874, -42.89717865, 0.00000000, 0.00000000, 0.00000000, 100.32588196, 23.89728165, 49.52550507, 1.00000000, 0.00000000, 0.00000000, 0.00000000, 0.08751337, 0.05794729, -0.07842158, 0.00000000, 0.00000000, 0.00000000, 0.00000000
1, 3.2500, 325, 0.24792287, -1.02358437, 0.21851915, -36.69829178, -34.72099304, -43.68855286, 0.00000000, 0.00000000, 0.00000000, 99.83990479, 24.38817024, 49.23470306, 1.00000000, 0.00000000, 0.00000000, 0.00000000, 0.16205817, 0.12542436, -0.05973101, 0.00000000, 0.00000000, 0.00000000, 0.00000000
1, 3.2600, 326, 0.30088603, -1.08203971, 0.19855928, -38.61377716, -38.23025131, -43.02401733, 0.00000000, 0.00000000, 0.00000000, 99.31376648, 24.87602997, 48.89874649, 1.00000000, 0.00000000, 0.00000000, 0.00000000, 0.11686995, 0.18598038, -0.04840451, 0.00000000, 0.00000000, 0.00000000, 0.00000000
1, 3.2700, 327, 0.22425213, -1.09569025, 0.17824417, -42.99625397, -40.34383392, -42.66280746, 0.00000000, 0.00000000, 0.00000000, 98.72834778, 25.36065292, 48.53260803, 1.00000000, 0.00000000, 0.00000000, 0.00000000, 0.20119879, 0.20174119, -0.03741039, 0.00000000, 0.00000000, 0.00000000, 0.00000000
1, 3.2800, 328, 0.20799091, -1.10004616, 0.18827638, -46.82793808, -40.31887436, -43.05309296, 0.00000000, 0.00000000, 0.00000000, 98.10133362, 25.80331802, 48.16292572, 1.00000000, 0.00000000, 0.00000000, 0.00000000, 0.22492184, 0.20814832, -0.05753823, 0.00000000, 0.00000000, 0.00000000, 0.00000000
1, 3.2900, 329, 0.17608720, -1.09811425, 0.14209490, -48.85308456, -41.19903564, -45.75104904, 0.00000000, 0.00000000, 0.00000000, 97.44347382, 26.31238174, 47.77738953, 1.00000000, 0.00000000, 0.00000000, 0.00000000, 0.26414490, 0.20831417, -0.02194102, 0.00000000, 0.00000000, 0.00000000, 0.00000000
1, 3.3000, 330, 0.05748468, -1.09385216, 0.16745114, -50.53552246, -39.05144119, -48.94248581, 0.00000000, 0.00000000, 0.00000000, 96.77455139, 26.84640694, 47.41183090, 1.00000000, 0.00000000, 0.00000000, 0.00000000, 0.39099199, 0.20677924, -0.05811144, 0.00000000, 0.00000000, 0.00000000, 0.00000000
1, 3.3100, 331, 0.17634700, -1.09785676, 0.16951279, -51.63759232, -32.69271088, -51.28641129, 0.00000000, 0.00000000, 0.00000000, 96.12136078, 27.39279175, 47.11153412, 1.00000000, 0.00000000, 0.00000000, 0.00000000, 0.28051066, 0.21380877, -0.07089687, 0.00000000, 0.00000000, 0.00000000, 0.00000000
1, 3.3200, 332, 0.11954644, -1.13222373, 0.19935706, -53.20273209, -28.43306923, -57.63923264, 0.00000000, 0.00000000, 0.00000000, 95.47145081, 27.99500465, 46.85777664, 1.00000000, 0.00000000, 0.00000000, 0.00000000, 0.34629861, 0.25176585, -0.11123575, 0.00000000, 0.00000000, 0.00000000, 0.00000000
1, 3.3300, 333, 0.12700678, -1.16190577, 0.21080016, -55.46207047, -25.33088875, -61.79229355, 0.00000000, 0.00000000, 0.00000000, 94.82588959, 28.57778358, 46.64101028, 1.00000000, 0.00000000, 0.00000000, 0.00000000, 0.34827894, 0.28551888, -0.13312143, 0.00000000, 0.00000000, 0.00000000, 0.00000000
1, 3.3400, 334, 0.17635223, -1.17779791, 0.19890729, -56.75626373, -24.07416725, -65.26146698, 0.00000000, 0.00000000, 0.00000000, 94.15399933, 29.24725533, 46.42518616, 1.00000000, 0.00000000, 0.00000000, 0.00000000, 0.30835199, 0.30571818, -0.13167858, 0.00000000, 0.00000000, 0.00000000, 0.00000000
1, 3.3500, 335, 0.18427151, -1.19844854, 0.17488380, -59.29708481, -23.14316940, -71.18660736, 0.00000000, 0.00000000, 0.00000000, 93.45667267, 29.97293282, 46.21389389, 1.00000000, 0.00000000, 0.00000000, 0.00000000, 0.31112194, 0.33162206, -0.11853040, 0.00000000, 0.00000000, 0.00000000, 0.00000000
1, 3.3600, 336, 0.14432217, -1.21863985, 0.15690453, -61.72305298, -21.22624969, -76.54154968, 0.00000000, 0.00000000, 0.00000000, 92.73954010, 30.74872971, 46.01620483, 1.00000000, 0.00000000, 0.00000000, 0.00000000, 0.36253142, 0.35781166, -0.11162245, 0.00000000, 0.00000000, 0.00000000, 0.00000000
1, 3.3700, 337, 0.16680282, -1.22356939, 0.14941932, -65.09813690, -18.39930344, -81.19168091, 0.00000000, 0.00000000, 0.00000000, 91.99771118, 31.56758118, 45.84056091, 1.00000000, 0.00000000, 0.00000000, 0.00000000, 0.35205823, 0.36940083, -0.11545730, 0.00000000, 0.00000000, 0.00000000, 0.00000000
1, 3.3800, 338, 0.13341501, -1.24001598, 0.15018325, -67.18651581, -17.03119087, -86.76722717, 0.00000000, 0.00000000, 0.00000000, 91.24658203, 32.39015961, 45.67544937, 1.00000000, 0.00000000, 0.00000000, 0.00000000, 0.39792889, 0.39317569, -0.12761118, 0.00000000, 0.00000000, 0.00000000, 0.00000000
1, 3.3900, 339, 0.15290526, -1.25736332, 0.16672060, -70.03338623, -13.98277664, -91.94619751, 0.00000000, 0.00000000, 0.00000000, 90.46481323, 33.31161880, 45.52531052, 1.00000000, 0.00000000, 0.00000000, 0.00000000, 0.39115205, 0.41840726, -0.15560113, 0.00000000, 0.00000000, 0.00000000, 0.00000000
1, 3.4000, 340, 0.08101834, -1.28560519, 0.15327854, -71.46063232, -14.57279015, -97.30791473, 0.00000000, 0.00000000, 0.00000000, 89.65328979, 34.28483200, 45.35119247, 1.00000000, 0.00000000, 0.00000000, 0.00000000, 0.47697592, 0.45578092, -0.15380503, 0.00000000, 0.00000000, 0.00000000, 0.00000000
1, 3.4100, 341, -0.04844600, -1.34572518, 0.15173849, -72.62029266, -14.22327995, -100.84193420, 0.00000000, 0.00000000, 0.00000000, 88.81914520, 35.29137802, 45.16176605, 1.00000000, 0.00000000, 0.00000000, 0.00000000, 0.62078547, 0.52582377, -0.16414645, 0.00000000, 0.00000000, 0.00000000, 0.00000000
1, 3.4200, 342, 0.10640023, -1.37444651, 0.38718709, -80.31250000, 3.79844046, -105.34757996, 0.00000000, 0.00000000, 0.00000000, 88.02246094, 36.34566116, 45.17243195, 1.00000000, 0.00000000, 0.00000000, 0.00000000, 0.48051572, 0.56517482, -0.41110611, 0.00000000, 0.00000000, 0.00000000, 0.00000000
1, 3.4300, 343, 0.00942326, -1.52684724, 0.36824235, -74.76598358, 11.75298882, -116.25865173, 0.00000000, 0.00000000, 0.00000000, 87.35356903, 37.47968674, 45.27268219, 1.00000000, 0.00000000, 0.00000000, 0.00000000, 0.59328699, 0.72960508, -0.40152568, 0.00000000, 0.00000000, 0.00000000, 0.00000000
1, 3.4400, 344, 0.06278446, -1.46444428, 0.44467756, -78.52993774, 8.05440521, -119.30104065, 0.00000000, 0.00000000, 0.00000000, 86.58145142, 38.67518997, 45.29433823, 1.00000000, 0.00000000, 0.00000000, 0.00000000, 0.55593568, 0.68003404, -0.48760706, 0.00000000, 0.00000000, 0.00000000, 0.00000000
1, 3.4500, 345, -0.15630847, -1.48238742, 0.55505019, -69.41578674, -1.98309064, -120.24839020, 0.00000000, 0.00000000, 0.00000000, 85.80564117, 39.87364960, 45.16552353, 1.00000000, 0.00000000, 0.00000000, 0.00000000, 0.79135323, 0.71173120, -0.60762662, 0.00000000, 0.00000000, 0.00000000, 0.00000000
1, 3.4600, 346, 0.09115943, -1.53102064, 0.53090739, -69.59334564, -4.83532619, -122.50225067, 0.00000000, 0.00000000, 0.00000000, 84.98441315, 41.09076309, 44.97272491, 1.00000000, 0.00000000, 0.00000000, 0.00000000, 0.56000239, 0.77466631, -0.59312874, 0.00000000, 0.00000000, 0.00000000, 0.00000000
1, 3.4700, 347, -0.06981254, -1.55981743, 0.61830300, -58.35577011, -13.54321671, -131.52702332, 0.00000000, 0.00000000, 0.00000000, 84.16904449, 42.38713837, 44.62506866, 1.00000000, 0.00000000, 0.00000000, 0.00000000, 0.73760551, 0.81895483, -0.68989950, 0.00000000, 0.00000000, 0.00000000, 0.00000000
1, 3.4800, 348, -0.28521523, -1.55738783, 0.68817496, -47.96928406, -38.53303146, -129.34140015, 0.00000000, 0.00000000, 0.00000000, 83.23403168, 43.59632492, 43.92620468, 1.00000000, 0.00000000, 0.00000000, 0.00000000, 0.96931356, 0.83258599, -0.76957953, 0.00000000, 0.00000000, 0.00000000, 0.00000000
1, 3.4900, 349, -0.18520087, -1.55408502, 0.65178847, -41.43084335, -66.48947144, -119.60151672, 0.00000000, 0.00000000, 0.00000000, 82.03014374, 44.69696426, 42.79337692, 1.00000000, 0.00000000, 0.00000000, 0.00000000, 0.88353932, 0.84447682, -0.74524009, 0.00000000, 0.00000000, 0.00000000, 0.00000000
1, 3.5000, 350, -0.31636813, -1.58796811, 0.47108671, -27.85869026, -91.72396851, -112.52299500, 0.00000000, 0.00000000, 0.00000000, 80.66789246, 45.67118073, 41.26642990, 1.00000000, 0.00000000, 0.00000000, 0.00000000, 1.02732575, 0.89306080, -0.57878375, 0.00000000, 0.00000000, 0.00000000, 0.00000000
1, 3.5100, 351, -0.23348613, -1.47356009, 0.14131421, -35.34219742, -104.83180237, -110.74851227, 0.00000000, 0.00000000, 0.00000000, 79.03872681, 46.57749176, 39.49688339, 1.00000000, 0.00000000, 0.00000000, 0.00000000, 0.95572913, 0.79310709, -0.26499644, 0.00000000, 0.00000000, 0.00000000, 0.00000000
1, 3.5200, 352, 0.31574181, -1.26142645, 0.01410214, -84.27626038, -103.29685974, -118.44358826, 0.00000000, 0.00000000, 0.00000000, 76.84595490, 47.52126694, 37.65192413, 1.00000000, 0.00000000, 0.00000000, 0.00000000, 0.41743770, 0.59702718, -0.15881613, 0.00000000, 0.00000000, 0.00000000, 0.00000000
1, 3.5300, 353, 0.71448326, -1.15314817, 0.18699452, -106.93672180, -78.65791321, -137.22979736, 0.00000000, 0.00000000, 0.00000000, 74.59270477, 48.64173126, 36.02903366, 1.00000000, 0.00000000, 0.00000000, 0.00000000, 0.03114520, 0.50832397, -0.35479319, 0.00000000, 0.00000000, 0.00000000, 0.00000000
1, 3.5400, 354, 0.48647889, -1.24697399, 0.33521688, -77.11547852, -62.98229218, -149.81689453, 0.00000000, 0.00000000, 0.00000000, 72.62828827, 49.90110397, 34.45418549, 1.00000000, 0.00000000, 0.00000000, 0.00000000, 0.27308592, 0.62390524, -0.52168870, 0.00000000, 0.00000000, 0.00000000, 0.00000000
1, 3.5500, 355, 0.27475959, -1.33946896, 0.31637093, -62.69120789, -65.03073120, -143.26292419, 0.00000000, 0.00000000, 0.00000000, 70.70629883, 51.05636215, 32.77613831, 1.00000000, 0.00000000, 0.00000000, 0.00000000, 0.49836603, 0.73820138, -0.51808113, 0.00000000, 0.00000000, 0.00000000, 0.00000000
1, 3.5600, 356, 0.39100975, -1.36966634, 0.30640715, -70.04434967, -85.19297791, -132.57865906, 0.00000000, 0.00000000, 0.00000000, 68.41869354, 52.00166702, 30.74938965, 1.00000000, 0.00000000, 0.00000000, 0.00000000, 0.39332926, 0.78941226, -0.52560472, 0.00000000, 0.00000000, 0.00000000, 0.00000000
1, 3.5700, 357, 0.73547697, -1.20521677, 0.51208317, -88.99185181, -75.52197266, -129.11787415, 0.00000000, 0.00000000, 0.00000000, 65.97222900, 52.89964676, 28.78582764, 1.00000000, 0.00000000, 0.00000000, 0.00000000, 0.05850972, 0.64614236, -0.75072336, 0.00000000, 0.00000000, 0.00000000, 0.00000000
1, 3.5800, 358, 0.79044998, -0.97944230, 0.71924108, -60.07713699, -54.19263077, -121.62570953, 0.00000000, 0.00000000, 0.00000000, 64.13442230, 53.77088547, 27.17671967, 1.00000000, 0.00000000, 0.00000000, 0.00000000, 0.01293534, 0.44100410, -0.97343284, 0.00000000, 0.00000000, 0.00000000, 0.00000000
1, 3.5900, 359, 0.54015511, -0.95096868, 0.40802172, -26.77589798, -62.52356720, -100.55504608, 0.00000000, 0.00000000, 0.00000000, 62.47151947, 54.38834381, 25.45466042, 1.00000000, 0.00000000, 0.00000000, 0.00000000, 0.27073216, 0.42906225, -0.67268151, 0.00000000, 0.00000000, 0.00000000, 0.00000000
1, 3.6000, 360, 0.27688432, -0.77094895, 0.18612841, -41.16659546, -80.02832794, -78.22135925, 0.00000000, 0.00000000, 0.00000000, 60.54821396, 54.69447327, 23.59942055, 1.00000000, 0.00000000, 0.00000000, 0.00000000, 0.53829837, 0.26297271, -0.46434593, 0.00000000, 0.00000000, 0.00000000, 0.00000000
1, 3.6100, 361, 0.23041239, -0.44712913, 0.05947891, -44.88088226, -100.61124420, -50.48991394, 0.00000000, 0.00000000, 0.00000000, 58.51532364, 54.61917877, 21.65806389, 1.00000000, 0.00000000, 0.00000000, 0.00000000, 0.58546162, -0.04988901, -0.35492700, 0.00000000, 0.00000000, 0.00000000, 0.00000000
1, 3.6200, 362, 0.28088591, -0.34920865, 0.10131329, -14.35873508, -116.72615814, -27.81459808, 0.00000000, 0.00000000, 0.00000000, 56.78492737, 54.22890854, 19.70767021, 1.00000000, 0.00000000, 0.00000000, 0.00000000, 0.53217804, -0.14118874, -0.41501769, 0.00000000, 0.00000000, 0.00000000, 0.00000000
1, 3.6300, 363, 0.14751561, -0.39421627, 0.33389243, 21.89913559, -110.11074829, -12.20366192, 0.00000000, 0.00000000, 0.00000000, 55.83175278, 53.70512009, 18.15948105, 1.00000000, 0.00000000, 0.00000000, 0.00000000, 0.66050565, -0.09461367, -0.66272992, 0.00000000, 0.00000000, 0.00000000, 0.00000000
1, 3.6400, 364, -0.17659202, -0.46825391, 0.41493887, 40.39622498, -87.20625305, -0.55809170, 0.00000000, 0.00000000, 0.00000000, 55.26094055, 53.21613693, 16.94645691, 1.00000000, 0.00000000, 0.00000000, 0.00000000, 0.97939962, -0.02276526, -0.75315809, 0.00000000, 0.00000000, 0.00000000, 0.00000000
1, 3.6500, 365, -0.42178372, -0.48478931, 0.26933366, 30.46980476, -71.23622894, 17.72331238, 0.00000000, 0.00000000, 0.00000000, 54.92584229, 52.66318512, 16.14502716, 1.00000000, 0.00000000, 0.00000000, 0.00000000, 1.21916950, -0.00980666, -0.61508250, 0.00000000, 0.00000000, 0.00000000, 0.00000000
1, 3.6600, 366, -0.50236690, -0.38301146, 0.08016498, 22.17241478, -66.77375031, 39.87392044, 0.00000000, 0.00000000, 0.00000000, 54.73823547, 51.95254898, 15.62796307, 1.00000000, 0.00000000, 0.00000000, 0.00000000, 1.29283607, -0.11741534, -0.43332022, 0.00000000, 0.00000000, 0.00000000, 0.00000000
1, 3.6700, 367, -0.46819037, -0.36083695, -0.03269094, 31.78610611, -61.75288391, 55.47718048, 0.00000000, 0.00000000, 0.00000000, 54.82349014, 51.14309692, 15.33124924, 1.00000000, 0.00000000, 0.00000000, 0.00000000, 1.25023198, -0.14821240, -0.32684165, 0.00000000, 0.00000000, 0.00000000, 0.00000000
1, 3.6800, 368, -0.30404061, -0.36703452, -0.06664390, 31.92994118, -30.15740395, 66.45240021, 0.00000000, 0.00000000, 0.00000000, 55.35014725, 50.34196472, 15.58685017, 1.00000000, 0.00000000, 0.00000000, 0.00000000, 1.07748735, -0.15286207, -0.29594252, 0.00000000, 0.00000000, 0.00000000, 0.00000000
1, 3.6900, 369, -0.11868545, -0.36026600, -0.05446657, 47.61823273, 17.11917686, 75.18234253, 0.00000000, 0.00000000, 0.00000000, 56.49920273, 49.81512451, 16.46447754, 1.00000000, 0.00000000, 0.00000000, 0.00000000, 0.88481617, -0.17275417, -0.30457741, 0.00000000, 0.00000000, 0.00000000, 0.00000000
1, 3.7000, 370, 0.00147201, -0.37673426, 0.01448037, 65.24912262, 32.18470383, 82.54629517, 0.00000000, 0.00000000, 0.00000000, 57.99323654, 49.29508591, 17.57031059, 1.00000000, 0.00000000, 0.00000000, 0.00000000, 0.75885463, -0.17053300, -0.36429751, 0.00000000, 0.00000000, 0.00000000, 0.00000000
1, 3.7100, 371, 0.05721085, -0.42175421, 0.09324753, 80.43894958, 37.39433670, 91.41636658, 0.00000000, 0.00000000, 0.00000000, 59.70986176, 48.70618820, 18.77895164, 1.00000000, 0.00000000, 0.00000000, 0.00000000, 0.69673491, -0.14164558, -0.43104446, 0.00000000, 0.00000000, 0.00000000, 0.00000000
1, 3.7200, 372, 0.07017718, -0.48600093, 0.13173357, 90.40984344, 42.65842819, 100.08847046, 0.00000000, 0.00000000, 0.00000000, 61.58447647, 48.04281235, 20.07731819, 1.00000000, 0.00000000, 0.00000000, 0.00000000, 0.67641604, -0.09510504, -0.45556349, 0.00000000, 0.00000000, 0.00000000, 0.00000000
1, 3.7300, 373, 0.05801117, -0.54436785, 0.12431088, 96.36486053, 51.95365524, 110.09967804, 0.00000000, 0.00000000, 0.00000000, 63.67454910, 47.26878357, 21.55784988, 1.00000000, 0.00000000, 0.00000000, 0.00000000, 0.68019956, -0.05588491, -0.43200880, 0.00000000, 0.00000000, 0.00000000, 0.00000000
1, 3.7400, 374, 0.03289153, -0.60209107, 0.11294697, 103.23522949, 57.83469009, 120.30443573, 0.00000000, 0.00000000, 0.00000000, 65.81245422, 46.42742920, 23.07311440, 1.00000000, 0.00000000, 0.00000000, 0.00000000, 0.69548452, -0.01887618, -0.40242767, 0.00000000, 0.00000000, 0.00000000, 0.00000000
1, 3.7500, 375, 0.02206429, -0.65270466, 0.08010170, 109.21522522, 62.75275421, 130.17623901, 0.00000000, 0.00000000, 0.00000000, 68.02901459, 45.47573471, 24.63733673, 1.00000000, 0.00000000, 0.00000000, 0.00000000, 0.69534779, 0.01056689, -0.35010070, 0.00000000, 0.00000000, 0.00000000, 0.00000000
1, 3.7600, 376, 0.04023225, -0.68331045, 0.09315287, 116.52027893, 69.37517548, 141.17189026, 0.00000000, 0.00000000, 0.00000000, 70.34200287, 44.40259552, 26.26211548, 1.00000000, 0.00000000, 0.00000000, 0.00000000, 0.66457117, 0.01902857, -0.34192729, 0.00000000, 0.00000000, 0.00000000, 0.00000000
1, 3.7700, 377, 0.05186060, -0.71911037, 0.10727456, 125.20613861, 79.83934021, 151.25093079, 0.00000000, 0.00000000, 0.00000000, 72.77961731, 43.22002411, 27.97466660, 1.00000000, 0.00000000, 0.00000000, 0.00000000, 0.63867080, 0.03185466, -0.33252069, 0.00000000, 0.00000000, 0.00000000, 0.00000000
1, 3.7800, 378, 0.06757148, -0.78120732, 0.11235357, 131.80281067, 92.37020874, 162.11492920, 0.00000000, 0.00000000, 0.00000000, 75.35516357, 41.88128662, 29.80577087, 1.00000000, 0.00000000, 0.00000000, 0.00000000, 0.60678655, 0.07016413, -0.31116959, 0.00000000, 0.00000000, 0.00000000, 0.00000000
1, 3.7900, 379, 0.10456748, -0.85910451, 0.12347220, 134.86596680, 100.06047821, 171.23265076, 0.00000000, 0.00000000, 0.00000000, 77.90127563, 40.44655228, 31.62465096, 1.00000000, 0.00000000, 0.00000000, 0.00000000, 0.55140972, 0.12389594, -0.29383811, 0.00000000, 0.00000000, 0.00000000, 0.00000000
1, 3.8000, 380, 0.17055096, -0.94489539, 0.12722775, 134.09437561, 101.74502563, 181.23648071, 0.00000000, 0.00000000, 0.00000000, 80.35393524, 38.85849762, 33.36602020, 1.00000000, 0.00000000, 0.00000000, 0.00000000, 0.46505624, 0.18602534, -0.26855767, 0.00000000, 0.00000000, 0.00000000, 0.00000000
1, 3.8100, 381, 0.23282637, -1.00306940, 0.11702663, 130.21424866, 95.86653900, 191.38165283, 0.00000000, 0.00000000, 0.00000000, 82.61800385, 37.10771179, 34.92793655, 1.00000000, 0.00000000, 0.00000000, 0.00000000, 0.37974146, 0.22084628, -0.22989120, 0.00000000, 0.00000000, 0.00000000, 0.00000000
1, 3.8200, 382, 0.27014828, -1.02898598, 0.12541276, 129.41651917, 83.93482971, 201.78524780, 0.00000000, 0.00000000, 0.00000000, 84.68522644, 35.19524765, 36.23707962, 1.00000000, 0.00000000, 0.00000000, 0.00000000, 0.31654209, 0.22381213, -0.21105960, 0.00000000, 0.00000000, 0.00000000, 0.00000000
1, 3.8300, 383, 0.27160084, -1.07529414, 0.11064905, 130.34725952, 70.23078918, 209.38192749, 0.00000000, 0.00000000, 0.00000000, 86.58354187, 33.14106369, 37.28182602, 1.00000000, 0.00000000, 0.00000000, 0.00000000, 0.28649983, 0.24775581, -0.17018153, 0.00000000, 0.00000000, 0.00000000, 0.00000000
1, 3.8400, 384, 0.25742370, -1.13158834, 0.08264582, 128.45243835, 57.25269318, 215.41183472, 0.00000000, 0.00000000, 0.00000000, 88.28741455, 31.01491547, 38.07027054, 1.00000000, 0.00000000, 0.00000000, 0.00000000, 0.26977748, 0.28264529, -0.11724872, 0.00000000, 0.00000000, 0.00000000, 0.00000000
1, 3.8500, 385, 0.25266886, -1.18737805, 0.10214211, 127.06759644, 49.03313446, 220.33663940, 0.00000000, 0.00000000, 0.00000000, 89.86094666, 28.81985664, 38.67689896, 1.00000000, 0.00000000, 0.00000000, 0.00000000, 0.24195769, 0.31843311, -0.11308577, 0.00000000, 0.00000000, 0.00000000, 0.00000000
1, 3.8600, 386, 0.23943579, -1.25100625, 0.11304561, 128.04708862, 53.40806198, 223.57856750, 0.00000000, 0.00000000, 0.00000000, 91.40866852, 26.57816887, 39.25199890, 1.00000000, 0.00000000, 0.00000000, 0.00000000, 0.22108252, 0.36354214, -0.10017777, 0.00000000, 0.00000000, 0.00000000, 0.00000000
1, 3.8700, 387, 0.24568148, -1.31361187, 0.11635987, 129.89912415, 64.52021027, 225.89176941, 0.00000000, 0.00000000, 0.00000000, 92.97316742, 24.29615211, 39.87034988, 1.00000000, 0.00000000, 0.00000000, 0.00000000, 0.17935215, 0.40931457, -0.07867212, 0.00000000, 0.00000000, 0.00000000, 0.00000000
1, 3.8800, 388, 0.28914264, -1.39648521, 0.15816410, 134.39863586, 70.02355194, 226.98654175, 0.00000000, 0.00000000, 0.00000000, 94.55433655, 21.97732353, 40.46928024, 1.00000000, 0.00000000, 0.00000000, 0.00000000, 0.09919072, 0.47726777, -0.09446675, 0.00000000, 0.00000000, 0.00000000, 0.00000000
1, 3.8900, 389, 0.31376153, -1.44878101, 0.19099005, 135.26466370, 68.89392853, 230.09498596, 0.00000000, 0.00000000, 0.00000000, 96.08682251, 19.62254524, 40.97468185, 1.00000000, 0.00000000, 0.00000000, 0.00000000, 0.03658043, 0.51659817, -0.10090911, 0.00000000, 0.00000000, 0.00000000, 0.00000000
1, 3.9000, 390, 0.29061565, -1.46699214, 0.20493707, 133.11650085, 65.09239960, 235.25617981, 0.00000000, 0.00000000, 0.00000000, 97.54052734, 17.20950127, 41.36146545, 1.00000000, 0.00000000, 0.00000000, 0.00000000, 0.02035917, 0.52376038, -0.08907297, 0.00000000, 0.00000000, 0.00000000, 0.00000000
1, 3.9100, 391, 0.29369596, -1.49580669, 0.21980684, 132.79530334, 61.89056778, 240.12214661, 0.00000000, 0.00000000, 0.00000000, 98.94563293, 14.74451351, 41.64046860, 1.00000000, 0.00000000, 0.00000000, 0.00000000, -0.02359498, 0.54345489, -0.07879978, 0.00000000, 0.00000000, 0.00000000, 0.00000000
1, 3.9200, 392, 0.35320082, -1.55539513, 0.23364198, 133.48687744, 58.51999283, 241.49134827, 0.00000000, 0.00000000, 0.00000000, 100.32227325, 12.26584053, 41.81821060, 1.00000000, 0.00000000, 0.00000000, 0.00000000, -0.12494677, 0.59612113, -0.06779715, 0.00000000, 0.00000000, 0.00000000, 0.00000000
1, 3.9300, 393, 0.43571633, -1.61844659, 0.21745294, 134.83889771, 59.93095398, 240.87899780, 0.00000000, 0.00000000, 0.00000000, 101.69308472, 9.79041576, 41.94891739, 1.00000000, 0.00000000, 0.00000000, 0.00000000, -0.24976642, 0.65462947, -0.02695302, 0.00000000, 0.00000000, 0.00000000, 0.00000000
