SensorId, TimeStamp (s), FrameNumber, AccX (g), AccY (g), AccZ (g), GyroX (deg/s), GyroY (deg/s), GyroZ (deg/s), MagX (uT), MagY (uT), MagZ (uT), EulerX (deg), EulerY (deg), EulerZ (deg), QuatW, QuatX, QuatY, QuatZ, LinAccX (g), LinAccY (g), LinAccZ (g), Pressure (kPa), Altitude (m), Temperature (degC), HeaveMotion (m)
1, 0.0000, 0, -0.60775197, -1.63503265, 0.50604284, -63.87219238, -22.19502640, -174.62565613, 0.00000000, 0.00000000, 0.00000000, 110.58745575, 45.02124405, 108.89262390, 1.00000000, 0.00000000, 0.00000000, 0.00000000, 1.30728996, 0.96651077, -0.25374156, 0.00000000, 0.00000000, 0.00000000, 0.00000000
1, 0.0100, 1, -0.49138966, -1.40718663, 0.42837015, -71.83432770, 0.92484927, -160.85127258, 0.00000000, 0.00000000, 0.00000000, 110.45764160, 46.52444458, 109.71372986, 1.00000000, 0.00000000, 0.00000000, 0.00000000, 1.21044600, 0.75630146, -0.18494757, 0.00000000, 0.00000000, 0.00000000, 0.00000000
1, 0.0200, 2, -0.32601717, -1.09144938, 0.32779256, -69.33550262, -1.92814505, -133.91429138, 0.00000000, 0.00000000, 0.00000000, 110.24752045, 47.78661346, 110.37265015, 1.00000000, 0.00000000, 0.00000000, 0.00000000, 1.06134248, 0.45599383, -0.09230050, 0.00000000, 0.00000000, 0.00000000, 0.00000000
1, 0.0300, 3, -0.20160574, -0.87382758, 0.24807137, -76.46527100, -14.90329170, -107.85376740, 0.00000000, 0.00000000, 0.00000000, 109.73699188, 48.75086594, 110.69090271, 1.00000000, 0.00000000, 0.00000000, 0.00000000, 0.94977504, 0.25030780, -0.02126532, 0.00000000, 0.00000000, 0.00000000, 0.00000000
1, 0.0400, 4, 0.20242602, -0.46838856, 0.34037063, -85.59259033, -47.90106583, -79.85243988, 0.00000000, 0.00000000, 0.00000000, 108.66179657, 49.66276169, 110.40103912, 1.00000000, 0.00000000, 0.00000000, 0.00000000, 0.55620915, -0.14742601, -0.12773275, 0.00000000, 0.00000000, 0.00000000, 0.00000000
1, 0.0500, 5, 1.16841853, -0.49539444, 0.47806349, -60.05112076, -9.68473244, -73.23982239, 0.00000000, 0.00000000, 0.00000000, 108.22771454, 50.38832474, 110.61811829, 1.00000000, 0.00000000, 0.00000000, 0.00000000, -0.40108553, -0.11322550, -0.27615243, 0.00000000, 0.00000000, 0.00000000, 0.00000000
1, 0.0600, 6, 1.22076297, -0.83297843, 0.93942422, -51.30856323, -21.56146622, -62.54987335, 0.00000000, 0.00000000, 0.00000000, 107.70001984, 51.04975128, 110.59939575, 1.00000000, 0.00000000, 0.00000000, 0.00000000, -0.44557336, 0.23191424, -0.74502802, 0.00000000, 0.00000000, 0.00000000, 0.00000000
1, 0.0700, 7, 1.08458471, -0.59347177, 1.02205396, -56.09963226, 6.02504635, -26.67772293, 0.00000000, 0.00000000, 0.00000000, 107.31096649, 51.28640366, 110.81977844, 1.00000000, 0.00000000, 0.00000000, 0.00000000, -0.30470288, -0.00378923, -0.83480525, 0.00000000, 0.00000000, 0.00000000, 0.00000000
1, 0.0800, 8, 0.75413197, -0.45835686, 0.59787005, -50.36091995, 53.87576675, 12.96177673, 0.00000000, 0.00000000, 0.00000000, 107.50228882, 50.99625778, 111.55519867, 1.00000000, 0.00000000, 0.00000000, 0.00000000, 0.02450366, -0.14052555, -0.41061929, 0.00000000, 0.00000000, 0.00000000, 0.00000000
1, 0.0900, 9, 0.44583634, -0.36609682, 0.37836510, -36.75334549, 83.00283813, 30.74276352, 0.00000000, 0.00000000, 0.00000000, 107.98713684, 50.45072174, 112.65628052, 1.00000000, 0.00000000, 0.00000000, 0.00000000, 0.32767409, -0.23742141, -0.18487900, 0.00000000, 0.00000000, 0.00000000, 0.00000000
1, 0.1000, 10, 0.29570648, -0.22686568, 0.27922308, -27.08836555, 91.97101593, 42.62961960, 0.00000000, 0.00000000, 0.00000000, 108.60109711, 49.75726700, 113.80926514, 1.00000000, 0.00000000, 0.00000000, 0.00000000, 0.47062555, -0.38278568, -0.07662740, 0.00000000, 0.00000000, 0.00000000, 0.00000000
1, 0.1100, 11, 0.30485618, -0.12786883, 0.16736528, -23.71855736, 60.38024902, 67.27472687, 0.00000000, 0.00000000, 0.00000000, 108.77963257, 48.92632675, 114.35632324, 1.00000000, 0.00000000, 0.00000000, 0.00000000, 0.45271149, -0.49018186, 0.04260433, 0.00000000, 0.00000000, 0.00000000, 0.00000000
1, 0.1200, 12, 0.25598180, -0.11841915, 0.08656885, -21.55448723, 1.94117737, 101.22511292, 0.00000000, 0.00000000, 0.00000000, 108.22347260, 47.96000671, 113.89990234, 1.00000000, 0.00000000, 0.00000000, 0.00000000, 0.49097466, -0.51210278, 0.12431213, 0.00000000, 0.00000000, 0.00000000, 0.00000000
1, 0.1300, 13, 0.04489664, -0.17147547, 0.04809275, -18.53685570, -59.36208725, 127.04666901, 0.00000000, 0.00000000, 0.00000000, 106.98220825, 46.88806915, 112.49623108, 1.00000000, 0.00000000, 0.00000000, 0.00000000, 0.69009334, -0.47523624, 0.15563986, 0.00000000, 0.00000000, 0.00000000, 0.00000000
1, 0.1400, 14, -0.25921035, -0.33597553, -0.06160097, -20.98773003, -88.92510986, 145.38223267, 0.00000000, 0.00000000, 0.00000000, 105.45285034, 45.74052048, 110.67192078, 1.00000000, 0.00000000, 0.00000000, 0.00000000, 0.98088115, -0.32925248, 0.25291839, 0.00000000, 0.00000000, 0.00000000, 0.00000000
1, 0.1500, 15, -0.32353786, -0.27649570, -0.07532250, -46.50097656, -77.62226868, 184.09840393, 0.00000000, 0.00000000, 0.00000000, 103.77215576, 44.15550613, 108.95426941, 1.00000000, 0.00000000, 0.00000000, 0.00000000, 1.02820563, -0.41074497, 0.25150773, 0.00000000, 0.00000000, 0.00000000, 0.00000000
1, 0.1600, 16, -0.23952843, -0.17792822, -0.12529452, -23.91230392, -21.01687241, 211.87544250, 0.00000000, 0.00000000, 0.00000000, 102.88350677, 42.14196777, 108.00607300, 1.00000000, 0.00000000, 0.00000000, 0.00000000, 0.92040902, -0.53516018, 0.29202482, 0.00000000, 0.00000000, 0.00000000, 0.00000000
1, 0.1700, 17, -0.15299033, -0.25158060, 0.00937863, -6.50105667, 5.17990208, 221.77070618, 0.00000000, 0.00000000, 0.00000000, 102.43819427, 39.96685028, 107.42854309, 1.00000000, 0.00000000, 0.00000000, 0.00000000, 0.80625117, -0.48729691, 0.15552779, 0.00000000, 0.00000000, 0.00000000, 0.00000000
1, 0.1800, 18, -0.18832600, -0.31859297, -0.01352768, -10.02822971, 26.28528214, 223.77761841, 0.00000000, 0.00000000, 0.00000000, 102.14939117, 37.67486572, 107.15203857, 1.00000000, 0.00000000, 0.00000000, 0.00000000, 0.81157058, -0.44553903, 0.17948127, 0.00000000, 0.00000000, 0.00000000, 0.00000000
1, 0.1900, 19, -0.19174016, -0.37504411, -0.00107723, -7.78396940, 40.14461136, 228.37583923, 0.00000000, 0.00000000, 0.00000000, 102.00799561, 35.35768509, 107.04593658, 1.00000000, 0.00000000, 0.00000000, 0.00000000, 0.78278297, -0.41373926, 0.16948089, 0.00000000, 0.00000000, 0.00000000, 0.00000000
1, 0.2000, 20, -0.12702127, -0.50912809, -0.06708409, -6.13489866, 45.46972275, 237.76298523, 0.00000000, 0.00000000, 0.00000000, 101.91442871, 32.93745804, 106.98824310, 1.00000000, 0.00000000, 0.00000000, 0.00000000, 0.68408418, -0.30326742, 0.23899388, 0.00000000, 0.00000000, 0.00000000, 0.00000000
1, 0.2100, 21, -0.09381024, -0.67314970, -0.03279019, -1.72768402, 51.28557205, 252.54687500, 0.00000000, 0.00000000, 0.00000000, 101.88492584, 30.36053848, 106.96617126, 1.00000000, 0.00000000, 0.00000000, 0.00000000, 0.61389738, -0.16256356, 0.20866477, 0.00000000, 0.00000000, 0.00000000, 0.00000000
1, 0.2200, 22, -0.10502581, -0.74518710, 0.04421960, -1.47636938, 82.40210724, 265.42257690, 0.00000000, 0.00000000, 0.00000000, 102.01117706, 27.59324837, 107.25951385, 1.00000000, 0.00000000, 0.00000000, 0.00000000, 0.58439392, -0.11329618, 0.13751277, 0.00000000, 0.00000000, 0.00000000, 0.00000000
1, 0.2300, 23, -0.11072899, -0.68581003, 0.10785684, 3.93823242, 113.01928711, 280.60900879, 0.00000000, 0.00000000, 0.00000000, 102.30236816, 24.58013725, 107.83028412, 1.00000000, 0.00000000, 0.00000000, 0.00000000, 0.54496199, -0.19460081, 0.08213238, 0.00000000, 0.00000000, 0.00000000, 0.00000000
1, 0.2400, 24, -0.13517922, -0.75668496, 0.23024590, 14.26417255, 147.05242920, 296.51058960, 0.00000000, 0.00000000, 0.00000000, 102.77997589, 21.36647987, 108.69020081, 1.00000000, 0.00000000, 0.00000000, 0.00000000, 0.51923054, -0.14427799, -0.02896087, 0.00000000, 0.00000000, 0.00000000, 0.00000000
1, 0.2500, 25, -0.04472442, -0.95400769, 0.31122255, 18.89164162, 169.57582092, 311.15631104, 0.00000000, 0.00000000, 0.00000000, 103.30821228, 17.95248985, 109.69874573, 1.00000000, 0.00000000, 0.00000000, 0.00000000, 0.37432182, 0.03464375, -0.09710050, 0.00000000, 0.00000000, 0.00000000, 0.00000000
1, 0.2600, 26, 0.14994873, -1.20822763, 0.32944968, 16.64118004, 179.44718933, 321.50222778, 0.00000000, 0.00000000, 0.00000000, 103.76203918, 14.40659714, 110.73112488, 1.00000000, 0.00000000, 0.00000000, 0.00000000, 0.12131552, 0.27287912, -0.10310082, 0.00000000, 0.00000000, 0.00000000, 0.00000000
1, 0.2700, 27, 0.42055264, -1.39398408, 0.32134140, 7.16287518, 185.49858093, 327.07931519, 0.00000000, 0.00000000, 0.00000000, 104.06057739, 10.78568649, 111.76992035, 1.00000000, 0.00000000, 0.00000000, 0.00000000, -0.21017456, 0.44538984, -0.08555488, 0.00000000, 0.00000000, 0.00000000, 0.00000000
1, 0.2800, 28, 0.69758517, -1.51219881, 0.37416741, 3.57936692, 182.12696838, 329.63833618, 0.00000000, 0.00000000, 0.00000000, 104.24816895, 7.15405703, 112.74272919, 1.00000000, 0.00000000, 0.00000000, 0.00000000, -0.54955626, 0.55353832, -0.13179827, 0.00000000, 0.00000000, 0.00000000, 0.00000000
1, 0.2900, 29, 0.93659621, -1.58635807, 0.44569668, -1.18805170, 164.40135193, 332.23510742, 0.00000000, 0.00000000, 0.00000000, 104.31009674, 3.52884984, 113.51956940, 1.00000000, 0.00000000, 0.00000000, 0.00000000, -0.85147184, 0.62099159, -0.19970915, 0.00000000, 0.00000000, 0.00000000, 0.00000000
1, 0.3000, 30, 1.04983747, -1.67235923, 0.59589833, -9.76599503, 117.70922089, 334.85189819, 0.00000000, 0.00000000, 0.00000000, 104.22476196, -0.00655186, 113.83449554, 1.00000000, 0.00000000, 0.00000000, 0.00000000, -1.02696919, 0.70361519, -0.34949076, 0.00000000, 0.00000000, 0.00000000, 0.00000000
1, 0.3100, 31, 1.04478610, -1.69795740, 0.76126587, -21.71863556, 67.25116730, 337.86819458, 0.00000000, 0.00000000, 0.00000000, 104.01431274, -3.44722247, 113.66210175, 1.00000000, 0.00000000, 0.00000000, 0.00000000, -1.08250403, 0.72889799, -0.51791441, 0.00000000, 0.00000000, 0.00000000, 0.00000000
1, 0.3200, 32, 1.02465510, -1.66811919, 0.85150224, -22.20423698, 15.17071629, 341.05746460, 0.00000000, 0.00000000, 0.00000000, 103.85450745, -6.79410696, 112.98565674, 1.00000000, 0.00000000, 0.00000000, 0.00000000, -1.12128782, 0.70209444, -0.61235255, 0.00000000, 0.00000000, 0.00000000, 0.00000000
1, 0.3300, 33, 1.02167571, -1.62298882, 0.92148954, -13.83181286, -14.56037140, 338.04962158, 0.00000000, 0.00000000, 0.00000000, 103.86399078, -10.02658749, 112.01506805, 1.00000000, 0.00000000, 0.00000000, 0.00000000, -1.17511439, 0.66365743, -0.68507189, 0.00000000, 0.00000000, 0.00000000, 0.00000000
1, 0.3400, 34, 1.02849710, -1.61236358, 1.00504923, 4.36235905, -24.51499557, 328.59249878, 0.00000000, 0.00000000, 0.00000000, 104.11948395, -13.15613079, 110.96247101, 1.00000000, 0.00000000, 0.00000000, 0.00000000, -1.23627853, 0.66335416, -0.76845765, 0.00000000, 0.00000000, 0.00000000, 0.00000000
1, 0.3500, 35, 1.11381543, -1.78512883, 0.96952629, 23.20153427, -31.31264687, 309.08517456, 0.00000000, 0.00000000, 0.00000000, 104.63108826, -16.07266808, 109.85662079, 1.00000000, 0.00000000, 0.00000000, 0.00000000, -1.37261868, 0.84975433, -0.72892070, 0.00000000, 0.00000000, 0.00000000, 0.00000000
1, 0.3600, 36, 1.22340047, -1.87556064, 0.71280748, 22.89892006, -33.04804611, 280.12481689, 0.00000000, 0.00000000, 0.00000000, 105.18579102, -18.69457054, 108.76667786, 1.00000000, 0.00000000, 0.00000000, 0.00000000, -1.52798235, 0.95553744, -0.46659279, 0.00000000, 0.00000000, 0.00000000, 0.00000000
1, 0.3700, 37, 1.37919521, -1.75937164, 0.35164905, 14.93193054, -22.30470467, 246.85562134, 0.00000000, 0.00000000, 0.00000000, 105.64946747, -21.01501083, 107.84025574, 1.00000000, 0.00000000, 0.00000000, 0.00000000, -1.72398603, 0.85482353, -0.10108220, 0.00000000, 0.00000000, 0.00000000, 0.00000000
1, 0.3800, 38, 1.49586701, -1.55627394, 0.23126769, 6.02619696, -5.96978474, 204.70423889, 0.00000000, 0.00000000, 0.00000000, 105.95549774, -22.94193459, 107.17984009, 1.00000000, 0.00000000, 0.00000000, 0.00000000, -1.87469101, 0.66607100, 0.02160789, 0.00000000, 0.00000000, 0.00000000, 0.00000000
1, 0.3900, 39, 1.67523026, -1.25471127, 0.35283825, -3.47010040, 9.00059319, 154.75691223, 0.00000000, 0.00000000, 0.00000000, 106.06990051, -24.45425987, 106.80805206, 1.00000000, 0.00000000, 0.00000000, 0.00000000, -2.08073759, 0.37621811, -0.10032559, 0.00000000, 0.00000000, 0.00000000, 0.00000000
1, 0.4000, 40, 1.88396060, -1.00999331, 0.45714015, -4.61284971, 5.66861868, 99.25928497, 0.00000000, 0.00000000, 0.00000000, 106.12669373, -25.42364883, 106.56452942, 1.00000000, 0.00000000, 0.00000000, 0.00000000, -2.30803418, 0.13991135, -0.20594513, 0.00000000, 0.00000000, 0.00000000, 0.00000000
1, 0.4100, 41, 1.99001515, -0.78025770, 0.42751983, 0.89899439, 0.95811003, 45.11639023, 0.00000000, 0.00000000, 0.00000000, 106.19142151, -25.85968781, 106.43557739, 1.00000000, 0.00000000, 0.00000000, 0.00000000, -2.42417836, -0.08496743, -0.17675275, 0.00000000, 0.00000000, 0.00000000, 0.00000000
1, 0.4200, 42, 1.85380018, -0.77314842, 0.48364249, 24.59370232, 11.80834198, -10.30803394, 0.00000000, 0.00000000, 0.00000000, 106.36835480, -25.79389763, 106.59379578, 1.00000000, 0.00000000, 0.00000000, 0.00000000, -2.28998709, -0.09054081, -0.23109409, 0.00000000, 0.00000000, 0.00000000, 0.00000000
1, 0.4300, 43, 1.70400143, -0.84720886, 0.49166030, 27.00270271, 19.97789192, -69.09086609, 0.00000000, 0.00000000, 0.00000000, 106.45823669, -25.14574623, 107.01116180, 1.00000000, 0.00000000, 0.00000000, 0.00000000, -2.13368773, -0.01888566, -0.23624510, 0.00000000, 0.00000000, 0.00000000, 0.00000000
1, 0.4400, 44, 1.31459463, -1.08488190, 0.61185277, 21.50575066, 24.40724754, -123.07875061, 0.00000000, 0.00000000, 0.00000000, 106.40678406, -24.03437614, 107.65171051, 1.00000000, 0.00000000, 0.00000000, 0.00000000, -1.72906804, 0.21203297, -0.35433757, 0.00000000, 0.00000000, 0.00000000, 0.00000000
1, 0.4500, 45, -0.37234285, -1.24492562, 0.51787937, -5.82729244, 30.96681404, -166.25727844, 0.00000000, 0.00000000, 0.00000000, 106.02008057, -22.52510262, 108.48235321, 1.00000000, 0.00000000, 0.00000000, 0.00000000, -0.02009459, 0.36178988, -0.26096937, 0.00000000, 0.00000000, 0.00000000, 0.00000000
1, 0.4600, 46, -2.73060036, -1.39944029, 0.70536613, -6.74219418, 80.20996094, -153.83609009, 0.00000000, 0.00000000, 0.00000000, 105.47705841, -21.26102066, 109.76317596, 1.00000000, 0.00000000, 0.00000000, 0.00000000, 2.36117077, 0.50462013, -0.45480728, 0.00000000, 0.00000000, 0.00000000, 0.00000000
1, 0.4700, 47, -2.46463561, -1.86966455, -0.02363661, 18.56044006, 90.40697479, -69.48715210, 0.00000000, 0.00000000, 0.00000000, 105.25695038, -20.83073425, 110.89449310, 1.00000000, 0.00000000, 0.00000000, 0.00000000, 2.10716939, 0.96901393, 0.27070498, 0.00000000, 0.00000000, 0.00000000, 0.00000000
1, 0.4800, 48, 1.02482235, -1.44539583, -0.64123535, -4.67879200, 99.26859283, -66.29837036, 0.00000000, 0.00000000, 0.00000000, 104.76881409, -20.42133713, 112.13195038, 1.00000000, 0.00000000, 0.00000000, 0.00000000, -1.37695479, 0.54125524, 0.88314688, 0.00000000, 0.00000000, 0.00000000, 0.00000000
1, 0.4900, 49, 1.38515663, -1.51980555, -0.36217049, 10.28019047, 40.93788147, -118.94913483, 0.00000000, 0.00000000, 0.00000000, 104.61747742, -19.37421417, 112.87361145, 1.00000000, 0.00000000, 0.00000000, 0.00000000, -1.72389376, 0.60944092, 0.59979153, 0.00000000, 0.00000000, 0.00000000, 0.00000000
1, 0.5000, 50, 0.15505363, -1.47247124, -0.19073224, 5.02536821, -23.49686050, -117.35209656, 0.00000000, 0.00000000, 0.00000000, 104.64356995, -18.17939568, 112.94712830, 1.00000000, 0.00000000, 0.00000000, 0.00000000, -0.47437629, 0.55565429, 0.43041030, 0.00000000, 0.00000000, 0.00000000, 0.00000000
1, 0.5100, 51, 0.16123384, -1.30639422, -0.30664647, 3.43681383, -21.90598679, -101.37215424, 0.00000000, 0.00000000, 0.00000000, 104.66394043, -17.14319992, 112.99331665, 1.00000000, 0.00000000, 0.00000000, 0.00000000, -0.46230769, 0.38371837, 0.54747558, 0.00000000, 0.00000000, 0.00000000, 0.00000000
1, 0.5200, 52, 0.48126832, -1.39239740, -0.09551997, 31.85463333, -34.12145996, -88.31964111, 0.00000000, 0.00000000, 0.00000000, 105.01323700, -16.20197487, 112.88493347, 1.00000000, 0.00000000, 0.00000000, 0.00000000, -0.76608682, 0.46592239, 0.34148553, 0.00000000, 0.00000000, 0.00000000, 0.00000000
1, 0.5300, 53, 0.20380183, -1.23969626, 0.29265922, 33.80990601, -51.73350906, -78.89168549, 0.00000000, 0.00000000, 0.00000000, 105.45402527, -15.27083969, 112.55104828, 1.00000000, 0.00000000, 0.00000000, 0.00000000, -0.47323734, 0.31074238, -0.03884048, 0.00000000, 0.00000000, 0.00000000, 0.00000000
1, 0.5400, 54, -0.27459174, -1.05225861, 0.76265866, 37.00227737, -25.75535965, -82.73679352, 0.00000000, 0.00000000, 0.00000000, 105.83116150, -14.40488720, 112.52516937, 1.00000000, 0.00000000, 0.00000000, 0.00000000, 0.02036382, 0.12117875, -0.50105226, 0.00000000, 0.00000000, 0.00000000, 0.00000000
1, 0.5500, 55, -0.53375852, -0.94886649, 0.96448648, 32.72241211, 4.91489506, -94.53723907, 0.00000000, 0.00000000, 0.00000000, 106.08240509, -13.50965691, 112.84185028, 1.00000000, 0.00000000, 0.00000000, 0.00000000, 0.29441223, 0.01557794, -0.69678277, 0.00000000, 0.00000000, 0.00000000, 0.00000000
1, 0.5600, 56, -0.22146168, -0.72254390, 1.02239633, 33.29232788, 52.07629395, -104.62769318, 0.00000000, 0.00000000, 0.00000000, 106.23201752, -12.64963913, 113.65409851, 1.00000000, 0.00000000, 0.00000000, 0.00000000, -0.00291756, -0.21338287, -0.75096089, 0.00000000, 0.00000000, 0.00000000, 0.00000000
1, 0.5700, 57, -0.01823318, -0.68250042, 0.76477063, 22.70340729, 51.95895767, -104.37697601, 0.00000000, 0.00000000, 0.00000000, 106.28736877, -11.79331779, 114.46381378, 1.00000000, 0.00000000, 0.00000000, 0.00000000, -0.19167417, -0.25599366, -0.49063519, 0.00000000, 0.00000000, 0.00000000, 0.00000000
1, 0.5800, 58, 0.05256339, -0.74166608, 0.44077754, 13.43564415, 25.83656311, -94.42199707, 0.00000000, 0.00000000, 0.00000000, 106.36069489, -10.87678242, 114.93220520, 1.00000000, 0.00000000, 0.00000000, 0.00000000, -0.24754237, -0.19966401, -0.16535044, 0.00000000, 0.00000000, 0.00000000, 0.00000000
1, 0.5900, 59, 0.39691839, -0.76498049, 0.21730256, 10.88251591, -32.24102783, -75.30140686, 0.00000000, 0.00000000, 0.00000000, 106.48654938, -10.06323338, 114.83428955, 1.00000000, 0.00000000, 0.00000000, 0.00000000, -0.57696456, -0.17848346, 0.06098276, 0.00000000, 0.00000000, 0.00000000, 0.00000000
1, 0.6000, 60, 0.38072875, -0.87427753, 0.07617129, 10.59598064, -82.00706482, -60.90533447, 0.00000000, 0.00000000, 0.00000000, 106.69621277, -9.24536991, 114.21338654, 1.00000000, 0.00000000, 0.00000000, 0.00000000, -0.54664814, -0.07072192, 0.20566185, 0.00000000, 0.00000000, 0.00000000, 0.00000000
1, 0.6100, 61, 0.03046852, -0.97968531, 0.17619190, 21.76795387, -100.41644287, -55.16940308, 0.00000000, 0.00000000, 0.00000000, 107.03843689, -8.42614746, 113.40277863, 1.00000000, 0.00000000, 0.00000000, 0.00000000, -0.18229498, 0.03399667, 0.11121560, 0.00000000, 0.00000000, 0.00000000, 0.00000000
1, 0.6200, 62, -0.16741289, -1.06163430, 0.27948439, 26.54682541, -93.46084595, -58.27824020, 0.00000000, 0.00000000, 0.00000000, 107.40540314, -7.59279776, 112.67556763, 1.00000000, 0.00000000, 0.00000000, 0.00000000, 0.02983954, 0.11581752, 0.01459806, 0.00000000, 0.00000000, 0.00000000, 0.00000000
1, 0.6300, 63, -0.37800705, -1.07350695, 0.34835809, 21.51635742, -60.03008652, -63.96474838, 0.00000000, 0.00000000, 0.00000000, 107.68275452, -6.84634686, 112.26917267, 1.00000000, 0.00000000, 0.00000000, 0.00000000, 0.25441420, 0.12751183, -0.04868539, 0.00000000, 0.00000000, 0.00000000, 0.00000000
1, 0.6400, 64, -0.35893190, -0.96061993, 0.45958048, 30.01955223, -4.22775364, -69.92062378, 0.00000000, 0.00000000, 0.00000000, 107.96349335, -6.16789675, 112.44400024, 1.00000000, 0.00000000, 0.00000000, 0.00000000, 0.24713959, 0.01477152, -0.15485007, 0.00000000, 0.00000000, 0.00000000, 0.00000000
1, 0.6500, 65, 0.00352627, -0.95839959, 0.37528190, 22.95578766, 12.93716431, -72.95665741, 0.00000000, 0.00000000, 0.00000000, 108.15734100, -5.51447487, 112.79516602, 1.00000000, 0.00000000, 0.00000000, 0.00000000, -0.10384452, 0.01267774, -0.06619378, 0.00000000, 0.00000000, 0.00000000, 0.00000000
1, 0.6600, 66, 0.20091906, -1.01080382, 0.26269078, 12.17298126, 8.99377823, -69.00385284, 0.00000000, 0.00000000, 0.00000000, 108.25158691, -4.88705826, 113.09741974, 1.00000000, 0.00000000, 0.00000000, 0.00000000, -0.29014018, 0.06470947, 0.04865403, 0.00000000, 0.00000000, 0.00000000, 0.00000000
1, 0.6700, 67, 0.37725213, -1.08325553, 0.21134011, 11.89949894, -8.49040031, -59.89707565, 0.00000000, 0.00000000, 0.00000000, 108.36170197, -4.29169178, 113.20534515, 1.00000000, 0.00000000, 0.00000000, 0.00000000, -0.45601630, 0.13690858, 0.10205245, 0.00000000, 0.00000000, 0.00000000, 0.00000000
1, 0.6800, 68, 0.31722248, -1.12557149, 0.15467037, 5.84369612, -41.30439758, -51.19775009, 0.00000000, 0.00000000, 0.00000000, 108.39784241, -3.61027479, 113.03634644, 1.00000000, 0.00000000, 0.00000000, 0.00000000, -0.38508812, 0.17887108, 0.16019614, 0.00000000, 0.00000000, 0.00000000, 0.00000000
1, 0.6900, 69, 0.20205732, -1.05107892, 0.20895498, 10.65156174, -68.46525574, -42.45974731, 0.00000000, 0.00000000, 0.00000000, 108.53389740, -2.99069548, 112.52053070, 1.00000000, 0.00000000, 0.00000000, 0.00000000, -0.25828093, 0.10413904, 0.10748529, 0.00000000, 0.00000000, 0.00000000, 0.00000000
1, 0.7000, 70, -0.05838910, -1.04728544, 0.33370858, 11.62079430, -78.62068176, -39.94896317, 0.00000000, 0.00000000, 0.00000000, 108.67898560, -2.36119437, 111.90225220, 1.00000000, 0.00000000, 0.00000000, 0.00000000, 0.01310942, 0.10065348, -0.01460408, 0.00000000, 0.00000000, 0.00000000, 0.00000000
1, 0.7100, 71, -0.30472860, -0.98670143, 0.45056555, 9.12770462, -60.37314224, -40.98076248, 0.00000000, 0.00000000, 0.00000000, 108.78636932, -1.77924490, 111.46180725, 1.00000000, 0.00000000, 0.00000000, 0.00000000, 0.26993203, 0.04032464, -0.12939265, 0.00000000, 0.00000000, 0.00000000, 0.00000000
1, 0.7200, 72, -0.14827909, -0.91914940, 0.52083099, 9.74876213, -29.94656181, -46.01939392, 0.00000000, 0.00000000, 0.00000000, 108.88764191, -1.24705040, 111.32691956, 1.00000000, 0.00000000, 0.00000000, 0.00000000, 0.12309024, -0.02690399, -0.19781141, 0.00000000, 0.00000000, 0.00000000, 0.00000000
1, 0.7300, 73, -0.05201827, -0.96304142, 0.45527062, 2.14108229, -8.15458965, -51.54907990, 0.00000000, 0.00000000, 0.00000000, 108.95552063, -0.77477050, 111.34787750, 1.00000000, 0.00000000, 0.00000000, 0.00000000, 0.03569555, 0.01721165, -0.13102645, 0.00000000, 0.00000000, 0.00000000, 0.00000000
1, 0.7400, 74, -0.03912959, -0.90528351, 0.44471064, -8.44311905, 6.72908115, -51.61154556, 0.00000000, 0.00000000, 0.00000000, 108.86907196, -0.30832148, 111.57888031, 1.00000000, 0.00000000, 0.00000000, 0.00000000, 0.03081544, -0.04073253, -0.12070526, 0.00000000, 0.00000000, 0.00000000, 0.00000000
1, 0.7500, 75, 0.22544064, -0.90327281, 0.32669610, -4.85333490, 9.87478733, -47.69858170, 0.00000000, 0.00000000, 0.00000000, 108.82006836, 0.11121095, 111.82637787, 1.00000000, 0.00000000, 0.00000000, 0.00000000, -0.22620365, -0.04317862, -0.00385714, 0.00000000, 0.00000000, 0.00000000, 0.00000000
1, 0.7600, 76, 0.22266431, -0.99931616, 0.24359873, 0.02363113, -3.50070310, -45.23860168, 0.00000000, 0.00000000, 0.00000000, 108.82086182, 0.55071145, 111.93916321, 1.00000000, 0.00000000, 0.00000000, 0.00000000, -0.21597041, 0.05279914, 0.07897828, 0.00000000, 0.00000000, 0.00000000, 0.00000000
1, 0.7700, 77, 0.24082293, -1.01767039, 0.26156947, 2.14888501, -9.53567410, -41.95842361, 0.00000000, 0.00000000, 0.00000000, 108.84295654, 0.97862101, 111.98432922, 1.00000000, 0.00000000, 0.00000000, 0.00000000, -0.22651106, 0.07129882, 0.06118667, 0.00000000, 0.00000000, 0.00000000, 0.00000000
1, 0.7800, 78, 0.25574493, -1.02221906, 0.23318087, 3.56806183, -21.97888947, -40.44256592, 0.00000000, 0.00000000, 0.00000000, 108.82679749, 1.48937345, 111.97824097, 1.00000000, 0.00000000, 0.00000000, 0.00000000, -0.23353630, 0.07610667, 0.08988459, 0.00000000, 0.00000000, 0.00000000, 0.00000000
1, 0.7900, 79, 0.08513014, -1.00060141, 0.24068664, 3.49310875, -29.92050934, -39.60782242, 0.00000000, 0.00000000, 0.00000000, 108.85705566, 1.96084726, 111.82289124, 1.00000000, 0.00000000, 0.00000000, 0.00000000, -0.05400641, 0.05465887, 0.08214229, 0.00000000, 0.00000000, 0.00000000, 0.00000000
1, 0.8000, 80, 0.05061622, -0.94740826, 0.31745127, 3.75554276, -25.01912308, -41.12817764, 0.00000000, 0.00000000, 0.00000000, 108.89067078, 2.43094254, 111.71913147, 1.00000000, 0.00000000, 0.00000000, 0.00000000, -0.01128376, 0.00194189, 0.00587714, 0.00000000, 0.00000000, 0.00000000, 0.00000000
1, 0.8100, 81, 0.00934595, -0.92047894, 0.31264627, 2.98422170, -18.62194633, -44.36815643, 0.00000000, 0.00000000, 0.00000000, 108.91906738, 2.91102529, 111.68667603, 1.00000000, 0.00000000, 0.00000000, 0.00000000, 0.03827149, -0.02448383, 0.01103935, 0.00000000, 0.00000000, 0.00000000, 0.00000000
1, 0.8200, 82, -0.02066013, -0.92298722, 0.37767830, 3.76354384, -6.99140263, -47.46041870, 0.00000000, 0.00000000, 0.00000000, 108.96166229, 3.38261366, 111.77473450, 1.00000000, 0.00000000, 0.00000000, 0.00000000, 0.07664023, -0.02136318, -0.05354342, 0.00000000, 0.00000000, 0.00000000, 0.00000000
1, 0.8300, 83, 0.06601801, -0.93773538, 0.38334700, 3.05563855, 6.72612190, -50.85985947, 0.00000000, 0.00000000, 0.00000000, 109.01685333, 3.83146262, 111.99043274, 1.00000000, 0.00000000, 0.00000000, 0.00000000, -0.00210612, -0.00589745, -0.05858967, 0.00000000, 0.00000000, 0.00000000, 0.00000000
1, 0.8400, 84, 0.09770222, -0.97635829, 0.40852055, 6.43979311, 6.92809248, -50.47891998, 0.00000000, 0.00000000, 0.00000000, 109.09759521, 4.28598833, 112.22129822, 1.00000000, 0.00000000, 0.00000000, 0.00000000, -0.02589673, 0.03364840, -0.08273390, 0.00000000, 0.00000000, 0.00000000, 0.00000000
1, 0.8500, 85, 0.34194463, -0.99845439, 0.37969935, 7.47162867, 3.43381286, -49.04532242, 0.00000000, 0.00000000, 0.00000000, 109.18746185, 4.73808098, 112.41516113, 1.00000000, 0.00000000, 0.00000000, 0.00000000, -0.26235044, 0.05680795, -0.05264960, 0.00000000, 0.00000000, 0.00000000, 0.00000000
1, 0.8600, 86, 0.26542562, -1.01944292, 0.32259569, 6.65611744, -12.20588207, -47.06732178, 0.00000000, 0.00000000, 0.00000000, 109.25742340, 5.22271252, 112.45504761, 1.00000000, 0.00000000, 0.00000000, 0.00000000, -0.17757133, 0.07892150, 0.00557380, 0.00000000, 0.00000000, 0.00000000, 0.00000000
1, 0.8700, 87, 0.19400212, -0.98408407, 0.31280884, 5.55503273, -20.05746078, -43.52408600, 0.00000000, 0.00000000, 0.00000000, 109.30856323, 5.69978094, 112.40924072, 1.00000000, 0.00000000, 0.00000000, 0.00000000, -0.09776661, 0.04459725, 0.01597343, 0.00000000, 0.00000000, 0.00000000, 0.00000000
1, 0.8800, 88, 0.26569858, -0.95584935, 0.31117913, 5.91891289, -25.12153625, -41.71583557, 0.00000000, 0.00000000, 0.00000000, 109.34158325, 6.22653532, 112.33379364, 1.00000000, 0.00000000, 0.00000000, 0.00000000, -0.16101521, 0.01744840, 0.01812026, 0.00000000, 0.00000000, 0.00000000, 0.00000000
1, 0.8900, 89, 0.08365361, -0.96878350, 0.30811158, 4.42661238, -26.56041527, -41.67953491, 0.00000000, 0.00000000, 0.00000000, 109.37313080, 6.70781660, 112.22064209, 1.00000000, 0.00000000, 0.00000000, 0.00000000, 0.03002337, 0.03146112, 0.02127993, 0.00000000, 0.00000000, 0.00000000, 0.00000000
1, 0.9000, 90, 0.07887722, -0.95970577, 0.38634515, 4.40513754, -18.85713768, -44.54580688, 0.00000000, 0.00000000, 0.00000000, 109.41358185, 7.19061232, 112.19046021, 1.00000000, 0.00000000, 0.00000000, 0.00000000, 0.04312698, 0.02350697, -0.05673786, 0.00000000, 0.00000000, 0.00000000, 0.00000000
1, 0.9100, 91, 0.08787117, -0.98058569, 0.36844921, 6.31913137, -13.47914886, -49.79058456, 0.00000000, 0.00000000, 0.00000000, 109.48183441, 7.70498800, 112.22945404, 1.00000000, 0.00000000, 0.00000000, 0.00000000, 0.04281502, 0.04577580, -0.03822929, 0.00000000, 0.00000000, 0.00000000, 0.00000000
1, 0.9200, 92, 0.05909981, -0.97482741, 0.36401048, 7.58412218, -10.24850273, -53.12781143, 0.00000000, 0.00000000, 0.00000000, 109.56904602, 8.23996639, 112.31121826, 1.00000000, 0.00000000, 0.00000000, 0.00000000, 0.08071975, 0.04164906, -0.03291899, 0.00000000, 0.00000000, 0.00000000, 0.00000000
1, 0.9300, 93, 0.24982779, -0.98221952, 0.32385039, 9.30207253, -14.51896667, -55.77156448, 0.00000000, 0.00000000, 0.00000000, 109.65741730, 8.84137249, 112.37878418, 1.00000000, 0.00000000, 0.00000000, 0.00000000, -0.10027075, 0.05093341, 0.00830862, 0.00000000, 0.00000000, 0.00000000, 0.00000000
1, 0.9400, 94, 0.10306324, -0.99026638, 0.31997606, 8.06672382, -27.30732346, -58.79456329, 0.00000000, 0.00000000, 0.00000000, 109.72850037, 9.48695469, 112.31905365, 1.00000000, 0.00000000, 0.00000000, 0.00000000, 0.05752085, 0.06104200, 0.01280706, 0.00000000, 0.00000000, 0.00000000, 0.00000000
1, 0.9500, 95, 0.06477033, -0.99475700, 0.37781751, 8.08991146, -29.05663300, -62.28031158, 0.00000000, 0.00000000, 0.00000000, 109.79856873, 10.17132378, 112.25527191, 1.00000000, 0.00000000, 0.00000000, 0.00000000, 0.10733755, 0.06775604, -0.04459599, 0.00000000, 0.00000000, 0.00000000, 0.00000000
1, 0.9600, 96, 0.09757008, -1.01968861, 0.33874932, 6.55489540, -32.33346558, -69.31732178, 0.00000000, 0.00000000, 0.00000000, 109.85123444, 10.93307686, 112.18503571, 1.00000000, 0.00000000, 0.00000000, 0.00000000, 0.08706345, 0.09518874, -0.00528851, 0.00000000, 0.00000000, 0.00000000, 0.00000000
1, 0.9700, 97, -0.10600034, -1.03062987, 0.35939234, 3.03252530, -30.56758499, -77.74047089, 0.00000000, 0.00000000, 0.00000000, 109.87697601, 11.76808739, 112.16127014, 1.00000000, 0.00000000, 0.00000000, 0.00000000, 0.30452305, 0.10888001, -0.02630271, 0.00000000, 0.00000000, 0.00000000, 0.00000000
1, 0.9800, 98, -0.05938841, -1.04192400, 0.36644414, 3.25569844, -20.46036911, -86.07614136, 0.00000000, 0.00000000, 0.00000000, 109.92078400, 12.61103153, 112.26995087, 1.00000000, 0.00000000, 0.00000000, 0.00000000, 0.27249938, 0.12326121, -0.03384035, 0.00000000, 0.00000000, 0.00000000, 0.00000000
1, 0.9900, 99, -0.01049484, -1.09508252, 0.30716568, 4.16513109, -15.81822586, -98.14194489, 0.00000000, 0.00000000, 0.00000000, 110.00588989, 13.58747673, 112.46138000, 1.00000000, 0.00000000, 0.00000000, 0.00000000, 0.23908007, 0.18013415, 0.02539241, 0.00000000, 0.00000000, 0.00000000, 0.00000000
1, 1.0000, 100, -0.03459722, -1.09534121, 0.32623714, 4.51065969, -8.35417461, -107.52523041, 0.00000000, 0.00000000, 0.00000000, 110.12406921, 14.62612915, 112.76081085, 1.00000000, 0.00000000, 0.00000000, 0.00000000, 0.28045201, 0.18494476, 0.00649008, 0.00000000, 0.00000000, 0.00000000, 0.00000000
1, 1.0100, 101, 0.09235051, -1.06899333, 0.31403685, 4.93605518, -5.76088524, -115.37447357, 0.00000000, 0.00000000, 0.00000000, 110.26683044, 15.72883320, 113.11749268, 1.00000000, 0.00000000, 0.00000000, 0.00000000, 0.17166977, 0.16388582, 0.01919568, 0.00000000, 0.00000000, 0.00000000, 0.00000000
1, 1.0200, 102, 0.06191732, -1.04933572, 0.35734609, 6.43548965, -6.72239733, -122.77132416, 0.00000000, 0.00000000, 0.00000000, 110.43769836, 16.90329933, 113.49668121, 1.00000000, 0.00000000, 0.00000000, 0.00000000, 0.22139172, 0.15029991, -0.02352469, 0.00000000, 0.00000000, 0.00000000, 0.00000000
1, 1.0300, 103, 0.09933549, -1.06536126, 0.39557770, 8.90093422, -5.77222252, -128.86250305, 0.00000000, 0.00000000, 0.00000000, 110.64886475, 18.10342789, 113.91239929, 1.00000000, 0.00000000, 0.00000000, 0.00000000, 0.20402642, 0.17324422, -0.06081896, 0.00000000, 0.00000000, 0.00000000, 0.00000000
1, 1.0400, 104, 0.21204685, -1.14095199, 0.38000432, 12.50688744, -13.87108612, -132.02946472, 0.00000000, 0.00000000, 0.00000000, 110.88860321, 19.38715172, 114.26976776, 1.00000000, 0.00000000, 0.00000000, 0.00000000, 0.11188982, 0.25653821, -0.04409294, 0.00000000, 0.00000000, 0.00000000, 0.00000000
1, 1.0500, 105, 0.30909929, -1.17657638, 0.43936855, 16.45759010, -23.81913567, -133.33255005, 0.00000000, 0.00000000, 0.00000000, 111.14638519, 20.71723366, 114.54204559, 1.00000000, 0.00000000, 0.00000000, 0.00000000, 0.03643925, 0.30079985, -0.10235968, 0.00000000, 0.00000000, 0.00000000, 0.00000000
1, 1.0600, 106, 0.30480617, -1.19441164, 0.35967493, 18.36593246, -39.22178650, -134.32496643, 0.00000000, 0.00000000, 0.00000000, 111.37732697, 22.11132812, 114.67267609, 1.00000000, 0.00000000, 0.00000000, 0.00000000, 0.06304356, 0.32805309, -0.02194509, 0.00000000, 0.00000000, 0.00000000, 0.00000000
1, 1.0700, 107, 0.14746945, -1.21469557, 0.38324142, 22.21875381, -54.38294601, -129.80857849, 0.00000000, 0.00000000, 0.00000000, 111.58637238, 23.51841545, 114.63922882, 1.00000000, 0.00000000, 0.00000000, 0.00000000, 0.24313700, 0.35825014, -0.04578053, 0.00000000, 0.00000000, 0.00000000, 0.00000000
1, 1.0800, 108, 0.25095493, -1.34503138, 0.38826343, 27.24588013, -69.64754486, -128.61514282, 0.00000000, 0.00000000, 0.00000000, 111.77207184, 24.95075226, 114.45333862, 1.00000000, 0.00000000, 0.00000000, 0.00000000, 0.16239023, 0.49907127, -0.05144387, 0.00000000, 0.00000000, 0.00000000, 0.00000000
1, 1.0900, 109, 0.09530342, -1.50383914, 0.43005735, 26.16825294, -86.08526611, -129.02323914, 0.00000000, 0.00000000, 0.00000000, 111.87975311, 26.46858025, 114.09879303, 1.00000000, 0.00000000, 0.00000000, 0.00000000, 0.34143931, 0.66886735, -0.09536024, 0.00000000, 0.00000000, 0.00000000, 0.00000000
1, 1.1000, 110, -0.02884772, -1.60731637, 0.45901692, 29.76427078, -97.38285828, -128.06298828, 0.00000000, 0.00000000, 0.00000000, 111.95804596, 28.02019882, 113.62023926, 1.00000000, 0.00000000, 0.00000000, 0.00000000, 0.48959345, 0.78404284, -0.12754084, 0.00000000, 0.00000000, 0.00000000, 0.00000000
1, 1.1100, 111, 0.07335094, -1.69309914, 0.40775830, 34.11693573, -111.85744476, -124.43709564, 0.00000000, 0.00000000, 0.00000000, 111.98433685, 29.59277725, 112.96768951, 1.00000000, 0.00000000, 0.00000000, 0.00000000, 0.41144478, 0.88209218, -0.08037234, 0.00000000, 0.00000000, 0.00000000, 0.00000000
1, 1.1200, 112, 0.11190519, -1.85061514, 0.33107409, 33.97922897, -144.03514099, -119.18003082, 0.00000000, 0.00000000, 0.00000000, 111.79978180, 31.23591423, 111.93336487, 1.00000000, 0.00000000, 0.00000000, 0.00000000, 0.39731291, 1.05206513, -0.01021798, 0.00000000, 0.00000000, 0.00000000, 0.00000000
1, 1.1300, 113, -0.02907987, -2.00349593, 0.32320037, 28.86428833, -175.25247192, -116.37062073, 0.00000000, 0.00000000, 0.00000000, 111.32715607, 32.94750214, 110.51651001, 1.00000000, 0.00000000, 0.00000000, 0.00000000, 0.56347924, 1.21728218, -0.01302283, 0.00000000, 0.00000000, 0.00000000, 0.00000000
1, 1.1400, 114, -0.03075874, -2.01573753, 0.32005459, 20.08795357, -195.22184753, -120.69842529, 0.00000000, 0.00000000, 0.00000000, 110.59455872, 34.77328110, 108.84143829, 1.00000000, 0.00000000, 0.00000000, 0.00000000, 0.59109020, 1.24195695, -0.02475440, 0.00000000, 0.00000000, 0.00000000, 0.00000000
1, 1.1500, 115, -0.18965538, -1.84717584, 0.48108733, 11.62185669, -211.37789917, -127.36494446, 0.00000000, 0.00000000, 0.00000000, 109.59739685, 36.69609070, 106.93548584, 1.00000000, 0.00000000, 0.00000000, 0.00000000, 0.77695131, 1.08665729, -0.20434006, 0.00000000, 0.00000000, 0.00000000, 0.00000000
1, 1.1600, 116, -0.47189486, -1.62818980, 0.60620290, 3.04841661, -187.81626892, -138.75915527, 0.00000000, 0.00000000, 0.00000000, 108.61034393, 38.62213898, 105.26754761, 1.00000000, 0.00000000, 0.00000000, 0.00000000, 1.08621752, 0.88197029, -0.34995484, 0.00000000, 0.00000000, 0.00000000, 0.00000000
1, 1.1700, 117, -0.34675956, -1.59882092, 0.65757471, 6.16792154, -148.06576538, -149.19567871, 0.00000000, 0.00000000, 0.00000000, 107.89656830, 40.50298691, 104.05010223, 1.00000000, 0.00000000, 0.00000000, 0.00000000, 0.98682249, 0.86889321, -0.41792148, 0.00000000, 0.00000000, 0.00000000, 0.00000000
1, 1.1800, 118, -0.34648827, -1.62522662, 1.02157187, -21.73813248, -114.50018311, -155.59808350, 0.00000000, 0.00000000, 0.00000000, 107.14614868, 42.30697632, 103.21546936, 1.00000000, 0.00000000, 0.00000000, 0.00000000, 1.01109576, 0.91225535, -0.79821938, 0.00000000, 0.00000000, 0.00000000, 0.00000000
1, 1.1900, 119, -0.47074521, -1.53780150, 0.85328317, -54.97649384, -26.95983124, -161.80635071, 0.00000000, 0.00000000, 0.00000000, 106.79795074, 43.93335342, 103.50977325, 1.00000000, 0.00000000, 0.00000000, 0.00000000, 1.15696859, 0.84196121, -0.64152640, 0.00000000, 0.00000000, 0.00000000, 0.00000000
1, 1.2000, 120, -0.41031173, -1.36890757, 0.70589310, -54.61882019, -9.48225880, -152.06762695, 0.00000000, 0.00000000, 0.00000000, 106.59484100, 45.41744232, 103.99651337, 1.00000000, 0.00000000, 0.00000000, 0.00000000, 1.11582303, 0.68991840, -0.50297427, 0.00000000, 0.00000000, 0.00000000, 0.00000000
1, 1.2100, 121, -0.39512250, -1.19026875, 0.71190238, -44.17610550, 18.07626343, -155.30036926, 0.00000000, 0.00000000, 0.00000000, 106.79740906, 46.85328293, 104.88978577, 1.00000000, 0.00000000, 0.00000000, 0.00000000, 1.11823833, 0.52869129, -0.51348633, 0.00000000, 0.00000000, 0.00000000, 0.00000000
1, 1.2200, 122, 0.06664335, -0.75026798, 0.72329479, -47.52833176, 39.30883408, -152.36666870, 0.00000000, 0.00000000, 0.00000000, 107.22069550, 48.19532394, 106.10712433, 1.00000000, 0.00000000, 0.00000000, 0.00000000, 0.67302990, 0.10690752, -0.52599466, 0.00000000, 0.00000000, 0.00000000, 0.00000000
1, 1.2300, 123, 1.17564940, -0.27837414, 0.66093314, -27.40727997, 43.82884216, -136.61790466, 0.00000000, 0.00000000, 0.00000000, 107.92471313, 49.38912201, 107.36064911, 1.00000000, 0.00000000, 0.00000000, 0.00000000, -0.42153907, -0.34753135, -0.46213380, 0.00000000, 0.00000000, 0.00000000, 0.00000000
1, 1.2400, 124, 1.20966339, -0.63423026, 0.82131273, 37.32450867, 3.80985045, -92.73418427, 0.00000000, 0.00000000, 0.00000000, 108.68556976, 50.25762558, 107.86782074, 1.00000000, 0.00000000, 0.00000000, 0.00000000, -0.44394624, 0.02398705, -0.61818981, 0.00000000, 0.00000000, 0.00000000, 0.00000000
1, 1.2500, 125, -0.05722418, -0.88777524, 0.45736951, -29.67338562, 1.77693546, -43.29046631, 0.00000000, 0.00000000, 0.00000000, 108.57707214, 50.66178131, 108.11225128, 1.00000000, 0.00000000, 0.00000000, 0.00000000, 0.82912648, 0.28568763, -0.25327852, 0.00000000, 0.00000000, 0.00000000, 0.00000000
1, 1.2600, 126, -0.39626819, -0.70755470, 0.19913571, -45.54471207, -29.40653229, -13.47029114, 0.00000000, 0.00000000, 0.00000000, 107.83099365, 50.88144684, 107.73722076, 1.00000000, 0.00000000, 0.00000000, 0.00000000, 1.17142153, 0.10707846, -0.00277034, 0.00000000, 0.00000000, 0.00000000, 0.00000000
1, 1.2700, 127, -0.43809602, -0.64005321, 0.00594658, -41.16163254, -13.83320522, 12.34841919, 0.00000000, 0.00000000, 0.00000000, 107.21185303, 50.80548477, 107.46972656, 1.00000000, 0.00000000, 0.00000000, 0.00000000, 1.21370661, 0.03782809, 0.18312830, 0.00000000, 0.00000000, 0.00000000, 0.00000000
1, 1.2800, 128, -0.31833893, -0.48866776, -0.11328812, -42.75444031, 12.03245163, 33.54934692, 0.00000000, 0.00000000, 0.00000000, 106.71897888, 50.35567474, 107.49807739, 1.00000000, 0.00000000, 0.00000000, 0.00000000, 1.09078479, -0.11891140, 0.29812980, 0.00000000, 0.00000000, 0.00000000, 0.00000000
1, 1.2900, 129, -0.00708821, -0.35960907, -0.07776307, -28.50612068, 13.04549217, 44.32386780, 0.00000000, 0.00000000, 0.00000000, 106.43235016, 49.89361954, 107.49598694, 1.00000000, 0.00000000, 0.00000000, 0.00000000, 0.77395260, -0.25564212, 0.26046202, 0.00000000, 0.00000000, 0.00000000, 0.00000000
1, 1.3000, 130, 0.13786073, -0.28645203, -0.05381234, -29.37196350, 2.32501078, 61.21726227, 0.00000000, 0.00000000, 0.00000000, 105.96437073, 49.29919052, 107.26698303, 1.00000000, 0.00000000, 0.00000000, 0.00000000, 0.62295294, -0.33685580, 0.23447305, 0.00000000, 0.00000000, 0.00000000, 0.00000000
1, 1.3100, 131, 0.05200706, -0.21086967, 0.00487805, -34.20603180, -6.99018812, 86.54038239, 0.00000000, 0.00000000, 0.00000000, 105.27819061, 48.48454666, 106.81031799, 1.00000000, 0.00000000, 0.00000000, 0.00000000, 0.70050979, -0.42360705, 0.17157511, 0.00000000, 0.00000000, 0.00000000, 0.00000000
1, 1.3200, 132, -0.09785859, -0.19629906, 0.03643896, -34.74048615, -0.60938245, 111.19096375, 0.00000000, 0.00000000, 0.00000000, 104.60642242, 47.41181564, 106.37374878, 1.00000000, 0.00000000, 0.00000000, 0.00000000, 0.83908725, -0.45251089, 0.13558456, 0.00000000, 0.00000000, 0.00000000, 0.00000000
1, 1.3300, 133, -0.14669056, -0.23180550, 0.05958408, -31.41173744, 19.91384315, 133.35362244, 0.00000000, 0.00000000, 0.00000000, 104.14858246, 46.01644135, 106.16371918, 1.00000000, 0.00000000, 0.00000000, 0.00000000, 0.87306750, -0.43419105, 0.11004156, 0.00000000, 0.00000000, 0.00000000, 0.00000000
1, 1.3400, 134, -0.13844804, -0.28415683, 0.07400130, -27.52542496, 50.64527512, 151.01000977, 0.00000000, 0.00000000, 0.00000000, 103.99797821, 44.42863083, 106.34004974, 1.00000000, 0.00000000, 0.00000000, 0.00000000, 0.84604478, -0.40133265, 0.09731334, 0.00000000, 0.00000000, 0.00000000, 0.00000000
1, 1.3500, 135, -0.09924279, -0.34059861, 0.07225183, -23.41475677, 76.12151337, 166.95678711, 0.00000000, 0.00000000, 0.00000000, 104.08047485, 42.62434769, 106.80023956, 1.00000000, 0.00000000, 0.00000000, 0.00000000, 0.78525710, -0.36521623, 0.10418472, 0.00000000, 0.00000000, 0.00000000, 0.00000000
1, 1.3600, 136, -0.07136720, -0.38449016, 0.09528393, -18.97336388, 96.40238953, 184.09820557, 0.00000000, 0.00000000, 0.00000000, 104.31967163, 40.60316849, 107.44639587, 1.00000000, 0.00000000, 0.00000000, 0.00000000, 0.73236185, -0.34283888, 0.08904704, 0.00000000, 0.00000000, 0.00000000, 0.00000000
1, 1.3700, 137, -0.06489794, -0.42013940, 0.10544552, -15.28494644, 107.58651733, 201.96406555, 0.00000000, 0.00000000, 0.00000000, 104.60986328, 38.37882233, 108.14277649, 1.00000000, 0.00000000, 0.00000000, 0.00000000, 0.69725776, -0.32977846, 0.08852032, 0.00000000, 0.00000000, 0.00000000, 0.00000000
1, 1.3800, 138, -0.08156695, -0.45749703, 0.13032462, -13.48024559, 116.91930389, 218.55369568, 0.00000000, 0.00000000, 0.00000000, 104.91107941, 35.92903900, 108.85623932, 1.00000000, 0.00000000, 0.00000000, 0.00000000, 0.68163109, -0.31583703, 0.07395324, 0.00000000, 0.00000000, 0.00000000, 0.00000000
1, 1.3900, 139, -0.06190419, -0.49176717, 0.14792806, -11.97283554, 127.66636658, 236.10861206, 0.00000000, 0.00000000, 0.00000000, 105.21906281, 33.31728745, 109.60867310, 1.00000000, 0.00000000, 0.00000000, 0.00000000, 0.62555552, -0.30560893, 0.06729658, 0.00000000, 0.00000000, 0.00000000, 0.00000000
1, 1.4000, 140, 0.03877697, -0.52388918, 0.19502887, -9.47619057, 132.71762085, 252.58679199, 0.00000000, 0.00000000, 0.00000000, 105.50499725, 30.53007507, 110.32808685, 1.00000000, 0.00000000, 0.00000000, 0.00000000, 0.48499048, -0.29726994, 0.03119306, 0.00000000, 0.00000000, 0.00000000, 0.00000000
1, 1.4100, 141, 0.11910339, -0.56603086, 0.24033841, -8.88093567, 131.54966736, 268.61248779, 0.00000000, 0.00000000, 0.00000000, 105.71921539, 27.58902550, 110.95051575, 1.00000000, 0.00000000, 0.00000000, 0.00000000, 0.36113226, -0.27848941, -0.00380119, 0.00000000, 0.00000000, 0.00000000, 0.00000000
1, 1.4200, 142, 0.15022114, -0.67802835, 0.28751850, -7.09188938, 116.27095795, 287.44955444, 0.00000000, 0.00000000, 0.00000000, 105.81421661, 24.50675964, 111.32661438, 1.00000000, 0.00000000, 0.00000000, 0.00000000, 0.28293031, -0.18917522, -0.04234546, 0.00000000, 0.00000000, 0.00000000, 0.00000000
1, 1.4300, 143, 0.11750325, -0.80538076, 0.26854178, -11.53016186, 103.00678253, 304.04168701, 0.00000000, 0.00000000, 0.00000000, 105.76972961, 21.28531265, 111.50015259, 1.00000000, 0.00000000, 0.00000000, 0.00000000, 0.26525617, -0.08343130, -0.01702929, 0.00000000, 0.00000000, 0.00000000, 0.00000000
1, 1.4400, 144, 0.13312505, -0.93167973, 0.22591381, -16.48642349, 87.70582581, 319.42620850, 0.00000000, 0.00000000, 0.00000000, 105.59853363, 17.97292137, 111.47988129, 1.00000000, 0.00000000, 0.00000000, 0.00000000, 0.19610307, 0.02263904, 0.02901701, 0.00000000, 0.00000000, 0.00000000, 0.00000000
1, 1.4500, 145, 0.25401214, -1.08520782, 0.18673180, -10.60906410, 86.38024902, 331.60556030, 0.00000000, 0.00000000, 0.00000000, 105.47618866, 14.54673004, 111.42205048, 1.00000000, 0.00000000, 0.00000000, 0.00000000, 0.01891351, 0.15836307, 0.07053971, 0.00000000, 0.00000000, 0.00000000, 0.00000000
1, 1.4600, 146, 0.41467407, -1.24516487, 0.19433981, -0.88311714, 92.61267090, 343.35437012, 0.00000000, 0.00000000, 0.00000000, 105.46223450, 10.99061489, 111.39870453, 1.00000000, 0.00000000, 0.00000000, 0.00000000, -0.20111474, 0.30373448, 0.06603981, 0.00000000, 0.00000000, 0.00000000, 0.00000000
1, 1.4700, 147, 0.57572907, -1.43417478, 0.33677018, 9.65571404, 82.17395020, 351.72943115, 0.00000000, 0.00000000, 0.00000000, 105.53594208, 7.38172007, 111.24923706, 1.00000000, 0.00000000, 0.00000000, 0.00000000, -0.42389017, 0.48188156, -0.07262581, 0.00000000, 0.00000000, 0.00000000, 0.00000000
1, 1.4800, 148, 0.63025147, -1.68913352, 0.54773492, 13.17299652, 67.31085205, 355.78094482, 0.00000000, 0.00000000, 0.00000000, 105.63955688, 3.78088784, 110.93911743, 1.00000000, 0.00000000, 0.00000000, 0.00000000, -0.54085171, 0.72997522, -0.27994025, 0.00000000, 0.00000000, 0.00000000, 0.00000000
1, 1.4900, 149, 0.69495749, -1.92940104, 0.68727911, 12.65497017, 55.27905655, 359.49526978, 0.00000000, 0.00000000, 0.00000000, 105.75163269, 0.17053302, 110.49848175, 1.00000000, 0.00000000, 0.00000000, 0.00000000, -0.66835582, 0.96724474, -0.41665605, 0.00000000, 0.00000000, 0.00000000, 0.00000000
1, 1.5000, 150, 0.91425228, -1.82244289, 0.64686036, -0.01613623, 21.68213844, 365.55398560, 0.00000000, 0.00000000, 0.00000000, 105.77520752, -3.40633082, 109.71354675, 1.00000000, 0.00000000, 0.00000000, 0.00000000, -0.95030773, 0.86084211, -0.37534600, 0.00000000, 0.00000000, 0.00000000, 0.00000000
1, 1.5100, 151, 0.89538181, -1.65500736, 0.58843595, 5.97448826, -0.20331909, 367.89999390, 0.00000000, 0.00000000, 0.00000000, 105.92648315, -6.94512415, 108.70359039, 1.00000000, 0.00000000, 0.00000000, 0.00000000, -0.99332654, 0.69780362, -0.31664586, 0.00000000, 0.00000000, 0.00000000, 0.00000000
1, 1.5200, 152, 0.66494751, -1.61460137, 0.59566653, 18.62327576, 4.21259451, 360.44757080, 0.00000000, 0.00000000, 0.00000000, 106.25840759, -10.42020607, 107.73442841, 1.00000000, 0.00000000, 0.00000000, 0.00000000, -0.82347631, 0.66622841, -0.32149750, 0.00000000, 0.00000000, 0.00000000, 0.00000000
1, 1.5300, 153, 0.50538462, -1.76684511, 0.64884466, 30.94293785, 26.58576393, 343.27139282, 0.00000000, 0.00000000, 0.00000000, 106.72199249, -13.77572918, 106.99816132, 1.00000000, 0.00000000, 0.00000000, 0.00000000, -0.72238398, 0.83117771, -0.37105337, 0.00000000, 0.00000000, 0.00000000, 0.00000000
1, 1.5400, 154, 0.63720483, -2.21707058, 0.69840384, 34.92488480, 36.72174835, 314.94104004, 0.00000000, 0.00000000, 0.00000000, 107.22714996, -16.89506721, 106.40864563, 1.00000000, 0.00000000, 0.00000000, 0.00000000, -0.90863097, 1.29700446, -0.41631365, 0.00000000, 0.00000000, 0.00000000, 0.00000000
1, 1.5500, 155, 0.95438147, -2.35727501, 0.63949454, 8.43896198, 32.46718216, 285.55398560, 0.00000000, 0.00000000, 0.00000000, 107.49153900, -19.71714020, 105.83634949, 1.00000000, 0.00000000, 0.00000000, 0.00000000, -1.27459431, 1.45345402, -0.35597146, 0.00000000, 0.00000000, 0.00000000, 0.00000000
1, 1.5600, 156, 1.16123772, -1.96035790, 0.47467893, -12.07028961, 22.83724213, 265.81246948, 0.00000000, 0.00000000, 0.00000000, 107.59542084, -22.32043839, 105.21109009, 1.00000000, 0.00000000, 0.00000000, 0.00000000, -1.52546871, 1.07251310, -0.19377074, 0.00000000, 0.00000000, 0.00000000, 0.00000000
1, 1.5700, 157, 1.42160225, -1.50253522, 0.48845339, -8.12118340, 21.32834435, 239.35758972, 0.00000000, 0.00000000, 0.00000000, 107.74109650, -24.66591454, 104.64102936, 1.00000000, 0.00000000, 0.00000000, 0.00000000, -1.82527614, 0.63091302, -0.21061468, 0.00000000, 0.00000000, 0.00000000, 0.00000000
1, 1.5800, 158, 1.82250357, -1.13088477, 0.64405280, 7.27050591, 21.63310623, 191.06761169, 0.00000000, 0.00000000, 0.00000000, 108.00056458, -26.52872276, 104.20958710, 1.00000000, 0.00000000, 0.00000000, 0.00000000, -2.25903416, 0.27473158, -0.36771297, 0.00000000, 0.00000000, 0.00000000, 0.00000000
1, 1.5900, 159, 2.35098910, -0.75999308, 0.63347584, 16.79140663, -8.84791851, 135.92436218, 0.00000000, 0.00000000, 0.00000000, 108.43027496, -27.79224396, 103.63798523, 1.00000000, 0.00000000, 0.00000000, 0.00000000, -2.81070232, -0.08339299, -0.35539997, 0.00000000, 0.00000000, 0.00000000, 0.00000000
1, 1.6000, 160, 2.47958064, -0.56508255, 0.45533979, 31.39674759, -65.67288971, 79.56835938, 0.00000000, 0.00000000, 0.00000000, 109.21338654, -28.33350563, 102.64308929, 1.00000000, 0.00000000, 0.00000000, 0.00000000, -2.95193601, -0.26880842, -0.16987795, 0.00000000, 0.00000000, 0.00000000, 0.00000000
1, 1.6100, 161, 1.79414058, -0.68622303, 0.36628532, 33.57192230, -90.38230896, 18.09087563, 0.00000000, 0.00000000, 0.00000000, 110.04022980, -28.20035553, 101.60787201, 1.00000000, 0.00000000, 0.00000000, 0.00000000, -2.26825380, -0.14247756, -0.06886522, 0.00000000, 0.00000000, 0.00000000, 0.00000000
1, 1.6200, 162, 1.34056008, -0.98340350, 0.32098529, 20.68987656, -76.17861176, -48.34327698, 0.00000000, 0.00000000, 0.00000000, 110.53666687, -27.48275948, 100.98975372, 1.00000000, 0.00000000, 0.00000000, 0.00000000, -1.80679941, 0.15416832, -0.01281028, 0.00000000, 0.00000000, 0.00000000, 0.00000000
1, 1.6300, 163, 1.36662090, -1.07309854, 0.28495485, 7.52698898, -44.30604935, -108.68596649, 0.00000000, 0.00000000, 0.00000000, 110.62564087, -26.25901031, 100.95032501, 1.00000000, 0.00000000, 0.00000000, 0.00000000, -1.81699765, 0.23747560, 0.02945761, 0.00000000, 0.00000000, 0.00000000, 0.00000000
1, 1.6400, 164, 1.29216957, -1.16771984, 0.24027327, 1.00761044, -19.88768196, -155.02352905, 0.00000000, 0.00000000, 0.00000000, 110.46533966, -24.73763275, 101.34693146, 1.00000000, 0.00000000, 0.00000000, 0.00000000, -1.72003102, 0.32136047, 0.07682602, 0.00000000, 0.00000000, 0.00000000, 0.00000000
1, 1.6500, 165, 0.53770643, -1.16568196, 0.59166121, -18.72799873, -3.38612485, -187.76585388, 0.00000000, 0.00000000, 0.00000000, 110.00570679, -22.96402740, 102.02219391, 1.00000000, 0.00000000, 0.00000000, 0.00000000, -0.93874490, 0.30594215, -0.27553758, 0.00000000, 0.00000000, 0.00000000, 0.00000000
1, 1.6600, 166, -3.28201008, -1.46821153, 0.81397098, -8.65161133, 32.10912704, -200.82255554, 0.00000000, 0.00000000, 0.00000000, 109.52364349, -21.18269730, 103.08143616, 1.00000000, 0.00000000, 0.00000000, 0.00000000, 2.91127157, 0.59398651, -0.50059545, 0.00000000, 0.00000000, 0.00000000, 0.00000000
1, 1.6700, 167, -3.28588724, -1.30289984, 0.68226010, 36.64758301, 95.93654633, -85.69007111, 0.00000000, 0.00000000, 0.00000000, 109.43659973, -20.69327545, 104.35466003, 1.00000000, 0.00000000, 0.00000000, 0.00000000, 2.93086720, 0.42111486, -0.37175491, 0.00000000, 0.00000000, 0.00000000, 0.00000000
1, 1.6800, 168, 0.07649928, -1.05547202, -0.84073466, 16.60951996, 55.23649979, -43.90917206, 0.00000000, 0.00000000, 0.00000000, 109.32746887, -20.44143105, 105.10633087, 1.00000000, 0.00000000, 0.00000000, 0.00000000, -0.42780581, 0.17241034, 1.15183449, 0.00000000, 0.00000000, 0.00000000, 0.00000000
1, 1.6900, 169, 2.08169413, -1.81225669, -1.05015862, -22.56654549, 61.06066132, -109.28031158, 0.00000000, 0.00000000, 0.00000000, 108.76048279, -19.60774612, 106.09994507, 1.00000000, 0.00000000, 0.00000000, 0.00000000, -2.42348099, 0.92357695, 1.35577440, 0.00000000, 0.00000000, 0.00000000, 0.00000000
1, 1.7000, 170, 0.33977607, -2.16727710, 0.24508092, 16.43756485, 9.89995193, -154.80873108, 0.00000000, 0.00000000, 0.00000000, 108.72194672, -18.17347908, 106.72476196, 1.00000000, 0.00000000, 0.00000000, 0.00000000, -0.66075462, 1.27036572, 0.05901103, 0.00000000, 0.00000000, 0.00000000, 0.00000000
1, 1.7100, 171, -0.32971948, -1.45939565, -0.00987974, -30.26177216, -8.04553223, -136.75704956, 0.00000000, 0.00000000, 0.00000000, 108.30587006, -16.85136223, 107.10064697, 1.00000000, 0.00000000, 0.00000000, 0.00000000, 0.03192385, 0.55396616, 0.31232154, 0.00000000, 0.00000000, 0.00000000, 0.00000000
1, 1.7200, 172, 0.52672410, -1.43319595, -0.35252085, 10.60020256, -17.79995537, -110.10851288, 0.00000000, 0.00000000, 0.00000000, 108.36016846, -15.75002861, 107.28455353, 1.00000000, 0.00000000, 0.00000000, 0.00000000, -0.80482447, 0.52121162, 0.65404391, 0.00000000, 0.00000000, 0.00000000, 0.00000000
1, 1.7300, 173, 0.66927820, -1.34827852, -0.20994753, 18.85306358, -39.88758087, -86.60107422, 0.00000000, 0.00000000, 0.00000000, 108.53348541, -14.72408295, 107.24774170, 1.00000000, 0.00000000, 0.00000000, 0.00000000, -0.93047190, 0.43279207, 0.51594698, 0.00000000, 0.00000000, 0.00000000, 0.00000000
1, 1.7400, 174, 0.07978602, -1.04745042, 0.36838228, 25.91007423, -52.81492996, -81.10012817, 0.00000000, 0.00000000, 0.00000000, 108.85415649, -13.78678703, 106.99945068, 1.00000000, 0.00000000, 0.00000000, 0.00000000, -0.32390583, 0.12904973, -0.05705731, 0.00000000, 0.00000000, 0.00000000, 0.00000000
1, 1.7500, 175, -0.12865666, -0.95691228, 0.99258322, 35.45426559, -17.90958977, -88.48756409, 0.00000000, 0.00000000, 0.00000000, 109.18122864, -12.89211845, 107.12165070, 1.00000000, 0.00000000, 0.00000000, 0.00000000, -0.10009661, 0.03682534, -0.67463529, 0.00000000, 0.00000000, 0.00000000, 0.00000000
1, 1.7600, 176, 0.23407871, -0.95121014, 0.96193725, 41.38574982, 24.96089172, -97.10181427, 0.00000000, 0.00000000, 0.00000000, 109.47177124, -12.05854607, 107.69224548, 1.00000000, 0.00000000, 0.00000000, 0.00000000, -0.44844097, 0.02977735, -0.63791281, 0.00000000, 0.00000000, 0.00000000, 0.00000000
1, 1.7700, 177, -0.16794217, -1.04748082, 0.53762186, 14.35200596, 17.30206108, -107.55320740, 0.00000000, 0.00000000, 0.00000000, 109.50833130, -11.10251808, 108.22531128, 1.00000000, 0.00000000, 0.00000000, 0.00000000, -0.03074078, 0.12370801, -0.21028915, 0.00000000, 0.00000000, 0.00000000, 0.00000000
1, 1.7800, 178, 0.03037355, -0.84767336, 0.40334111, 14.15432644, 26.18966675, -88.51191711, 0.00000000, 0.00000000, 0.00000000, 109.57890320, -10.24229717, 108.74200439, 1.00000000, 0.00000000, 0.00000000, 0.00000000, -0.21414816, -0.07874548, -0.07477234, 0.00000000, 0.00000000, 0.00000000, 0.00000000
1, 1.7900, 179, 0.56049609, -0.73523539, 0.39409313, 11.41685581, -17.89624596, -67.42169952, 0.00000000, 0.00000000, 0.00000000, 109.68227386, -9.54705620, 108.80094147, 1.00000000, 0.00000000, 0.00000000, 0.00000000, -0.73088700, -0.19278392, -0.06283005, 0.00000000, 0.00000000, 0.00000000, 0.00000000
1, 1.8000, 180, 0.23283346, -0.79837173, 0.40821341, 7.96468973, -87.58169556, -53.79919052, 0.00000000, 0.00000000, 0.00000000, 109.86476135, -8.74445438, 108.15048981, 1.00000000, 0.00000000, 0.00000000, 0.00000000, -0.39022249, -0.13084716, -0.07390231, 0.00000000, 0.00000000, 0.00000000, 0.00000000
1, 1.8100, 181, -0.10100108, -0.88637507, 0.45463306, 8.14337349, -98.03578186, -49.40984344, 0.00000000, 0.00000000, 0.00000000, 110.05682373, -7.94541931, 107.38959503, 1.00000000, 0.00000000, 0.00000000, 0.00000000, -0.04226638, -0.04370128, -0.11637728, 0.00000000, 0.00000000, 0.00000000, 0.00000000
1, 1.8200, 182, -0.22423913, -0.96560401, 0.45082203, 14.68335152, -66.96901703, -50.27857971, 0.00000000, 0.00000000, 0.00000000, 110.26457977, -7.24269819, 106.93015289, 1.00000000, 0.00000000, 0.00000000, 0.00000000, 0.09372756, 0.03507139, -0.10867688, 0.00000000, 0.00000000, 0.00000000, 0.00000000
1, 1.8300, 183, -0.29755768, -0.97782403, 0.46200904, 12.82974911, -40.64277267, -52.85037994, 0.00000000, 0.00000000, 0.00000000, 110.43318176, -6.64684153, 106.70681000, 1.00000000, 0.00000000, 0.00000000, 0.00000000, 0.17830588, 0.04706959, -0.11637011, 0.00000000, 0.00000000, 0.00000000, 0.00000000
1, 1.8400, 184, -0.17424473, -0.93093055, 0.36466381, 10.16932583, -5.12894058, -56.93141174, 0.00000000, 0.00000000, 0.00000000, 110.51818848, -6.09557247, 106.85881042, 1.00000000, 0.00000000, 0.00000000, 0.00000000, 0.06455019, -0.00017139, -0.01680012, 0.00000000, 0.00000000, 0.00000000, 0.00000000
1, 1.8500, 185, 0.01173476, -0.97043985, 0.36351585, 10.05108643, 7.28538895, -56.59112167, 0.00000000, 0.00000000, 0.00000000, 110.59137726, -5.59128046, 107.12715149, 1.00000000, 0.00000000, 0.00000000, 0.00000000, -0.11242576, 0.03893968, -0.01399816, 0.00000000, 0.00000000, 0.00000000, 0.00000000
1, 1.8600, 186, 0.11554468, -1.04356921, 0.28838634, 6.54260731, -3.27961135, -52.87541580, 0.00000000, 0.00000000, 0.00000000, 110.64218140, -5.08483458, 107.28330994, 1.00000000, 0.00000000, 0.00000000, 0.00000000, -0.20749462, 0.11161664, 0.06233187, 0.00000000, 0.00000000, 0.00000000, 0.00000000
1, 1.8700, 187, 0.18234991, -1.06539702, 0.26035693, 8.74336910, -15.70949554, -49.82904434, 0.00000000, 0.00000000, 0.00000000, 110.72706604, -4.56316090, 107.31242371, 1.00000000, 0.00000000, 0.00000000, 0.00000000, -0.26535326, 0.13313748, 0.09177374, 0.00000000, 0.00000000, 0.00000000, 0.00000000
1, 1.8800, 188, 0.11658037, -0.98168969, 0.31363183, 9.43046474, -26.70357513, -46.90471268, 0.00000000, 0.00000000, 0.00000000, 110.82838440, -3.96237683, 107.23178864, 1.00000000, 0.00000000, 0.00000000, 0.00000000, -0.19001855, 0.04932880, 0.04034673, 0.00000000, 0.00000000, 0.00000000, 0.00000000
1, 1.8900, 189, 0.22740415, -0.90405649, 0.34437156, 6.59528685, -34.37598038, -42.25319672, 0.00000000, 0.00000000, 0.00000000, 110.90526581, -3.44507957, 107.06078339, 1.00000000, 0.00000000, 0.00000000, 0.00000000, -0.29091263, -0.02837205, 0.01134912, 0.00000000, 0.00000000, 0.00000000, 0.00000000
1, 1.9000, 190, 0.12165344, -0.93121451, 0.32220522, 1.91887856, -45.45445633, -37.09432220, 0.00000000, 0.00000000, 0.00000000, 110.94068909, -2.93628812, 106.76818085, 1.00000000, 0.00000000, 0.00000000, 0.00000000, -0.17614736, -0.00145738, 0.03437222, 0.00000000, 0.00000000, 0.00000000, 0.00000000
1, 1.9100, 191, -0.02075094, -0.98698163, 0.39537334, 5.60633039, -46.36516190, -32.91539764, 0.00000000, 0.00000000, 0.00000000, 111.01161194, -2.46295691, 106.45276642, 1.00000000, 0.00000000, 0.00000000, 0.00000000, -0.02528370, 0.05431400, -0.03759345, 0.00000000, 0.00000000, 0.00000000, 0.00000000
1, 1.9200, 192, 0.14466780, -0.98436946, 0.36078390, 3.13175964, -40.61471176, -30.45492744, 0.00000000, 0.00000000, 0.00000000, 111.05352783, -2.03294277, 106.18275452, 1.00000000, 0.00000000, 0.00000000, 0.00000000, -0.18291318, 0.05170816, -0.00206979, 0.00000000, 0.00000000, 0.00000000, 0.00000000
1, 1.9300, 193, 0.23730922, -0.96189272, 0.29915822, 2.38155890, -42.61786270, -29.29691505, 0.00000000, 0.00000000, 0.00000000, 111.06578064, -1.53409040, 105.91701508, 1.00000000, 0.00000000, 0.00000000, 0.00000000, -0.26781759, 0.02918465, 0.06017254, 0.00000000, 0.00000000, 0.00000000, 0.00000000
1, 1.9400, 194, 0.09224433, -0.91370475, 0.30197510, 3.34070277, -41.79913712, -26.14915848, 0.00000000, 0.00000000, 0.00000000, 111.10608673, -1.13973856, 105.62098694, 1.00000000, 0.00000000, 0.00000000, 0.00000000, -0.11465152, -0.01907846, 0.05776058, 0.00000000, 0.00000000, 0.00000000, 0.00000000
1, 1.9500, 195, 0.10249322, -0.90846413, 0.28335866, 4.16810226, -40.55934525, -24.09726524, 0.00000000, 0.00000000, 0.00000000, 111.15261078, -0.76876444, 105.32946777, 1.00000000, 0.00000000, 0.00000000, 0.00000000, -0.11832485, -0.02414834, 0.07716880, 0.00000000, 0.00000000, 0.00000000, 0.00000000
1, 1.9600, 196, 0.06427222, -0.91576946, 0.37191376, 5.20389509, -40.59659958, -22.95543861, 0.00000000, 0.00000000, 0.00000000, 111.20767975, -0.40805280, 105.03383636, 1.00000000, 0.00000000, 0.00000000, 0.00000000, -0.07373569, -0.01659884, -0.01053210, 0.00000000, 0.00000000, 0.00000000, 0.00000000
1, 1.9700, 197, 0.04027563, -0.92594582, 0.40558833, 4.60067368, -39.88796234, -23.11469269, 0.00000000, 0.00000000, 0.00000000, 111.25485229, -0.04814773, 104.74572754, 1.00000000, 0.00000000, 0.00000000, 0.00000000, -0.04349239, -0.00613210, -0.04334906, 0.00000000, 0.00000000, 0.00000000, 0.00000000
1, 1.9800, 198, -0.00605651, -0.94061208, 0.39279684, 4.31657314, -39.58883667, -25.78505898, 0.00000000, 0.00000000, 0.00000000, 111.30918121, 0.30620062, 104.45629883, 1.00000000, 0.00000000, 0.00000000, 0.00000000, 0.00922420, 0.00882502, -0.02980951, 0.00000000, 0.00000000, 0.00000000, 0.00000000
1, 1.9900, 199, -0.10729791, -0.90046793, 0.47606993, 6.49184465, -37.66405869, -27.46891212, 0.00000000, 0.00000000, 0.00000000, 111.37194061, 0.69909418, 104.20540619, 1.00000000, 0.00000000, 0.00000000, 0.00000000, 0.11694936, -0.03088525, -0.11208590, 0.00000000, 0.00000000, 0.00000000, 0.00000000
1, 2.0000, 200, -0.01285611, -0.86270398, 0.47853121, 9.49690056, -34.82955170, -30.53462982, 0.00000000, 0.00000000, 0.00000000, 111.46355438, 1.11053753, 103.99263763, 1.00000000, 0.00000000, 0.00000000, 0.00000000, 0.02949827, -0.06804311, -0.11325213, 0.00000000, 0.00000000, 0.00000000, 0.00000000
1, 2.0100, 201, -0.03353836, -0.88387609, 0.51841676, 10.71140575, -26.11188889, -33.49156952, 0.00000000, 0.00000000, 0.00000000, 111.56796265, 1.51788056, 103.87252808, 1.00000000, 0.00000000, 0.00000000, 0.00000000, 0.05737127, -0.04608390, -0.15153486, 0.00000000, 0.00000000, 0.00000000, 0.00000000
1, 2.0200, 202, 0.08890552, -0.95814776, 0.38352016, 3.83103752, -23.38788605, -33.91771317, 0.00000000, 0.00000000, 0.00000000, 111.60347748, 1.91931474, 103.77982330, 1.00000000, 0.00000000, 0.00000000, 0.00000000, -0.05804712, 0.02878478, -0.01565003, 0.00000000, 0.00000000, 0.00000000, 0.00000000
1, 2.0300, 203, 0.20194845, -1.01339197, 0.30029941, 5.92147827, -24.60923958, -33.55521774, 0.00000000, 0.00000000, 0.00000000, 111.62139130, 2.38043451, 103.71417236, 1.00000000, 0.00000000, 0.00000000, 0.00000000, -0.16384920, 0.08443797, 0.06792241, 0.00000000, 0.00000000, 0.00000000, 0.00000000
1, 2.0400, 204, 0.14681698, -1.06637752, 0.28396976, 4.12802696, -26.15739441, -34.39147949, 0.00000000, 0.00000000, 0.00000000, 111.65741730, 2.79658532, 103.59777832, 1.00000000, 0.00000000, 0.00000000, 0.00000000, -0.10074439, 0.13790581, 0.08455914, 0.00000000, 0.00000000, 0.00000000, 0.00000000
1, 2.0500, 205, 0.16790165, -1.04997098, 0.23695903, 2.53888702, -25.96168327, -33.38977051, 0.00000000, 0.00000000, 0.00000000, 111.67662048, 3.20274568, 103.47961426, 1.00000000, 0.00000000, 0.00000000, 0.00000000, -0.11467960, 0.12195452, 0.13175364, 0.00000000, 0.00000000, 0.00000000, 0.00000000
1, 2.0600, 206, 0.15379055, -1.03512216, 0.22841634, 1.43017662, -30.42818260, -33.74383926, 0.00000000, 0.00000000, 0.00000000, 111.68148804, 3.62871504, 103.32124329, 1.00000000, 0.00000000, 0.00000000, 0.00000000, -0.09329163, 0.10757735, 0.14036030, 0.00000000, 0.00000000, 0.00000000, 0.00000000
1, 2.0700, 207, 0.07055677, -1.00140011, 0.29729798, 0.04872275, -27.17573547, -34.47605133, 0.00000000, 0.00000000, 0.00000000, 111.67359924, 4.04948378, 103.19577026, 1.00000000, 0.00000000, 0.00000000, 0.00000000, -0.00270764, 0.07425606, 0.07120741, 0.00000000, 0.00000000, 0.00000000, 0.00000000
1, 2.0800, 208, 0.09300339, -0.97422034, 0.34682626, -0.16190466, -22.59160423, -38.35673523, 0.00000000, 0.00000000, 0.00000000, 111.65052795, 4.49599075, 103.14320374, 1.00000000, 0.00000000, 0.00000000, 0.00000000, -0.01759014, 0.04751259, 0.02130506, 0.00000000, 0.00000000, 0.00000000, 0.00000000
1, 2.0900, 209, -0.06585161, -0.95808244, 0.35475969, -1.56536472, -20.09856987, -42.28247833, 0.00000000, 0.00000000, 0.00000000, 111.63240051, 4.96313095, 103.11222076, 1.00000000, 0.00000000, 0.00000000, 0.00000000, 0.14933968, 0.03180353, 0.01270723, 0.00000000, 0.00000000, 0.00000000, 0.00000000
1, 2.1000, 210, -0.03323950, -0.93697965, 0.42814451, -1.01511157, -9.89904308, -45.75629044, 0.00000000, 0.00000000, 0.00000000, 111.62923431, 5.42495584, 103.18920135, 1.00000000, 0.00000000, 0.00000000, 0.00000000, 0.12469926, 0.01131235, -0.06103413, 0.00000000, 0.00000000, 0.00000000, 0.00000000
1, 2.1100, 211, 0.04020808, -0.93889803, 0.45825562, -10.95160580, -9.26117516, -52.66181183, 0.00000000, 0.00000000, 0.00000000, 111.53043365, 5.94871044, 103.29734802, 1.00000000, 0.00000000, 0.00000000, 0.00000000, 0.05992214, 0.01363532, -0.09239240, 0.00000000, 0.00000000, 0.00000000, 0.00000000
1, 2.1200, 212, -0.12790005, -0.91290152, 0.46342456, -9.65553761, -8.55150127, -59.24899673, 0.00000000, 0.00000000, 0.00000000, 111.44895935, 6.53137207, 103.43556976, 1.00000000, 0.00000000, 0.00000000, 0.00000000, 0.23782080, -0.01205766, -0.09961192, 0.00000000, 0.00000000, 0.00000000, 0.00000000
1, 2.1300, 213, -0.01975119, -0.90083623, 0.54582036, -4.63004494, -3.81581974, -65.06439209, 0.00000000, 0.00000000, 0.00000000, 111.47650146, 7.12167835, 103.59179688, 1.00000000, 0.00000000, 0.00000000, 0.00000000, 0.13997747, -0.02316357, -0.18283063, 0.00000000, 0.00000000, 0.00000000, 0.00000000
1, 2.1400, 214, -0.00336217, -0.89998752, 0.49705434, -5.74020290, -6.44265127, -72.62390137, 0.00000000, 0.00000000, 0.00000000, 111.44606018, 7.82112503, 103.79930878, 1.00000000, 0.00000000, 0.00000000, 0.00000000, 0.13479227, -0.02262223, -0.13441770, 0.00000000, 0.00000000, 0.00000000, 0.00000000
1, 2.1500, 215, -0.08265350, -0.91659921, 0.52095658, -4.67866993, -5.83248711, -79.29688263, 0.00000000, 0.00000000, 0.00000000, 111.43325806, 8.58054924, 104.03729248, 1.00000000, 0.00000000, 0.00000000, 0.00000000, 0.22685151, -0.00448449, -0.15929687, 0.00000000, 0.00000000, 0.00000000, 0.00000000
1, 2.1600, 216, -0.02508545, -0.95861024, 0.48082221, -6.09489059, -5.44275761, -87.27206421, 0.00000000, 0.00000000, 0.00000000, 111.41475677, 9.41284561, 104.30874634, 1.00000000, 0.00000000, 0.00000000, 0.00000000, 0.18312362, 0.03940284, -0.12017721, 0.00000000, 0.00000000, 0.00000000, 0.00000000
1, 2.1700, 217, -0.03004039, -1.00633466, 0.45761755, -5.72171545, -3.64005637, -96.61743927, 0.00000000, 0.00000000, 0.00000000, 111.41306305, 10.32562542, 104.63237000, 1.00000000, 0.00000000, 0.00000000, 0.00000000, 0.20326367, 0.08943126, -0.09808804, 0.00000000, 0.00000000, 0.00000000, 0.00000000
1, 2.1800, 218, 0.05211646, -1.05466211, 0.42298445, -4.96789074, -0.63510597, -107.02072906, 0.00000000, 0.00000000, 0.00000000, 111.43525696, 11.30167294, 105.02479553, 1.00000000, 0.00000000, 0.00000000, 0.00000000, 0.13766952, 0.14069453, -0.06434591, 0.00000000, 0.00000000, 0.00000000, 0.00000000
1, 2.1900, 219, 0.05364110, -1.10834193, 0.34275961, -5.03781223, -2.73231030, -115.75917816, 0.00000000, 0.00000000, 0.00000000, 111.46822357, 12.38905907, 105.43136597, 1.00000000, 0.00000000, 0.00000000, 0.00000000, 0.15383184, 0.19790913, 0.01506438, 0.00000000, 0.00000000, 0.00000000, 0.00000000
1, 2.2000, 220, 0.01717785, -1.14572632, 0.32606566, -4.26432133, 0.16386794, -121.42172241, 0.00000000, 0.00000000, 0.00000000, 111.52847290, 13.51822853, 105.88947296, 1.00000000, 0.00000000, 0.00000000, 0.00000000, 0.20940012, 0.23952259, 0.03090341, 0.00000000, 0.00000000, 0.00000000, 0.00000000
1, 2.2100, 221, 0.22299649, -1.18135858, 0.29136381, -3.12269354, 0.55883628, -127.01326752, 0.00000000, 0.00000000, 0.00000000, 111.61582947, 14.69732094, 106.37640381, 1.00000000, 0.00000000, 0.00000000, 0.00000000, 0.02310672, 0.28010732, 0.06521098, 0.00000000, 0.00000000, 0.00000000, 0.00000000
1, 2.2200, 222, 0.14188530, -1.22648263, 0.20324707, -4.30396080, -5.70884323, -132.68994141, 0.00000000, 0.00000000, 0.00000000, 111.69232941, 15.95168686, 106.82891846, 1.00000000, 0.00000000, 0.00000000, 0.00000000, 0.12500291, 0.33080685, 0.15241803, 0.00000000, 0.00000000, 0.00000000, 0.00000000
1, 2.2300, 223, 0.23319215, -1.21770668, 0.27181527, 1.05540025, -11.01038933, -135.05792236, 0.00000000, 0.00000000, 0.00000000, 111.79776764, 17.23847580, 107.26101685, 1.00000000, 0.00000000, 0.00000000, 0.00000000, 0.05508452, 0.32845294, 0.08326841, 0.00000000, 0.00000000, 0.00000000, 0.00000000
1, 2.2400, 224, 0.29036298, -1.21783864, 0.17382887, 0.55969369, -17.08530807, -138.06332397, 0.00000000, 0.00000000, 0.00000000, 111.91802216, 18.58347511, 107.63451385, 1.00000000, 0.00000000, 0.00000000, 0.00000000, 0.01985166, 0.33562702, 0.18032549, 0.00000000, 0.00000000, 0.00000000, 0.00000000
1, 2.2500, 225, 0.19989094, -1.19965231, 0.25580785, 4.48294306, -25.04352951, -140.04260254, 0.00000000, 0.00000000, 0.00000000, 112.06501770, 19.97581291, 107.94394684, 1.00000000, 0.00000000, 0.00000000, 0.00000000, 0.13313887, 0.32544380, 0.09746795, 0.00000000, 0.00000000, 0.00000000, 0.00000000
1, 2.2600, 226, 0.29556584, -1.19520974, 0.23936023, 6.93404293, -29.69857788, -142.57734680, 0.00000000, 0.00000000, 0.00000000, 112.23329926, 21.40833664, 108.22457123, 1.00000000, 0.00000000, 0.00000000, 0.00000000, 0.06057388, 0.32991016, 0.11330236, 0.00000000, 0.00000000, 0.00000000, 0.00000000
1, 2.2700, 227, 0.13231188, -1.20740902, 0.28267619, 10.18481827, -36.62815094, -142.03387451, 0.00000000, 0.00000000, 0.00000000, 112.41665649, 22.86136818, 108.44107819, 1.00000000, 0.00000000, 0.00000000, 0.00000000, 0.24743614, 0.35179567, 0.06898595, 0.00000000, 0.00000000, 0.00000000, 0.00000000
1, 2.2800, 228, 0.22305156, -1.28264439, 0.37311655, 13.32506561, -45.50983810, -139.04466248, 0.00000000, 0.00000000, 0.00000000, 112.58692932, 24.30352020, 108.56723785, 1.00000000, 0.00000000, 0.00000000, 0.00000000, 0.17996763, 0.43732145, -0.02246732, 0.00000000, 0.00000000, 0.00000000, 0.00000000
1, 2.2900, 229, 0.29669133, -1.46668339, 0.41101626, 14.45761490, -58.57295990, -138.70506287, 0.00000000, 0.00000000, 0.00000000, 112.72812653, 25.80919266, 108.56042480, 1.00000000, 0.00000000, 0.00000000, 0.00000000, 0.12968507, 0.63213795, -0.06218676, 0.00000000, 0.00000000, 0.00000000, 0.00000000
1, 2.3000, 230, 0.05056325, -1.58256400, 0.49699515, 12.86266708, -75.31291962, -135.12057495, 0.00000000, 0.00000000, 0.00000000, 112.77047729, 27.34651375, 108.36798859, 1.00000000, 0.00000000, 0.00000000, 0.00000000, 0.39982110, 0.75925338, -0.15165877, 0.00000000, 0.00000000, 0.00000000, 0.00000000
1, 2.3100, 231, 0.09423722, -1.62428212, 0.49136072, 17.84214401, -91.82766724, -131.64889526, 0.00000000, 0.00000000, 0.00000000, 112.76806641, 28.91586113, 107.98556519, 1.00000000, 0.00000000, 0.00000000, 0.00000000, 0.38020131, 0.81268018, -0.15055108, 0.00000000, 0.00000000, 0.00000000, 0.00000000
1, 2.3200, 232, 0.09856922, -1.81199288, 0.41734454, 11.86070442, -125.11217499, -124.02346802, 0.00000000, 0.00000000, 0.00000000, 112.49906158, 30.54227066, 107.20578766, 1.00000000, 0.00000000, 0.00000000, 0.00000000, 0.40030438, 1.01209474, -0.08384398, 0.00000000, 0.00000000, 0.00000000, 0.00000000
1, 2.3300, 233, -0.18726458, -1.96460891, 0.42392093, -0.43336082, -158.72630310, -120.41946411, 0.00000000, 0.00000000, 0.00000000, 111.86872864, 32.23745346, 106.01624298, 1.00000000, 0.00000000, 0.00000000, 0.00000000, 0.71125227, 1.17563343, -0.10317506, 0.00000000, 0.00000000, 0.00000000, 0.00000000
1, 2.3400, 234, -0.28862312, -1.93499172, 0.44404802, -9.04675007, -170.07293701, -129.37239075, 0.00000000, 0.00000000, 0.00000000, 111.05371857, 34.06397629, 104.69145203, 1.00000000, 0.00000000, 0.00000000, 0.00000000, 0.83860320, 1.15733731, -0.13961104, 0.00000000, 0.00000000, 0.00000000, 0.00000000
1, 2.3500, 235, -0.36596495, -1.78772819, 0.58394116, -19.76118851, -158.70646667, -142.07411194, 0.00000000, 0.00000000, 0.00000000, 110.16660309, 35.95270920, 103.48876190, 1.00000000, 0.00000000, 0.00000000, 0.00000000, 0.94296461, 1.02277684, -0.29789388, 0.00000000, 0.00000000, 0.00000000, 0.00000000
1, 2.3600, 236, -0.45071661, -1.60126877, 0.79161531, -24.35677338, -132.27334595, -153.99064636, 0.00000000, 0.00000000, 0.00000000, 109.38055420, 37.84952545, 102.58392334, 1.00000000, 0.00000000, 0.00000000, 0.00000000, 1.05445135, 0.85063642, -0.52335930, 0.00000000, 0.00000000, 0.00000000, 0.00000000
1, 2.3700, 237, -0.52892303, -1.49797344, 0.89120215, -29.45001602, -97.44987488, -166.53712463, 0.00000000, 0.00000000, 0.00000000, 108.78466797, 39.74218750, 102.10085297, 1.00000000, 0.00000000, 0.00000000, 0.00000000, 1.15871263, 0.76348007, -0.63862491, 0.00000000, 0.00000000, 0.00000000, 0.00000000
1, 2.3800, 238, -0.46840614, -1.53371954, 0.97608006, -29.36142540, -53.31300735, -174.32997131, 0.00000000, 0.00000000, 0.00000000, 108.54907227, 41.53424835, 102.16431427, 1.00000000, 0.00000000, 0.00000000, 0.00000000, 1.12283409, 0.81721723, -0.73468345, 0.00000000, 0.00000000, 0.00000000, 0.00000000
1, 2.3900, 239, -0.46455070, -1.54648733, 0.92852432, -50.79636383, -21.62233353, -177.08883667, 0.00000000, 0.00000000, 0.00000000, 108.36746216, 43.28263092, 102.64682007, 1.00000000, 0.00000000, 0.00000000, 0.00000000, 1.14182639, 0.84853500, -0.69595683, 0.00000000, 0.00000000, 0.00000000, 0.00000000
1, 2.4000, 240, -0.45294908, -1.41047704, 0.88081074, -62.80995178, 23.21658897, -180.63046265, 0.00000000, 0.00000000, 0.00000000, 108.50746155, 44.92307281, 103.74925232, 1.00000000, 0.00000000, 0.00000000, 0.00000000, 1.15156221, 0.73171300, -0.65463442, 0.00000000, 0.00000000, 0.00000000, 0.00000000
1, 2.4100, 241, -0.51831818, -1.29809248, 0.64683402, -65.50123596, 82.42426300, -171.44740295, 0.00000000, 0.00000000, 0.00000000, 109.21704865, 46.27954865, 105.65679932, 1.00000000, 0.00000000, 0.00000000, 0.00000000, 1.23519683, 0.63853502, -0.42095584, 0.00000000, 0.00000000, 0.00000000, 0.00000000
1, 2.4200, 242, -0.17126989, -1.11408699, 0.22146381, -63.45783615, 75.05088043, -153.41271973, 0.00000000, 0.00000000, 0.00000000, 109.88523102, 47.47361374, 107.44266510, 1.00000000, 0.00000000, 0.00000000, 0.00000000, 0.90295118, 0.47226775, 0.00804171, 0.00000000, 0.00000000, 0.00000000, 0.00000000
1, 2.4300, 243, 0.75173062, -0.62236416, 0.43191558, -76.70299530, 74.47114563, -149.91513062, 0.00000000, 0.00000000, 0.00000000, 110.49490356, 48.64344406, 109.26409149, 1.00000000, 0.00000000, 0.00000000, 0.00000000, -0.00630028, -0.00303074, -0.20131253, 0.00000000, 0.00000000, 0.00000000, 0.00000000
1, 2.4400, 244, 1.35895288, -0.27475774, 0.62656301, -42.75744629, 33.20925140, -128.47061157, 0.00000000, 0.00000000, 0.00000000, 110.95156097, 49.72792435, 110.43336487, 1.00000000, 0.00000000, 0.00000000, 0.00000000, -0.60042536, -0.33448416, -0.39541054, 0.00000000, 0.00000000, 0.00000000, 0.00000000
1, 2.4500, 245, 1.00165546, -0.66174877, 0.82411462, 4.44201231, 27.37804413, -87.99406433, 0.00000000, 0.00000000, 0.00000000, 111.68396759, 50.44804001, 111.32955933, 1.00000000, 0.00000000, 0.00000000, 0.00000000, -0.23312359, 0.06607971, -0.59061623, 0.00000000, 0.00000000, 0.00000000, 0.00000000
1, 2.4600, 246, 0.01920732, -0.74417770, 0.65063584, -38.96965027, 30.10496902, -39.09789658, 0.00000000, 0.00000000, 0.00000000, 111.81093597, 50.69918823, 111.99839783, 1.00000000, 0.00000000, 0.00000000, 0.00000000, 0.75383437, 0.15532666, -0.41471252, 0.00000000, 0.00000000, 0.00000000, 0.00000000
1, 2.4700, 247, -0.43356743, -0.56720710, 0.37837359, -45.01043320, 7.36146545, -3.87380242, 0.00000000, 0.00000000, 0.00000000, 111.46212006, 50.70796204, 112.12924957, 1.00000000, 0.00000000, 0.00000000, 0.00000000, 1.20768619, -0.02139050, -0.14536767, 0.00000000, 0.00000000, 0.00000000, 0.00000000
1, 2.4800, 248, -0.50275815, -0.56834793, 0.25556275, -41.38591003, 9.33266640, 21.54884338, 0.00000000, 0.00000000, 0.00000000, 111.04435730, 50.24252319, 112.06150818, 1.00000000, 0.00000000, 0.00000000, 0.00000000, 1.27461028, -0.02434029, -0.02544408, 0.00000000, 0.00000000, 0.00000000, 0.00000000
1, 2.4900, 249, -0.36334953, -0.50023830, 0.01481565, -55.97032928, 11.77727795, 41.09273911, 0.00000000, 0.00000000, 0.00000000, 110.44252014, 49.81649017, 112.00650787, 1.00000000, 0.00000000, 0.00000000, 0.00000000, 1.12927139, -0.10126767, 0.21222103, 0.00000000, 0.00000000, 0.00000000, 0.00000000
1, 2.5000, 250, -0.03322430, -0.34492278, -0.04910864, -55.26517487, 13.56116295, 53.75702286, 0.00000000, 0.00000000, 0.00000000, 109.82234192, 49.26506805, 111.91775513, 1.00000000, 0.00000000, 0.00000000, 0.00000000, 0.79337877, -0.26543331, 0.27186257, 0.00000000, 0.00000000, 0.00000000, 0.00000000
1, 2.5100, 251, 0.23822038, -0.24744304, -0.03378303, -49.81652451, 3.84763169, 75.46726227, 0.00000000, 0.00000000, 0.00000000, 109.07801056, 48.54048920, 111.59085846, 1.00000000, 0.00000000, 0.00000000, 0.00000000, 0.51450092, -0.37358800, 0.25221339, 0.00000000, 0.00000000, 0.00000000, 0.00000000
1, 2.5200, 252, 0.20382619, -0.16688858, 0.08499687, -47.97457504, -7.55572939, 103.11643982, 0.00000000, 0.00000000, 0.00000000, 108.15239716, 47.58727646, 110.99147797, 1.00000000, 0.00000000, 0.00000000, 0.00000000, 0.53888083, -0.46808460, 0.12751907, 0.00000000, 0.00000000, 0.00000000, 0.00000000
1, 2.5300, 253, 0.03852955, -0.14464860, 0.16355211, -45.27329636, -5.49235821, 126.83655548, 0.00000000, 0.00000000, 0.00000000, 107.27459717, 46.36285019, 110.33292389, 1.00000000, 0.00000000, 0.00000000, 0.00000000, 0.69105947, -0.50727189, 0.04297473, 0.00000000, 0.00000000, 0.00000000, 0.00000000
1, 2.5400, 254, -0.05444657, -0.15894842, 0.22588375, -39.45083237, 5.20015001, 147.69784546, 0.00000000, 0.00000000, 0.00000000, 106.49224091, 44.93441772, 109.79093170, 1.00000000, 0.00000000, 0.00000000, 0.00000000, 0.76754141, -0.51226687, -0.02362553, 0.00000000, 0.00000000, 0.00000000, 0.00000000
1, 2.5500, 255, -0.12639147, -0.21986859, 0.24763075, -32.77779770, 22.55783653, 168.08482361, 0.00000000, 0.00000000, 0.00000000, 105.91960144, 43.25746155, 109.43968201, 1.00000000, 0.00000000, 0.00000000, 0.00000000, 0.81984568, -0.47226530, -0.04763372, 0.00000000, 0.00000000, 0.00000000, 0.00000000
1, 2.5600, 256, -0.14252876, -0.27872214, 0.23015153, -28.74714279, 41.87548828, 188.38728333, 0.00000000, 0.00000000, 0.00000000, 105.53408813, 41.33065796, 109.29457092, 1.00000000, 0.00000000, 0.00000000, 0.00000000, 0.81256038, -0.43598101, -0.02974119, 0.00000000, 0.00000000, 0.00000000, 0.00000000
1, 2.5700, 257, -0.09338784, -0.33441487, 0.17184363, -23.45753670, 54.76848984, 206.51611328, 0.00000000, 0.00000000, 0.00000000, 105.28208160, 39.19422913, 109.26776123, 1.00000000, 0.00000000, 0.00000000, 0.00000000, 0.73625988, -0.40409559, 0.03114919, 0.00000000, 0.00000000, 0.00000000, 0.00000000
1, 2.5800, 258, -0.07872073, -0.41684699, 0.15414061, -19.39900208, 58.85372543, 222.10638428, 0.00000000, 0.00000000, 0.00000000, 105.08337402, 36.85231018, 109.24257660, 1.00000000, 0.00000000, 0.00000000, 0.00000000, 0.69102424, -0.34620428, 0.05250620, 0.00000000, 0.00000000, 0.00000000, 0.00000000
1, 2.5900, 259, -0.05427282, -0.49556234, 0.14302507, -18.45433426, 68.87512207, 239.18713379, 0.00000000, 0.00000000, 0.00000000, 104.93115997, 34.36373901, 109.29909515, 1.00000000, 0.00000000, 0.00000000, 0.00000000, 0.63227165, -0.29265884, 0.06786494, 0.00000000, 0.00000000, 0.00000000, 0.00000000
1, 2.6000, 260, 0.02943654, -0.53364408, 0.15989885, -14.30377483, 83.06568146, 254.89538574, 0.00000000, 0.00000000, 0.00000000, 104.88372040, 31.68693542, 109.47473907, 1.00000000, 0.00000000, 0.00000000, 0.00000000, 0.51081926, -0.27948779, 0.05635824, 0.00000000, 0.00000000, 0.00000000, 0.00000000
1, 2.6100, 261, 0.08410557, -0.58299154, 0.22351418, -9.25093555, 89.24342346, 270.60314941, 0.00000000, 0.00000000, 0.00000000, 104.88900757, 28.84249496, 109.66854858, 1.00000000, 0.00000000, 0.00000000, 0.00000000, 0.41466179, -0.25454339, -0.00086835, 0.00000000, 0.00000000, 0.00000000, 0.00000000
1, 2.6200, 262, 0.07569272, -0.65584207, 0.26820800, -6.45085621, 89.48594666, 285.06103516, 0.00000000, 0.00000000, 0.00000000, 104.89318085, 25.85769463, 109.81758118, 1.00000000, 0.00000000, 0.00000000, 0.00000000, 0.37805724, -0.20524181, -0.03922940, 0.00000000, 0.00000000, 0.00000000, 0.00000000
1, 2.6300, 263, 0.01281581, -0.76897025, 0.29117143, -5.01357365, 87.29203796, 300.06686401, 0.00000000, 0.00000000, 0.00000000, 104.88319397, 22.70614243, 109.88763428, 1.00000000, 0.00000000, 0.00000000, 0.00000000, 0.39240634, -0.11443120, -0.05631566, 0.00000000, 0.00000000, 0.00000000, 0.00000000
1, 2.6400, 264, -0.04288208, -0.91618484, 0.28812656, -7.55579567, 87.50907135, 313.81985474, 0.00000000, 0.00000000, 0.00000000, 104.82341003, 19.44852638, 109.93177032, 1.00000000, 0.00000000, 0.00000000, 0.00000000, 0.39599448, 0.01197925, -0.04840070, 0.00000000, 0.00000000, 0.00000000, 0.00000000
1, 2.6500, 265, 0.04457981, -1.06274259, 0.24447185, -9.60579967, 96.16147614, 324.48141479, 0.00000000, 0.00000000, 0.00000000, 104.75948334, 16.06582260, 110.03837585, 1.00000000, 0.00000000, 0.00000000, 0.00000000, 0.25348815, 0.13991503, -0.00101804, 0.00000000, 0.00000000, 0.00000000, 0.00000000
1, 2.6600, 266, 0.29677823, -1.21537960, 0.24712378, -0.18983942, 115.80585480, 332.08743286, 0.00000000, 0.00000000, 0.00000000, 104.82598114, 12.55943489, 110.31941986, 1.00000000, 0.00000000, 0.00000000, 0.00000000, -0.05683215, 0.27689600, 0.00062351, 0.00000000, 0.00000000, 0.00000000, 0.00000000
1, 2.6700, 267, 0.49240255, -1.46468639, 0.27407196, 13.17457390, 138.88227844, 341.68045044, 0.00000000, 0.00000000, 0.00000000, 105.04514313, 8.90024376, 110.78945160, 1.00000000, 0.00000000, 0.00000000, 0.00000000, -0.31391805, 0.51422930, -0.02019937, 0.00000000, 0.00000000, 0.00000000, 0.00000000
1, 2.6800, 268, 0.56977081, -1.81412446, 0.53386515, 16.26720810, 125.07407379, 348.89941406, 0.00000000, 0.00000000, 0.00000000, 105.24581909, 5.21037054, 111.08656311, 1.00000000, 0.00000000, 0.00000000, 0.00000000, -0.45499992, 0.85555100, -0.27378812, 0.00000000, 0.00000000, 0.00000000, 0.00000000
1, 2.6900, 269, 0.69782871, -2.04042196, 0.64686477, 4.67521572, 109.31453705, 349.62545776, 0.00000000, 0.00000000, 0.00000000, 105.30154419, 1.54970658, 111.21979523, 1.00000000, 0.00000000, 0.00000000, 0.00000000, -0.64692438, 1.07722318, -0.38354123, 0.00000000, 0.00000000, 0.00000000, 0.00000000
1, 2.7000, 270, 0.94938445, -1.95541811, 0.74322134, -3.09489918, 84.89981079, 354.05255127, 0.00000000, 0.00000000, 0.00000000, 105.27259064, -2.08931279, 111.10482025, 1.00000000, 0.00000000, 0.00000000, 0.00000000, -0.96200848, 0.99104440, -0.47957635, 0.00000000, 0.00000000, 0.00000000, 0.00000000
1, 2.7100, 271, 1.04983056, -1.70594454, 0.70690012, -8.84447479, 47.33106995, 360.41717529, 0.00000000, 0.00000000, 0.00000000, 105.21951294, -5.69111824, 110.61280060, 1.00000000, 0.00000000, 0.00000000, 0.00000000, -1.12564230, 0.74400187, -0.44496077, 0.00000000, 0.00000000, 0.00000000, 0.00000000
1, 2.7200, 272, 0.92709482, -1.61558771, 0.72223920, 0.35914487, 27.58102417, 357.18432617, 0.00000000, 0.00000000, 0.00000000, 105.31123352, -9.20960903, 109.93325806, 1.00000000, 0.00000000, 0.00000000, 0.00000000, -1.06442893, 0.66016030, -0.46146312, 0.00000000, 0.00000000, 0.00000000, 0.00000000
1, 2.7300, 273, 0.76270813, -1.55262959, 0.74318516, 11.89872551, 37.41892624, 346.93954468, 0.00000000, 0.00000000, 0.00000000, 105.54350281, -12.63491344, 109.35401154, 1.00000000, 0.00000000, 0.00000000, 0.00000000, -0.95974576, 0.60775054, -0.48222262, 0.00000000, 0.00000000, 0.00000000, 0.00000000
1, 2.7400, 274, 0.75469363, -1.79037857, 0.81096125, 35.50082016, 49.93734741, 322.82440186, 0.00000000, 0.00000000, 0.00000000, 105.99903870, -15.87744427, 108.94560242, 1.00000000, 0.00000000, 0.00000000, 0.00000000, -1.00816655, 0.85976434, -0.54741102, 0.00000000, 0.00000000, 0.00000000, 0.00000000
1, 2.7500, 275, 1.09386134, -2.22434759, 0.76289433, 33.71921921, 37.77206802, 293.33923340, 0.00000000, 0.00000000, 0.00000000, 106.48020172, -18.79918480, 108.46538544, 1.00000000, 0.00000000, 0.00000000, 0.00000000, -1.39834952, 1.31027341, -0.49539906, 0.00000000, 0.00000000, 0.00000000, 0.00000000
1, 2.7600, 276, 1.40032005, -2.06225133, 0.45585310, 4.52507877, 12.75669670, 271.10769653, 0.00000000, 0.00000000, 0.00000000, 106.76632690, -21.43312263, 107.76834869, 1.00000000, 0.00000000, 0.00000000, 0.00000000, -1.75004947, 1.16488767, -0.18702605, 0.00000000, 0.00000000, 0.00000000, 0.00000000
1, 2.7700, 277, 1.46272933, -1.57660997, 0.27845594, -4.13106108, 8.22614384, 242.91662598, 0.00000000, 0.00000000, 0.00000000, 106.98534393, -23.78158188, 107.08993530, 1.00000000, 0.00000000, 0.00000000, 0.00000000, -1.85221112, 0.69543964, -0.01066016, 0.00000000, 0.00000000, 0.00000000, 0.00000000
1, 2.7800, 278, 1.57107890, -1.27184415, 0.42788216, 3.83445954, 27.02067566, 199.15280151, 0.00000000, 0.00000000, 0.00000000, 107.17598724, -25.73493195, 106.72772217, 1.00000000, 0.00000000, 0.00000000, 0.00000000, -1.99443686, 0.40599710, -0.16144177, 0.00000000, 0.00000000, 0.00000000, 0.00000000
1, 2.7900, 279, 1.88412917, -1.04162991, 0.56661844, 9.02275467, 12.79623318, 148.03405762, 0.00000000, 0.00000000, 0.00000000, 107.42510223, -27.18633080, 106.37251282, 1.00000000, 0.00000000, 0.00000000, 0.00000000, -2.33329153, 0.18873706, -0.30057207, 0.00000000, 0.00000000, 0.00000000, 0.00000000
1, 2.8000, 280, 2.29183054, -0.81049865, 0.46027812, 8.31920433, -18.44649887, 94.07443237, 0.00000000, 0.00000000, 0.00000000, 107.74939728, -28.02736664, 105.85342407, 1.00000000, 0.00000000, 0.00000000, 0.00000000, -2.75755858, -0.03291273, -0.19243848, 0.00000000, 0.00000000, 0.00000000, 0.00000000
1, 2.8100, 281, 2.24850249, -0.64060038, 0.30036455, 16.54000473, -53.92131424, 44.52294159, 0.00000000, 0.00000000, 0.00000000, 108.26338196, -28.28419113, 105.11588287, 1.00000000, 0.00000000, 0.00000000, 0.00000000, -2.72156048, -0.19704212, -0.02729956, 0.00000000, 0.00000000, 0.00000000, 0.00000000
1, 2.8200, 282, 1.77903497, -0.75442517, 0.28269550, 24.71866989, -73.49916840, -10.10784435, 0.00000000, 0.00000000, 0.00000000, 108.86616516, -27.95437622, 104.36261749, 1.00000000, 0.00000000, 0.00000000, 0.00000000, -2.25042295, -0.08120672, -0.00073457, 0.00000000, 0.00000000, 0.00000000, 0.00000000
1, 2.8300, 283, 1.51596022, -0.93784779, 0.27050275, 13.03787518, -75.18816376, -67.29451752, 0.00000000, 0.00000000, 0.00000000, 109.25064087, -27.02010155, 103.81118011, 1.00000000, 0.00000000, 0.00000000, 0.00000000, -1.97659779, 0.09928690, 0.02036177, 0.00000000, 0.00000000, 0.00000000, 0.00000000
1, 2.8400, 284, 1.25736630, -1.15745962, 0.30268285, 4.57709885, -64.15873718, -119.61088562, 0.00000000, 0.00000000, 0.00000000, 109.40068817, -25.67904472, 103.57749939, 1.00000000, 0.00000000, 0.00000000, 0.00000000, -1.69908249, 0.31106472, -0.00526785, 0.00000000, 0.00000000, 0.00000000, 0.00000000
1, 2.8500, 285, 0.58818507, -1.17721272, 0.52342331, -18.78952408, -50.04457474, -156.90415955, 0.00000000, 0.00000000, 0.00000000, 109.19229126, -24.03266716, 103.62862396, 1.00000000, 0.00000000, 0.00000000, 0.00000000, -1.00542867, 0.31950170, -0.22313634, 0.00000000, 0.00000000, 0.00000000, 0.00000000
1, 2.8600, 286, -2.26430011, -1.45338786, 0.51785427, -18.50581551, -15.68529320, -179.61895752, 0.00000000, 0.00000000, 0.00000000, 108.82010651, -22.28359604, 104.10488129, 1.00000000, 0.00000000, 0.00000000, 0.00000000, 1.87499595, 0.58247137, -0.21806936, 0.00000000, 0.00000000, 0.00000000, 0.00000000
1, 2.8700, 287, -3.68196392, -1.38885891, 1.06382442, 17.12042999, 55.66838074, -85.40083313, 0.00000000, 0.00000000, 0.00000000, 108.67014313, -21.65279388, 104.96801758, 1.00000000, 0.00000000, 0.00000000, 0.00000000, 3.31055784, 0.50922197, -0.76668668, 0.00000000, 0.00000000, 0.00000000, 0.00000000
1, 2.8800, 288, -1.20691812, -1.02376211, 0.22472069, 26.96489525, 62.01877594, -31.19906998, 0.00000000, 0.00000000, 0.00000000, 108.54416656, -21.51238251, 105.90859985, 1.00000000, 0.00000000, 0.00000000, 0.00000000, 0.83914924, 0.14270149, 0.07272954, 0.00000000, 0.00000000, 0.00000000, 0.00000000
1, 2.8900, 289, 1.25470364, -1.24997616, -0.73562479, 10.43028164, 52.68822098, -62.76266479, 0.00000000, 0.00000000, 0.00000000, 108.37545013, -21.08427238, 106.65866089, 1.00000000, 0.00000000, 0.00000000, 0.00000000, -1.61783290, 0.36623535, 1.03080678, 0.00000000, 0.00000000, 0.00000000, 0.00000000
1, 2.9000, 290, 1.04343069, -1.95960259, -0.16314828, -6.12978172, 46.90020370, -128.89750671, 0.00000000, 0.00000000, 0.00000000, 107.99636841, -20.00559044, 107.56346130, 1.00000000, 0.00000000, 0.00000000, 0.00000000, -1.39276469, 1.06906021, 0.45446563, 0.00000000, 0.00000000, 0.00000000, 0.00000000
1, 2.9100, 291, -0.34272692, -1.66953254, 0.43413886, -4.56313467, 48.08504486, -137.38980103, 0.00000000, 0.00000000, 0.00000000, 107.64092255, -18.84523010, 108.49539948, 1.00000000, 0.00000000, 0.00000000, 0.00000000, 0.01280344, 0.77075255, -0.14550254, 0.00000000, 0.00000000, 0.00000000, 0.00000000
1, 2.9200, 292, 0.23298100, -1.41367865, -0.39302731, -6.84124470, 26.72342682, -110.29758453, 0.00000000, 0.00000000, 0.00000000, 107.37739563, -17.87338257, 109.11283875, 1.00000000, 0.00000000, 0.00000000, 0.00000000, -0.54571265, 0.50740820, 0.67736876, 0.00000000, 0.00000000, 0.00000000, 0.00000000
1, 2.9300, 293, 0.67071044, -1.49651086, -0.38581848, 11.19144630, -14.74099159, -84.30342865, 0.00000000, 0.00000000, 0.00000000, 107.39775085, -16.95000076, 109.32366943, 1.00000000, 0.00000000, 0.00000000, 0.00000000, -0.96839881, 0.58558130, 0.67142034, 0.00000000, 0.00000000, 0.00000000, 0.00000000
1, 2.9400, 294, 0.26591545, -1.09175146, -0.03395255, 21.14455986, -54.51040649, -69.07486725, 0.00000000, 0.00000000, 0.00000000, 107.70141602, -16.12703514, 108.99852753, 1.00000000, 0.00000000, 0.00000000, 0.00000000, -0.54881573, 0.17732827, 0.32339859, 0.00000000, 0.00000000, 0.00000000, 0.00000000
1, 2.9500, 295, -0.07207515, -1.06106567, 0.45092267, 29.92875290, -53.57019043, -67.40388489, 0.00000000, 0.00000000, 0.00000000, 108.08623505, -15.32112885, 108.68406677, 1.00000000, 0.00000000, 0.00000000, 0.00000000, -0.19725388, 0.14489084, -0.15416183, 0.00000000, 0.00000000, 0.00000000, 0.00000000
1, 2.9600, 296, -0.14927191, -1.05278361, 0.83731478, 28.73692703, -25.35908508, -79.27111053, 0.00000000, 0.00000000, 0.00000000, 108.37201691, -14.48898125, 108.69152832, 1.00000000, 0.00000000, 0.00000000, 0.00000000, -0.10624237, 0.13475956, -0.53412211, 0.00000000, 0.00000000, 0.00000000, 0.00000000
1, 2.9700, 297, -0.14482823, -0.90259075, 0.90721422, 18.83987236, -8.92884254, -85.06349182, 0.00000000, 0.00000000, 0.00000000, 108.51434326, -13.65382671, 108.88167572, 1.00000000, 0.00000000, 0.00000000, 0.00000000, -0.09646045, -0.01788454, -0.59982485, 0.00000000, 0.00000000, 0.00000000, 0.00000000
1, 2.9800, 298, 0.07780713, -0.71914005, 0.78069162, 24.22826385, 5.05554199, -76.77495575, 0.00000000, 0.00000000, 0.00000000, 108.82107544, -12.84426498, 109.00787354, 1.00000000, 0.00000000, 0.00000000, 0.00000000, -0.30576026, -0.20338988, -0.46931276, 0.00000000, 0.00000000, 0.00000000, 0.00000000
1, 2.9900, 299, -0.01417531, -0.75798607, 0.51313359, 15.47222328, -21.91136169, -66.66121674, 0.00000000, 0.00000000, 0.00000000, 108.97361755, -12.14256859, 109.01679993, 1.00000000, 0.00000000, 0.00000000, 0.00000000, -0.20071374, -0.16588217, -0.19646668, 0.00000000, 0.00000000, 0.00000000, 0.00000000
1, 3.0000, 300, -0.20174298, -0.84638435, 0.41108635, 12.40813637, -36.77158356, -61.14667511, 0.00000000, 0.00000000, 0.00000000, 109.12848663, -11.44456863, 108.86558533, 1.00000000, 0.00000000, 0.00000000, 0.00000000, -0.00108743, -0.07910150, -0.09120568, 0.00000000, 0.00000000, 0.00000000, 0.00000000
1, 3.0100, 301, 0.00157792, -0.85948730, 0.38777366, 10.83061218, -48.77271271, -57.76902390, 0.00000000, 0.00000000, 0.00000000, 109.28967285, -10.73852253, 108.59000397, 1.00000000, 0.00000000, 0.00000000, 0.00000000, -0.19249898, -0.06733273, -0.06444548, 0.00000000, 0.00000000, 0.00000000, 0.00000000
1, 3.0200, 302, 0.02545511, -0.94382870, 0.34205014, 10.60273552, -67.45176697, -57.05899811, 0.00000000, 0.00000000, 0.00000000, 109.47729492, -9.97638416, 108.13571930, 1.00000000, 0.00000000, 0.00000000, 0.00000000, -0.20363595, 0.01574571, -0.01509621, 0.00000000, 0.00000000, 0.00000000, 0.00000000
1, 3.0300, 303, -0.12149160, -1.02488720, 0.23746926, 9.61523056, -60.34838486, -56.59568405, 0.00000000, 0.00000000, 0.00000000, 109.60634613, -9.24071789, 107.79027557, 1.00000000, 0.00000000, 0.00000000, 0.00000000, -0.04376063, 0.09562053, 0.09289726, 0.00000000, 0.00000000, 0.00000000, 0.00000000
1, 3.0400, 304, -0.17926358, -1.02390289, 0.19203494, 13.12703133, -34.88994598, -58.01844406, 0.00000000, 0.00000000, 0.00000000, 109.75867462, -8.57696152, 107.65550995, 1.00000000, 0.00000000, 0.00000000, 0.00000000, 0.02590011, 0.09358747, 0.14110473, 0.00000000, 0.00000000, 0.00000000, 0.00000000
1, 3.0500, 305, -0.10856777, -1.00722301, 0.24963191, 14.36614990, -15.18314743, -60.12866592, 0.00000000, 0.00000000, 0.00000000, 109.89363098, -7.95985460, 107.71723175, 1.00000000, 0.00000000, 0.00000000, 0.00000000, -0.03381640, 0.07620017, 0.08639518, 0.00000000, 0.00000000, 0.00000000, 0.00000000
1, 3.0600, 306, 0.07203717, -1.01745617, 0.31815869, 13.91704845, -0.15297048, -57.28610229, 0.00000000, 0.00000000, 0.00000000, 110.00662994, -7.42085123, 107.91302490, 1.00000000, 0.00000000, 0.00000000, 0.00000000, -0.20459585, 0.08586198, 0.02029903, 0.00000000, 0.00000000, 0.00000000, 0.00000000
1, 3.0700, 307, 0.09076392, -1.05645239, 0.35902259, 8.21426868, -6.98807001, -53.16708374, 0.00000000, 0.00000000, 0.00000000, 110.07405853, -6.89742517, 108.03050995, 1.00000000, 0.00000000, 0.00000000, 0.00000000, -0.21428050, 0.12425961, -0.01879667, 0.00000000, 0.00000000, 0.00000000, 0.00000000
1, 3.0800, 308, 0.09937901, -1.05057120, 0.38243410, 7.10625982, -15.51073647, -47.11179733, 0.00000000, 0.00000000, 0.00000000, 110.14395905, -6.31562471, 108.05548096, 1.00000000, 0.00000000, 0.00000000, 0.00000000, -0.21367164, 0.11772822, -0.04077287, 0.00000000, 0.00000000, 0.00000000, 0.00000000
1, 3.0900, 309, 0.19141500, -1.00814462, 0.37712905, 6.57274485, -27.02082062, -40.36379242, 0.00000000, 0.00000000, 0.00000000, 110.22178650, -5.84352398, 107.94049835, 1.00000000, 0.00000000, 0.00000000, 0.00000000, -0.29626834, 0.07478616, -0.03384729, 0.00000000, 0.00000000, 0.00000000, 0.00000000
1, 3.1000, 310, -0.07161339, -0.95875347, 0.40259540, 3.32464409, -43.50421906, -36.82604599, 0.00000000, 0.00000000, 0.00000000, 110.28250122, -5.34743643, 107.65847778, 1.00000000, 0.00000000, 0.00000000, 0.00000000, -0.02475514, 0.02498947, -0.05793295, 0.00000000, 0.00000000, 0.00000000, 0.00000000
1, 3.1100, 311, -0.08599860, -0.88875151, 0.41109002, 5.08674955, -39.11008835, -34.76591110, 0.00000000, 0.00000000, 0.00000000, 110.35543060, -4.88560152, 107.41143036, 1.00000000, 0.00000000, 0.00000000, 0.00000000, -0.00215546, -0.04532073, -0.06506571, 0.00000000, 0.00000000, 0.00000000, 0.00000000
1, 3.1200, 312, -0.05934235, -0.88777971, 0.38387752, 4.44608307, -37.35174942, -35.64729309, 0.00000000, 0.00000000, 0.00000000, 110.41827393, -4.42133856, 107.18475342, 1.00000000, 0.00000000, 0.00000000, 0.00000000, -0.02078146, -0.04651162, -0.03649490, 0.00000000, 0.00000000, 0.00000000, 0.00000000
1, 3.1300, 313, -0.09484098, -0.86768502, 0.41881683, 6.08902454, -30.62668991, -36.06059265, 0.00000000, 0.00000000, 0.00000000, 110.52888489, -3.96296287, 106.98400116, 1.00000000, 0.00000000, 0.00000000, 0.00000000, 0.02269489, -0.06672004, -0.06999505, 0.00000000, 0.00000000, 0.00000000, 0.00000000
1, 3.1400, 314, 0.08013465, -0.88360560, 0.39982355, 6.54841232, -23.40703583, -38.93845367, 0.00000000, 0.00000000, 0.00000000, 110.59976959, -3.51615453, 106.90146637, 1.00000000, 0.00000000, 0.00000000, 0.00000000, -0.14442836, -0.05067115, -0.04912660, 0.00000000, 0.00000000, 0.00000000, 0.00000000
1, 3.1500, 315, 0.04140903, -0.92608994, 0.40267962, 5.15561485, -24.41362190, -39.58074570, 0.00000000, 0.00000000, 0.00000000, 110.65641785, -3.05971313, 106.81227875, 1.00000000, 0.00000000, 0.00000000, 0.00000000, -0.09777527, -0.00825934, -0.05081425, 0.00000000, 0.00000000, 0.00000000, 0.00000000
1, 3.1600, 316, 0.00117859, -0.95498359, 0.39501897, 4.23929501, -26.69005013, -38.26642990, 0.00000000, 0.00000000, 0.00000000, 110.70443726, -2.60744953, 106.69756317, 1.00000000, 0.00000000, 0.00000000, 0.00000000, -0.04961262, 0.02055664, -0.04217980, 0.00000000, 0.00000000, 0.00000000, 0.00000000
1, 3.1700, 317, 0.11469612, -0.99201381, 0.35488039, 4.60209560, -35.19551086, -33.97886658, 0.00000000, 0.00000000, 0.00000000, 110.75908661, -2.16508293, 106.48849487, 1.00000000, 0.00000000, 0.00000000, 0.00000000, -0.15534933, 0.05757838, -0.00108232, 0.00000000, 0.00000000, 0.00000000, 0.00000000
1, 3.1800, 318, 0.15862566, -1.02325284, 0.30088836, 4.62504292, -49.84011459, -29.33952522, 0.00000000, 0.00000000, 0.00000000, 110.78767395, -1.67139685, 106.15846252, 1.00000000, 0.00000000, 0.00000000, 0.00000000, -0.19137184, 0.08886059, 0.05384078, 0.00000000, 0.00000000, 0.00000000, 0.00000000
1, 3.1900, 319, 0.07940685, -1.02421844, 0.28303936, 5.99965811, -62.32687378, -26.66869926, 0.00000000, 0.00000000, 0.00000000, 110.85987854, -1.20057595, 105.67053986, 1.00000000, 0.00000000, 0.00000000, 0.00000000, -0.10344563, 0.08985606, 0.07246532, 0.00000000, 0.00000000, 0.00000000, 0.00000000
1, 3.2000, 320, 0.02950357, -0.99632633, 0.31749439, 7.88473558, -63.02708054, -27.01501083, 0.00000000, 0.00000000, 0.00000000, 110.94701385, -0.72334665, 105.17807007, 1.00000000, 0.00000000, 0.00000000, 0.00000000, -0.04525795, 0.06232853, 0.03942923, 0.00000000, 0.00000000, 0.00000000, 0.00000000
1, 3.2100, 321, -0.00074417, -0.97296965, 0.33364737, 7.29725027, -58.74618912, -28.96975327, 0.00000000, 0.00000000, 0.00000000, 111.02377319, -0.24247426, 104.73331451, 1.00000000, 0.00000000, 0.00000000, 0.00000000, -0.00665196, 0.03938662, 0.02462934, 0.00000000, 0.00000000, 0.00000000, 0.00000000
1, 3.2200, 322, -0.04107771, -0.97773242, 0.36535433, 7.50856161, -49.70875549, -32.13813782, 0.00000000, 0.00000000, 0.00000000, 111.09893799, 0.23607090, 104.38493347, 1.00000000, 0.00000000, 0.00000000, 0.00000000, 0.04207632, 0.04460208, -0.00582531, 0.00000000, 0.00000000, 0.00000000, 0.00000000
1, 3.2300, 323, -0.02897913, -0.99600464, 0.35577577, 5.46525192, -42.54880905, -35.07356644, 0.00000000, 0.00000000, 0.00000000, 111.13830566, 0.71083629, 104.12629700, 1.00000000, 0.00000000, 0.00000000, 0.00000000, 0.03829435, 0.06329359, 0.00472111, 0.00000000, 0.00000000, 0.00000000, 0.00000000
1, 3.2400, 324, 0.01872882, -0.97785205, 0.32946545, 3.03308845, -38.15357971, -38.22932816, 0.00000000, 0.00000000, 0.00000000, 111.16502380, 1.20504391, 103.90837860, 1.00000000, 0.00000000, 0.00000000, 0.00000000, -0.00095025, 0.04539330, 0.03136534, 0.00000000, 0.00000000, 0.00000000, 0.00000000
1, 3.2500, 325, 0.05480137, -0.94794643, 0.35406277, 2.67612886, -38.41633987, -39.08551788, 0.00000000, 0.00000000, 0.00000000, 111.18627930, 1.70827711, 103.69127655, 1.00000000, 0.00000000, 0.00000000, 0.00000000, -0.02828519, 0.01582211, 0.00709525, 0.00000000, 0.00000000, 0.00000000, 0.00000000
1, 3.2600, 326, 0.06698930, -0.92634964, 0.33223736, 1.47978497, -37.34152985, -41.38558960, 0.00000000, 0.00000000, 0.00000000, 111.19425964, 2.22912717, 103.49260712, 1.00000000, 0.00000000, 0.00000000, 0.00000000, -0.03154836, -0.00543237, 0.02903774, 0.00000000, 0.00000000, 0.00000000, 0.00000000
1, 3.2700, 327, -0.05368780, -0.93804872, 0.39382610, 1.88467193, -31.93247604, -44.45912170, 0.00000000, 0.00000000, 0.00000000, 111.20722961, 2.75909185, 103.35550690, 1.00000000, 0.00000000, 0.00000000, 0.00000000, 0.09838124, 0.00665720, -0.03257044, 0.00000000, 0.00000000, 0.00000000, 0.00000000
1, 3.2800, 328, -0.05352496, -0.93839383, 0.42657155, 2.48234677, -20.87588882, -48.22089767, 0.00000000, 0.00000000, 0.00000000, 111.25139618, 3.24030876, 103.31478119, 1.00000000, 0.00000000, 0.00000000, 0.00000000, 0.10718092, 0.00759304, -0.06501170, 0.00000000, 0.00000000, 0.00000000, 0.00000000
1, 3.2900, 329, -0.05895119, -0.94037604, 0.43072015, 2.36048412, -12.80805302, -51.60662460, 0.00000000, 0.00000000, 0.00000000, 111.27922821, 3.76768088, 103.38271332, 1.00000000, 0.00000000, 0.00000000, 0.00000000, 0.12122783, 0.01028855, -0.06870892, 0.00000000, 0.00000000, 0.00000000, 0.00000000
1, 3.3000, 330, 0.02309971, -0.91232628, 0.44733450, 3.58616018, -2.99697566, -54.44581985, 0.00000000, 0.00000000, 0.00000000, 111.32709503, 4.28582907, 103.55300140, 1.00000000, 0.00000000, 0.00000000, 0.00000000, 0.04824999, -0.01694036, -0.08488967, 0.00000000, 0.00000000, 0.00000000, 0.00000000
1, 3.3100, 331, 0.03993309, -0.86705238, 0.44968927, 2.74104142, 0.06461509, -57.51422882, 0.00000000, 0.00000000, 0.00000000, 111.37126923, 4.82127666, 103.76366425, 1.00000000, 0.00000000, 0.00000000, 0.00000000, 0.04061306, -0.06125940, -0.08672559, 0.00000000, 0.00000000, 0.00000000, 0.00000000
1, 3.3200, 332, -0.02362476, -0.83981484, 0.53055710, -0.22655374, 6.73702049, -60.33909988, 0.00000000, 0.00000000, 0.00000000, 111.39426422, 5.35854816, 104.04755402, 1.00000000, 0.00000000, 0.00000000, 0.00000000, 0.11351572, -0.08753864, -0.16733772, 0.00000000, 0.00000000, 0.00000000, 0.00000000
1, 3.3300, 333, 0.06761768, -0.83202201, 0.54425776, -1.05909157, 15.93717670, -63.30030441, 0.00000000, 0.00000000, 0.00000000, 111.47693634, 5.89813995, 104.37928772, 1.00000000, 0.00000000, 0.00000000, 0.00000000, 0.03156015, -0.09429942, -0.18082286, 0.00000000, 0.00000000, 0.00000000, 0.00000000
1, 3.3400, 334, 0.22352925, -0.90569633, 0.37777868, -4.84851694, 15.04091835, -66.02934265, 0.00000000, 0.00000000, 0.00000000, 111.46965790, 6.45750189, 104.76325226, 1.00000000, 0.00000000, 0.00000000, 0.00000000, -0.11479308, -0.01933703, -0.01379770, 0.00000000, 0.00000000, 0.00000000, 0.00000000
1, 3.3500, 335, 0.26706055, -1.00799847, 0.31587443, -3.28690529, 3.76823282, -67.59878540, 0.00000000, 0.00000000, 0.00000000, 111.47016144, 7.07281399, 105.04765320, 1.00000000, 0.00000000, 0.00000000, 0.00000000, -0.14801764, 0.08398402, 0.04746687, 0.00000000, 0.00000000, 0.00000000, 0.00000000
1, 3.3600, 336, 0.19550356, -1.06524384, 0.28038394, -5.93676949, -11.84149170, -71.00523376, 0.00000000, 0.00000000, 0.00000000, 111.43018341, 7.77696609, 105.19843292, 1.00000000, 0.00000000, 0.00000000, 0.00000000, -0.06483170, 0.14249790, 0.08218010, 0.00000000, 0.00000000, 0.00000000, 0.00000000
1, 3.3700, 337, 0.03326324, -1.04943180, 0.27976355, -5.98908567, -18.76049042, -71.80361938, 0.00000000, 0.00000000, 0.00000000, 111.38273621, 8.51394176, 105.28667450, 1.00000000, 0.00000000, 0.00000000, 0.00000000, 0.10997559, 0.12796591, 0.08130481, 0.00000000, 0.00000000, 0.00000000, 0.00000000
1, 3.3800, 338, 0.08475237, -1.01488185, 0.32358271, -4.53584957, -21.24513626, -74.98305511, 0.00000000, 0.00000000, 0.00000000, 111.32629395, 9.27457714, 105.38134003, 1.00000000, 0.00000000, 0.00000000, 0.00000000, 0.07155339, 0.09500065, 0.03610211, 0.00000000, 0.00000000, 0.00000000, 0.00000000
1, 3.3900, 339, 0.01550434, -1.04256392, 0.28888837, -4.85240364, -22.23636246, -82.76049805, 0.00000000, 0.00000000, 0.00000000, 111.29380798, 10.12640667, 105.47628784, 1.00000000, 0.00000000, 0.00000000, 0.00000000, 0.15473619, 0.12451379, 0.06914055, 0.00000000, 0.00000000, 0.00000000, 0.00000000
1, 3.4000, 340, -0.10516583, -1.05199420, 0.30269891, -5.86993885, -12.38499641, -91.71395111, 0.00000000, 0.00000000, 0.00000000, 111.27590179, 11.02596569, 105.69754028, 1.00000000, 0.00000000, 0.00000000, 0.00000000, 0.29061460, 0.13634245, 0.05391175, 0.00000000, 0.00000000, 0.00000000, 0.00000000
1, 3.4100, 341, -0.03194019, -1.04784727, 0.29353189, -6.59682083, -2.22962546, -100.56240082, 0.00000000, 0.00000000, 0.00000000, 111.28011322, 11.97112083, 106.04879761, 1.00000000, 0.00000000, 0.00000000, 0.00000000, 0.23320827, 0.13510554, 0.06195643, 0.00000000, 0.00000000, 0.00000000, 0.00000000
1, 3.4200, 342, -0.08762864, -1.05341244, 0.34803012, -9.54792786, 10.15646076, -109.65481567, 0.00000000, 0.00000000, 0.00000000, 111.29367828, 12.95599365, 106.55343628, 1.00000000, 0.00000000, 0.00000000, 0.00000000, 0.30547333, 0.14402851, 0.00628791, 0.00000000, 0.00000000, 0.00000000, 0.00000000
1, 3.4300, 343, 0.09375836, -1.05919909, 0.40030998, -10.25866604, 16.21576500, -119.51419067, 0.00000000, 0.00000000, 0.00000000, 111.32603455, 13.99359989, 107.15821838, 1.00000000, 0.00000000, 0.00000000, 0.00000000, 0.14144318, 0.15373284, -0.04706035, 0.00000000, 0.00000000, 0.00000000, 0.00000000
1, 3.4400, 344, 0.13197854, -1.10363412, 0.42758542, -7.95877171, 9.26293468, -127.20144653, 0.00000000, 0.00000000, 0.00000000, 111.38920593, 15.14452934, 107.72598267, 1.00000000, 0.00000000, 0.00000000, 0.00000000, 0.12189164, 0.20288058, -0.07522064, 0.00000000, 0.00000000, 0.00000000, 0.00000000
1, 3.4500, 345, 0.11187460, -1.11722791, 0.46492910, -7.24423742, 4.54025745, -133.81054688, 0.00000000, 0.00000000, 0.00000000, 111.46651459, 16.37354660, 108.27785492, 1.00000000, 0.00000000, 0.00000000, 0.00000000, 0.16217570, 0.22207487, -0.11341705, 0.00000000, 0.00000000, 0.00000000, 0.00000000
1, 3.4600, 346, 0.17368832, -1.11882830, 0.42297253, -8.03285027, -5.74472094, -140.15184021, 0.00000000, 0.00000000, 0.00000000, 111.52701569, 17.69864655, 108.75899506, 1.00000000, 0.00000000, 0.00000000, 0.00000000, 0.12193039, 0.23002121, -0.07284521, 0.00000000, 0.00000000, 0.00000000, 0.00000000
1, 3.4700, 347, 0.05647976, -1.17862463, 0.41860646, -3.79457903, -14.85991764, -145.22845459, 0.00000000, 0.00000000, 0.00000000, 111.62047577, 19.10383797, 109.17608643, 1.00000000, 0.00000000, 0.00000000, 0.00000000, 0.26200157, 0.29720092, -0.06987435, 0.00000000, 0.00000000, 0.00000000, 0.00000000
1, 3.4800, 348, 0.22224182, -1.19093585, 0.44605079, 1.08876657, -22.95565605, -148.27102661, 0.00000000, 0.00000000, 0.00000000, 111.74681091, 20.55253029, 109.53307343, 1.00000000, 0.00000000, 0.00000000, 0.00000000, 0.11991449, 0.31787699, -0.09870854, 0.00000000, 0.00000000, 0.00000000, 0.00000000
1, 3.4900, 349, 0.14324836, -1.27324617, 0.35919833, 2.29290390, -38.02378845, -153.59066772, 0.00000000, 0.00000000, 0.00000000, 111.85422516, 22.11979294, 109.76647186, 1.00000000, 0.00000000, 0.00000000, 0.00000000, 0.22366127, 0.40967131, -0.01342911, 0.00000000, 0.00000000, 0.00000000, 0.00000000
1, 3.5000, 350, 0.01010146, -1.31029463, 0.38512975, 6.91892576, -46.74016190, -151.70265198, 0.00000000, 0.00000000, 0.00000000, 111.97922516, 23.70166016, 109.91024017, 1.00000000, 0.00000000, 0.00000000, 0.00000000, 0.38233960, 0.45708379, -0.04167470, 0.00000000, 0.00000000, 0.00000000, 0.00000000
1, 3.5100, 351, 0.12054145, -1.42855120, 0.38212517, 10.04170227, -57.49445724, -151.72767639, 0.00000000, 0.00000000, 0.00000000, 112.09614563, 25.32380676, 109.95021057, 1.00000000, 0.00000000, 0.00000000, 0.00000000, 0.29752624, 0.58663076, -0.04105897, 0.00000000, 0.00000000, 0.00000000, 0.00000000
1, 3.5200, 352, 0.02663225, -1.58706510, 0.45438606, 15.82447147, -69.74902344, -153.46534729, 0.00000000, 0.00000000, 0.00000000, 112.22110748, 27.00820160, 109.87535858, 1.00000000, 0.00000000, 0.00000000, 0.00000000, 0.41755009, 0.75744641, -0.11620519, 0.00000000, 0.00000000, 0.00000000, 0.00000000
1, 3.5300, 353, -0.07940194, -1.69200480, 0.44517243, 15.85120296, -80.48869324, -153.53979492, 0.00000000, 0.00000000, 0.00000000, 112.28387451, 28.71006393, 109.69097900, 1.00000000, 0.00000000, 0.00000000, 0.00000000, 0.55006635, 0.87552512, -0.11085668, 0.00000000, 0.00000000, 0.00000000, 0.00000000
1, 3.5400, 354, -0.03299978, -1.80712020, 0.33246338, 20.85097885, -104.89377594, -147.32650757, 0.00000000, 0.00000000, 0.00000000, 112.25739288, 30.47100830, 109.21659088, 1.00000000, 0.00000000, 0.00000000, 0.00000000, 0.53006917, 1.00421011, -0.00355127, 0.00000000, 0.00000000, 0.00000000, 0.00000000
1, 3.5500, 355, 0.03578204, -2.04109478, 0.34672090, 24.69294739, -132.39190674, -140.01560974, 0.00000000, 0.00000000, 0.00000000, 112.07820892, 32.26740646, 108.39961243, 1.00000000, 0.00000000, 0.00000000, 0.00000000, 0.48799217, 1.25225651, -0.02529196, 0.00000000, 0.00000000, 0.00000000, 0.00000000
1, 3.5600, 356, -0.16757891, -2.23549867, 0.38044667, 9.70021534, -161.35075378, -139.66603088, 0.00000000, 0.00000000, 0.00000000, 111.53433228, 34.16383362, 107.22980499, 1.00000000, 0.00000000, 0.00000000, 0.00000000, 0.71871215, 1.46059394, -0.07112037, 0.00000000, 0.00000000, 0.00000000, 0.00000000
1, 3.5700, 357, -0.30648068, -2.16065192, 0.50508529, -7.79022360, -162.90710449, -151.07223511, 0.00000000, 0.00000000, 0.00000000, 110.77066040, 36.16088104, 106.03870392, 1.00000000, 0.00000000, 0.00000000, 0.00000000, 0.88579667, 1.40011263, -0.21205452, 0.00000000, 0.00000000, 0.00000000, 0.00000000
1, 3.5800, 358, -0.56735927, -1.88172340, 0.85072821, -23.10779381, -157.18202209, -160.56428528, 0.00000000, 0.00000000, 0.00000000, 109.84983063, 38.18901443, 104.88560486, 1.00000000, 0.00000000, 0.00000000, 0.00000000, 1.17519879, 1.13658905, -0.57651126, 0.00000000, 0.00000000, 0.00000000, 0.00000000
1, 3.5900, 359, -0.72701418, -1.56911480, 0.92533785, -34.21075439, -121.26036835, -174.44171143, 0.00000000, 0.00000000, 0.00000000, 109.04959106, 40.23782349, 104.15936279, 1.00000000, 0.00000000, 0.00000000, 0.00000000, 1.36268389, 0.84071541, -0.66989613, 0.00000000, 0.00000000, 0.00000000, 0.00000000
1, 3.6000, 360, -0.50246215, -1.60808611, 0.98717976, -22.60865211, -86.69425964, -180.58087158, 0.00000000, 0.00000000, 0.00000000, 108.61633301, 42.22692871, 103.84336853, 1.00000000, 0.00000000, 0.00000000, 0.00000000, 1.16490424, 0.89878535, -0.74641478, 0.00000000, 0.00000000, 0.00000000, 0.00000000
1, 3.6100, 361, -0.44703022, -1.68579006, 0.86639583, -48.98541641, -23.58842468, -189.41859436, 0.00000000, 0.00000000, 0.00000000, 108.48371124, 44.09783936, 104.36405945, 1.00000000, 0.00000000, 0.00000000, 0.00000000, 1.13413620, 0.99694467, -0.63553834, 0.00000000, 0.00000000, 0.00000000, 0.00000000
1, 3.6200, 362, -0.52908647, -1.51184225, 0.88529563, -61.72754288, -1.48869157, -188.80958557, 0.00000000, 0.00000000, 0.00000000, 108.45158386, 45.89383698, 105.18989563, 1.00000000, 0.00000000, 0.00000000, 0.00000000, 1.23902082, 0.84372115, -0.66273928, 0.00000000, 0.00000000, 0.00000000, 0.00000000
1, 3.6300, 363, -0.63661468, -1.36922300, 0.55594414, -62.27375793, 58.24087524, -179.19165039, 0.00000000, 0.00000000, 0.00000000, 109.01721954, 47.34402084, 106.82489777, 1.00000000, 0.00000000, 0.00000000, 0.00000000, 1.36611378, 0.72167665, -0.33579922, 0.00000000, 0.00000000, 0.00000000, 0.00000000
1, 3.6400, 364, -0.29121095, -1.15154684, -0.04154297, -63.40945816, 75.29682159, -152.22045898, 0.00000000, 0.00000000, 0.00000000, 109.73046875, 48.53012848, 108.63938141, 1.00000000, 0.00000000, 0.00000000, 0.00000000, 1.03563523, 0.52207142, 0.26415735, 0.00000000, 0.00000000, 0.00000000, 0.00000000
1, 3.6500, 365, 0.90521741, -0.75177813, 0.19827667, -72.41437531, 47.90666962, -148.37338257, 0.00000000, 0.00000000, 0.00000000, 110.11124420, 49.76169968, 110.10069275, 1.00000000, 0.00000000, 0.00000000, 0.00000000, -0.14727172, 0.13875115, 0.02460730, 0.00000000, 0.00000000, 0.00000000, 0.00000000
1, 3.6600, 366, 1.72336996, -0.27502838, 0.74896842, -66.58271790, 9.96603203, -138.18255615, 0.00000000, 0.00000000, 0.00000000, 110.13124084, 51.02448654, 110.99237061, 1.00000000, 0.00000000, 0.00000000, 0.00000000, -0.95106149, -0.32125354, -0.52999306, 0.00000000, 0.00000000, 0.00000000, 0.00000000
1, 3.6700, 367, 1.19922495, -0.49941015, 0.90644097, -24.83454132, -3.51822281, -92.21726990, 0.00000000, 0.00000000, 0.00000000, 110.24179840, 51.90232849, 111.45030212, 1.00000000, 0.00000000, 0.00000000, 0.00000000, -0.41524798, -0.08335111, -0.69253969, 0.00000000, 0.00000000, 0.00000000, 0.00000000
1, 3.6800, 368, 0.11645913, -0.56288141, 0.74716705, -37.16886902, 43.03612900, -39.47496796, 0.00000000, 0.00000000, 0.00000000, 110.76056671, 51.95812988, 112.31040192, 1.00000000, 0.00000000, 0.00000000, 0.00000000, 0.67192167, -0.01333441, -0.53169727, 0.00000000, 0.00000000, 0.00000000, 0.00000000
1, 3.6900, 369, -0.35409528, -0.43966767, 0.35111642, -30.97485542, 28.95197678, 2.66613388, 0.00000000, 0.00000000, 0.00000000, 110.78420258, 51.83046722, 112.73392487, 1.00000000, 0.00000000, 0.00000000, 0.00000000, 1.14099598, -0.13722910, -0.13208027, 0.00000000, 0.00000000, 0.00000000, 0.00000000
1, 3.7000, 370, -0.33600590, -0.47949979, 0.13205603, -32.55970001, 8.45978832, 27.24024391, 0.00000000, 0.00000000, 0.00000000, 110.43754578, 51.54558945, 112.70694733, 1.00000000, 0.00000000, 0.00000000, 0.00000000, 1.12033916, -0.10114606, 0.08627445, 0.00000000, 0.00000000, 0.00000000, 0.00000000
1, 3.7100, 371, -0.16851978, -0.46137729, -0.09484219, -50.86358261, -6.21026325, 44.65048599, 0.00000000, 0.00000000, 0.00000000, 109.66455078, 51.14745331, 112.36844635, 1.00000000, 0.00000000, 0.00000000, 0.00000000, 0.94904786, -0.12613425, 0.30837411, 0.00000000, 0.00000000, 0.00000000, 0.00000000
1, 3.7200, 372, 0.04251807, -0.35221070, -0.18869039, -63.15052032, -1.77448177, 60.58490753, 0.00000000, 0.00000000, 0.00000000, 108.76749420, 50.58117676, 112.02610016, 1.00000000, 0.00000000, 0.00000000, 0.00000000, 0.73247957, -0.24491313, 0.39558613, 0.00000000, 0.00000000, 0.00000000, 0.00000000
1, 3.7300, 373, 0.28500217, -0.23590429, -0.10983858, -59.35802078, -10.97721195, 80.50152588, 0.00000000, 0.00000000, 0.00000000, 107.70580292, 49.86431503, 111.47351837, 1.00000000, 0.00000000, 0.00000000, 0.00000000, 0.48266101, -0.37313235, 0.30919534, 0.00000000, 0.00000000, 0.00000000, 0.00000000
1, 3.7400, 374, 0.16577262, -0.15240476, 0.03860966, -52.64903641, -16.82599258, 110.83399200, 0.00000000, 0.00000000, 0.00000000, 106.61122894, 48.85485840, 110.72503662, 1.00000000, 0.00000000, 0.00000000, 0.00000000, 0.59187114, -0.47163865, 0.15245923, 0.00000000, 0.00000000, 0.00000000, 0.00000000
1, 3.7500, 375, -0.09473876, -0.08094475, 0.18648560, -52.97309875, -6.10718822, 137.94801331, 0.00000000, 0.00000000, 0.00000000, 105.58787537, 47.54647446, 110.06344604, 1.00000000, 0.00000000, 0.00000000, 0.00000000, 0.83855814, -0.56165230, -0.00277912, 0.00000000, 0.00000000, 0.00000000, 0.00000000
1, 3.7600, 376, -0.19118643, -0.06016628, 0.22579286, -46.67735672, 8.10664272, 158.44253540, 0.00000000, 0.00000000, 0.00000000, 104.76322174, 45.99605179, 109.57262421, 1.00000000, 0.00000000, 0.00000000, 0.00000000, 0.91766715, -0.60338569, -0.04730449, 0.00000000, 0.00000000, 0.00000000, 0.00000000
1, 3.7700, 377, -0.19748166, -0.11295129, 0.22290583, -34.80497742, 24.34020996, 180.15257263, 0.00000000, 0.00000000, 0.00000000, 104.19929504, 44.19099426, 109.26885986, 1.00000000, 0.00000000, 0.00000000, 0.00000000, 0.90319741, -0.57328629, -0.04695103, 0.00000000, 0.00000000, 0.00000000, 0.00000000
1, 3.7800, 378, -0.17151600, -0.21401002, 0.20190118, -25.86962700, 46.13767242, 200.65171814, 0.00000000, 0.00000000, 0.00000000, 103.93146515, 42.08583450, 109.20988464, 1.00000000, 0.00000000, 0.00000000, 0.00000000, 0.85233819, -0.49659520, -0.02466882, 0.00000000, 0.00000000, 0.00000000, 0.00000000
1, 3.7900, 379, -0.05375094, -0.30129075, 0.18503402, -20.92926407, 61.00489807, 220.33055115, 0.00000000, 0.00000000, 0.00000000, 103.77805328, 39.80059052, 109.29553223, 1.00000000, 0.00000000, 0.00000000, 0.00000000, 0.70546001, -0.43510509, -0.00373580, 0.00000000, 0.00000000, 0.00000000, 0.00000000
1, 3.8000, 380, 0.07872304, -0.32531178, 0.09661144, -22.16775131, 61.85457611, 236.57746887, 0.00000000, 0.00000000, 0.00000000, 103.58992004, 37.35562515, 109.34854889, 1.00000000, 0.00000000, 0.00000000, 0.00000000, 0.54076290, -0.43738025, 0.08884279, 0.00000000, 0.00000000, 0.00000000, 0.00000000
1, 3.8100, 381, 0.06576683, -0.35342836, 0.15219750, -14.95020676, 57.86141205, 251.15882874, 0.00000000, 0.00000000, 0.00000000, 103.42296600, 34.77838516, 109.31928253, 1.00000000, 0.00000000, 0.00000000, 0.00000000, 0.51855880, -0.43565455, 0.03688129, 0.00000000, 0.00000000, 0.00000000, 0.00000000
1, 3.8200, 382, -0.02620054, -0.40716988, 0.19620803, -8.95157433, 72.92520905, 266.55728149, 0.00000000, 0.00000000, 0.00000000, 103.39347076, 32.01641083, 109.42893219, 1.00000000, 0.00000000, 0.00000000, 0.00000000, 0.57175720, -0.40799892, -0.00208670, 0.00000000, 0.00000000, 0.00000000, 0.00000000
1, 3.8300, 383, 0.02815853, -0.49484813, 0.21421051, -1.49305820, 79.03709412, 283.12722778, 0.00000000, 0.00000000, 0.00000000, 103.45676422, 29.05573082, 109.55189514, 1.00000000, 0.00000000, 0.00000000, 0.00000000, 0.47463024, -0.34581846, -0.01353452, 0.00000000, 0.00000000, 0.00000000, 0.00000000
1, 3.8400, 384, 0.02352234, -0.59314132, 0.22845213, 4.77702808, 78.91880035, 297.67837524, 0.00000000, 0.00000000, 0.00000000, 103.54251099, 25.97700882, 109.63379669, 1.00000000, 0.00000000, 0.00000000, 0.00000000, 0.43260506, -0.27202684, -0.02059630, 0.00000000, 0.00000000, 0.00000000, 0.00000000
1, 3.8500, 385, -0.12155642, -0.75673103, 0.27686226, 4.95246601, 82.05371857, 310.97753906, 0.00000000, 0.00000000, 0.00000000, 103.62216949, 22.76155090, 109.70748138, 1.00000000, 0.00000000, 0.00000000, 0.00000000, 0.52796048, -0.13123745, -0.06215492, 0.00000000, 0.00000000, 0.00000000, 0.00000000
1, 3.8600, 386, -0.03727713, -0.90075058, 0.18830432, 1.44825053, 92.25668335, 326.06753540, 0.00000000, 0.00000000, 0.00000000, 103.68537903, 19.37530518, 109.84321594, 1.00000000, 0.00000000, 0.00000000, 0.00000000, 0.39001456, -0.00834596, 0.03270032, 0.00000000, 0.00000000, 0.00000000, 0.00000000
1, 3.8700, 387, 0.18677835, -1.03759480, 0.16165420, 7.00521088, 98.42649078, 334.03436279, 0.00000000, 0.00000000, 0.00000000, 103.80673218, 15.89683151, 110.01404572, 1.00000000, 0.00000000, 0.00000000, 0.00000000, 0.10901493, 0.10987262, 0.06538749, 0.00000000, 0.00000000, 0.00000000, 0.00000000
1, 3.8800, 388, 0.25426343, -1.20945895, 0.12267262, 15.67959595, 130.85398865, 341.59014893, 0.00000000, 0.00000000, 0.00000000, 104.06505585, 12.26557446, 110.48513031, 1.00000000, 0.00000000, 0.00000000, 0.00000000, -0.01845197, 0.26651299, 0.11169101, 0.00000000, 0.00000000, 0.00000000, 0.00000000
1, 3.8900, 389, 0.31213310, -1.44795835, 0.16544268, 34.67924881, 161.48037720, 347.54589844, 0.00000000, 0.00000000, 0.00000000, 104.54145050, 8.49915600, 111.20403290, 1.00000000, 0.00000000, 0.00000000, 0.00000000, -0.13996992, 0.49378929, 0.07863964, 0.00000000, 0.00000000, 0.00000000, 0.00000000
1, 3.9000, 390, 0.49506852, -1.86318958, 0.38392681, 41.76359177, 149.97406006, 348.79345703, 0.00000000, 0.00000000, 0.00000000, 105.02499390, 4.74407148, 111.76721954, 1.00000000, 0.00000000, 0.00000000, 0.00000000, -0.38795301, 0.90234870, -0.12903214, 0.00000000, 0.00000000, 0.00000000, 0.00000000
1, 3.9100, 391, 0.78132832, -2.18110108, 0.50909173, 26.11925125, 133.25259399, 350.81768799, 0.00000000, 0.00000000, 0.00000000, 105.30595398, 1.00954580, 112.13517761, 1.00000000, 0.00000000, 0.00000000, 0.00000000, -0.73933673, 1.21716928, -0.24691078, 0.00000000, 0.00000000, 0.00000000, 0.00000000
1, 3.9200, 392, 1.13652825, -2.17959332, 0.56991607, 5.19755745, 96.85340881, 358.36178589, 0.00000000, 0.00000000, 0.00000000, 105.36042786, -2.70250988, 112.12038422, 1.00000000, 0.00000000, 0.00000000, 0.00000000, -1.15935874, 1.21571541, -0.30517089, 0.00000000, 0.00000000, 0.00000000, 0.00000000
