SensorId, TimeStamp (s), FrameNumber, AccX (g), AccY (g), AccZ (g), GyroX (deg/s), GyroY (deg/s), GyroZ (deg/s), MagX (uT), MagY (uT), MagZ (uT), EulerX (deg), EulerY (deg), EulerZ (deg), QuatW, QuatX, QuatY, QuatZ, LinAccX (g), LinAccY (g), LinAccZ (g), Pressure (kPa), Altitude (m), Temperature (degC), HeaveMotion (m)
1, -0.0000, 0, 2.18527389, -1.23860133, -0.36855388, 98.15974426, 10.27703285, 156.34596252, 0.00000000, 0.00000000, 0.00000000, 114.11082458, -24.60971260, 80.04447174, 1.00000000, 0.00000000, 0.00000000, 0.00000000, -2.59409571, 0.40279227, 0.73491120, 0.00000000, 0.00000000, 0.00000000, 0.00000000
1, 0.0100, 1, 2.32251692, -1.29336476, -0.38776875, 78.37052155, -8.22803307, 89.22572327, 0.00000000, 0.00000000, 0.00000000, 115.10256195, -25.38677788, 79.55200195, 1.00000000, 0.00000000, 0.00000000, 0.00000000, -2.74716949, 0.47135410, 0.76716208, 0.00000000, 0.00000000, 0.00000000, 0.00000000
1, 0.0200, 2, 2.24404168, -1.25998306, -0.38798782, 38.11310577, 16.72667313, 36.01028061, 0.00000000, 0.00000000, 0.00000000, 115.47196960, -25.75359344, 79.53074646, 1.00000000, 0.00000000, 0.00000000, 0.00000000, -2.67705297, 0.44559291, 0.77433705, 0.00000000, 0.00000000, 0.00000000, 0.00000000
1, 0.0300, 3, 2.02044082, -1.13617837, -0.53287178, -1.01391625, 20.43763161, -24.24163246, 0.00000000, 0.00000000, 0.00000000, 115.32275391, -25.62242508, 79.85105896, 1.00000000, 0.00000000, 0.00000000, 0.00000000, -2.45446348, 0.32247388, 0.91953301, 0.00000000, 0.00000000, 0.00000000, 0.00000000
1, 0.0400, 4, 1.93608987, -1.05883133, -0.52967840, -29.42709160, 0.41013345, -91.11674500, 0.00000000, 0.00000000, 0.00000000, 114.84467316, -24.79899216, 80.28210449, 1.00000000, 0.00000000, 0.00000000, 0.00000000, -2.36123347, 0.23882319, 0.91284263, 0.00000000, 0.00000000, 0.00000000, 0.00000000
1, 0.0500, 5, 1.87262607, -1.03880167, -0.38941148, -52.81942749, -2.14288139, -153.45500183, 0.00000000, 0.00000000, 0.00000000, 114.04145050, -23.39299965, 80.95629120, 1.00000000, 0.00000000, 0.00000000, 0.00000000, -2.27868700, 0.20638740, 0.76642030, 0.00000000, 0.00000000, 0.00000000, 0.00000000
1, 0.0600, 6, 1.71307135, -1.18244779, -0.33506563, -65.41078949, 16.66694260, -202.74172974, 0.00000000, 0.00000000, 0.00000000, 112.98949432, -21.60022545, 81.99723053, 1.00000000, 0.00000000, 0.00000000, 0.00000000, -2.09245467, 0.33335567, 0.70249867, 0.00000000, 0.00000000, 0.00000000, 0.00000000
1, 0.0700, 7, 1.31708252, -1.34921551, 0.38001296, -72.29438782, 45.16836166, -242.07954407, 0.00000000, 0.00000000, 0.00000000, 111.78298950, -19.51011276, 83.39681244, 1.00000000, 0.00000000, 0.00000000, 0.00000000, -1.66418874, 0.48133734, -0.02481428, 0.00000000, 0.00000000, 0.00000000, 0.00000000
1, 0.0800, 8, -2.77026844, -1.41031539, 2.39854550, -61.34203720, 153.43045044, -255.95152283, 0.00000000, 0.00000000, 0.00000000, 110.38787842, -17.66868973, 85.87690735, 1.00000000, 0.00000000, 0.00000000, 0.00000000, 2.45697141, 0.52302676, -2.06024742, 0.00000000, 0.00000000, 0.00000000, 0.00000000
1, 0.0900, 9, -2.68336868, -2.22858906, 0.13291651, 3.83492804, -8.71458149, -63.10780716, 0.00000000, 0.00000000, 0.00000000, 110.38061523, -17.04643250, 86.02207184, 1.00000000, 0.00000000, 0.00000000, 0.00000000, 2.38662028, 1.33328688, 0.19929777, 0.00000000, 0.00000000, 0.00000000, 0.00000000
1, 0.1000, 10, 0.23994333, -2.33126712, -0.42486349, -64.14041901, -61.45491791, -105.33303833, 0.00000000, 0.00000000, 0.00000000, 109.80326843, -15.84620476, 85.79639435, 1.00000000, 0.00000000, 0.00000000, 0.00000000, -0.52174860, 1.42970693, 0.75307900, 0.00000000, 0.00000000, 0.00000000, 0.00000000
1, 0.1100, 11, 2.05787897, -2.38777804, -1.27207637, -72.83142853, -91.61502075, -158.44717407, 0.00000000, 0.00000000, 0.00000000, 109.16426086, -14.04651642, 85.45098877, 1.00000000, 0.00000000, 0.00000000, 0.00000000, -2.31246662, 1.47603488, 1.59428287, 0.00000000, 0.00000000, 0.00000000, 0.00000000
1, 0.1200, 12, 1.52250195, -1.86169744, 0.13810374, -82.39911652, -39.40375519, -219.57403564, 0.00000000, 0.00000000, 0.00000000, 108.27507782, -11.80408764, 85.75751495, 1.00000000, 0.00000000, 0.00000000, 0.00000000, -1.74196279, 0.93693340, 0.17255214, 0.00000000, 0.00000000, 0.00000000, 0.00000000
1, 0.1300, 13, -0.42458007, -1.15901744, 0.48201457, -52.47250366, 29.83704948, -222.41386414, 0.00000000, 0.00000000, 0.00000000, 107.56661987, -9.77955151, 86.74347687, 1.00000000, 0.00000000, 0.00000000, 0.00000000, 0.24231744, 0.22304331, -0.18096849, 0.00000000, 0.00000000, 0.00000000, 0.00000000
1, 0.1400, 14, -0.04188073, -0.76616061, -0.02219582, -31.15099716, 23.28403282, -176.86930847, 0.00000000, 0.00000000, 0.00000000, 107.13716888, -8.16037464, 87.50168610, 1.00000000, 0.00000000, 0.00000000, 0.00000000, -0.11029198, -0.17761993, 0.31555289, 0.00000000, 0.00000000, 0.00000000, 0.00000000
1, 0.1500, 15, 0.99701959, -0.57020015, 0.40351546, -4.17215490, 64.85981750, -174.87197876, 0.00000000, 0.00000000, 0.00000000, 106.94926453, -6.67813301, 88.64341736, 1.00000000, 0.00000000, 0.00000000, 0.00000000, -1.12281787, -0.37845397, -0.11338029, 0.00000000, 0.00000000, 0.00000000, 0.00000000
1, 0.1600, 16, 0.96239197, -0.63337195, 0.35063615, 13.93379307, 91.69314575, -178.36456299, 0.00000000, 0.00000000, 0.00000000, 106.94271851, -5.23904800, 90.04788208, 1.00000000, 0.00000000, 0.00000000, 0.00000000, -1.06303990, -0.31836319, -0.06077199, 0.00000000, 0.00000000, 0.00000000, 0.00000000
1, 0.1700, 17, 0.71274829, -0.69383031, 0.63104272, -2.11791515, 71.16893768, -154.94367981, 0.00000000, 0.00000000, 0.00000000, 106.90581512, -3.85166025, 91.06263733, 1.00000000, 0.00000000, 0.00000000, 0.00000000, -0.78941393, -0.26019061, -0.34135258, 0.00000000, 0.00000000, 0.00000000, 0.00000000
1, 0.1800, 18, 0.78141147, -0.82971752, 0.72524542, 6.48061991, 54.55224228, -133.66836548, 0.00000000, 0.00000000, 0.00000000, 106.91785431, -2.73128557, 91.97470856, 1.00000000, 0.00000000, 0.00000000, 0.00000000, -0.83631837, -0.12563030, -0.43495893, 0.00000000, 0.00000000, 0.00000000, 0.00000000
1, 0.1900, 19, 0.82949030, -0.91359293, 0.59652066, -6.22157145, 17.03954315, -121.58325195, 0.00000000, 0.00000000, 0.00000000, 106.83528900, -1.61753905, 92.49156952, 1.00000000, 0.00000000, 0.00000000, 0.00000000, -0.86498225, -0.04266489, -0.30620819, 0.00000000, 0.00000000, 0.00000000, 0.00000000
1, 0.2000, 20, 0.95011491, -0.81824309, 0.50996327, -20.34643936, -29.55994415, -103.09564972, 0.00000000, 0.00000000, 0.00000000, 106.63076782, -0.54528797, 92.50522614, 1.00000000, 0.00000000, 0.00000000, 0.00000000, -0.96660709, -0.13942599, -0.22261335, 0.00000000, 0.00000000, 0.00000000, 0.00000000
1, 0.2100, 21, 0.89871055, -0.91716951, 0.39772889, -12.51905823, -81.41910553, -83.46883392, 0.00000000, 0.00000000, 0.00000000, 106.50501251, 0.48680210, 91.96282196, 1.00000000, 0.00000000, 0.00000000, 0.00000000, -0.89688396, -0.04138626, -0.11287429, 0.00000000, 0.00000000, 0.00000000, 0.00000000
1, 0.2200, 22, 0.54365730, -1.00011826, 0.30398607, -19.40828133, -124.62821198, -62.00247574, 0.00000000, 0.00000000, 0.00000000, 106.28794861, 1.51107132, 90.88707733, 1.00000000, 0.00000000, 0.00000000, 0.00000000, -0.52437097, 0.04091373, -0.02197874, 0.00000000, 0.00000000, 0.00000000, 0.00000000
1, 0.2300, 23, 0.44260365, -1.03805363, 0.20786782, -14.01088524, -147.62699890, -48.65533829, 0.00000000, 0.00000000, 0.00000000, 106.10393524, 2.38962698, 89.60407257, 1.00000000, 0.00000000, 0.00000000, 0.00000000, -0.40657637, 0.07816985, 0.07017241, 0.00000000, 0.00000000, 0.00000000, 0.00000000
1, 0.2400, 24, 0.27976066, -1.18129146, 0.01812687, 0.83103830, -132.34150696, -43.73953247, 0.00000000, 0.00000000, 0.00000000, 106.05652618, 3.17656302, 88.45229340, 1.00000000, 0.00000000, 0.00000000, 0.00000000, -0.22932303, 0.22163430, 0.25845963, 0.00000000, 0.00000000, 0.00000000, 0.00000000
1, 0.2500, 25, 0.01151280, -1.18011856, -0.16304348, -11.46772861, -96.81153870, -44.27256775, 0.00000000, 0.00000000, 0.00000000, 105.89234924, 3.86883736, 87.64201355, 1.00000000, 0.00000000, 0.00000000, 0.00000000, 0.05152076, 0.22059961, 0.43752182, 0.00000000, 0.00000000, 0.00000000, 0.00000000
1, 0.2600, 26, -0.08657364, -1.04874074, -0.21228568, -12.42847347, -57.23196793, -55.90361023, 0.00000000, 0.00000000, 0.00000000, 105.73908234, 4.56271505, 87.24255371, 1.00000000, 0.00000000, 0.00000000, 0.00000000, 0.16157746, 0.08917710, 0.48357919, 0.00000000, 0.00000000, 0.00000000, 0.00000000
1, 0.2700, 27, -0.22151466, -0.96680886, -0.14091298, -4.09098244, -13.70878124, -67.72445679, 0.00000000, 0.00000000, 0.00000000, 105.49623871, 5.07378197, 87.46965027, 1.00000000, 0.00000000, 0.00000000, 0.00000000, 0.30777028, 0.00751090, 0.40979737, 0.00000000, 0.00000000, 0.00000000, 0.00000000
1, 0.2800, 28, -0.12324885, -1.05043244, 0.19475380, -5.08485079, 24.07623672, -77.43383026, 0.00000000, 0.00000000, 0.00000000, 105.48739624, 5.75563622, 87.91056061, 1.00000000, 0.00000000, 0.00000000, 0.00000000, 0.21920243, 0.09123752, 0.07119165, 0.00000000, 0.00000000, 0.00000000, 0.00000000
1, 0.2900, 29, 0.21403201, -1.04395115, 0.30249602, -13.51625824, 66.77206421, -76.54729462, 0.00000000, 0.00000000, 0.00000000, 105.44216919, 6.31540251, 88.76295471, 1.00000000, 0.00000000, 0.00000000, 0.00000000, -0.10752819, 0.08560443, -0.03750298, 0.00000000, 0.00000000, 0.00000000, 0.00000000
1, 0.3000, 30, 0.72463441, -0.92654854, 0.55692118, -19.77641296, 64.33623505, -68.20479584, 0.00000000, 0.00000000, 0.00000000, 105.33647919, 6.80212116, 89.56960297, 1.00000000, 0.00000000, 0.00000000, 0.00000000, -0.60929167, -0.03118110, -0.29339880, 0.00000000, 0.00000000, 0.00000000, 0.00000000
1, 0.3100, 31, 0.97067142, -0.75885010, 0.73143661, -15.90682507, 36.14339066, -55.63515091, 0.00000000, 0.00000000, 0.00000000, 105.23818207, 7.24345160, 90.06864166, 1.00000000, 0.00000000, 0.00000000, 0.00000000, -0.84734529, -0.19846673, -0.47003573, 0.00000000, 0.00000000, 0.00000000, 0.00000000
1, 0.3200, 32, 0.81122190, -0.60963929, 0.61369330, -9.41206360, -24.90759087, -37.50031281, 0.00000000, 0.00000000, 0.00000000, 105.31184387, 7.94163275, 89.68846130, 1.00000000, 0.00000000, 0.00000000, 0.00000000, -0.67945129, -0.34691471, -0.35364702, 0.00000000, 0.00000000, 0.00000000, 0.00000000
1, 0.3300, 33, 0.32859510, -0.67519152, 0.46278784, 7.28641462, -80.12096405, -30.21851921, 0.00000000, 0.00000000, 0.00000000, 105.28482819, 8.44447994, 88.98818970, 1.00000000, 0.00000000, 0.00000000, 0.00000000, -0.18505616, -0.27940565, -0.20176169, 0.00000000, 0.00000000, 0.00000000, 0.00000000
1, 0.3400, 34, 0.05839485, -0.82503879, 0.32028195, 9.62023067, -64.79299164, -33.54870987, 0.00000000, 0.00000000, 0.00000000, 105.29921722, 8.93892956, 88.44544983, 1.00000000, 0.00000000, 0.00000000, 0.00000000, 0.09380157, -0.12832735, -0.05966071, 0.00000000, 0.00000000, 0.00000000, 0.00000000
1, 0.3500, 35, -0.03213754, -0.96690488, 0.29171064, 4.81932449, -22.25717545, -42.33302689, 0.00000000, 0.00000000, 0.00000000, 105.33113098, 9.40600395, 88.34135437, 1.00000000, 0.00000000, 0.00000000, 0.00000000, 0.19260684, 0.01496153, -0.03084994, 0.00000000, 0.00000000, 0.00000000, 0.00000000
1, 0.3600, 36, -0.05156606, -1.01568472, 0.20013438, -7.58789587, 12.43876171, -49.26176453, 0.00000000, 0.00000000, 0.00000000, 105.29779053, 9.84825039, 88.59504700, 1.00000000, 0.00000000, 0.00000000, 0.00000000, 0.21976131, 0.06493601, 0.06021648, 0.00000000, 0.00000000, 0.00000000, 0.00000000
1, 0.3700, 37, 0.15213436, -0.97716349, 0.24049991, -11.81866169, 26.82746887, -55.00755310, 0.00000000, 0.00000000, 0.00000000, 105.25857544, 10.30910587, 89.00371552, 1.00000000, 0.00000000, 0.00000000, 0.00000000, 0.02380341, 0.02749914, 0.01868785, 0.00000000, 0.00000000, 0.00000000, 0.00000000
1, 0.3800, 38, 0.22276419, -0.99112999, 0.25551715, -8.17961025, 29.06956863, -59.55794907, 0.00000000, 0.00000000, 0.00000000, 105.25819397, 10.80719566, 89.44839478, 1.00000000, 0.00000000, 0.00000000, 0.00000000, -0.03852382, 0.04289295, 0.00312545, 0.00000000, 0.00000000, 0.00000000, 0.00000000
1, 0.3900, 39, 0.27916116, -0.98721409, 0.25357962, -6.96106768, 20.17127228, -62.40763092, 0.00000000, 0.00000000, 0.00000000, 105.25878906, 11.35616875, 89.81405640, 1.00000000, 0.00000000, 0.00000000, 0.00000000, -0.08585791, 0.04067665, 0.00467100, 0.00000000, 0.00000000, 0.00000000, 0.00000000
1, 0.4000, 40, 0.24640720, -0.92823291, 0.33949903, -10.30866146, 11.19151402, -66.33984375, 0.00000000, 0.00000000, 0.00000000, 105.21392059, 11.96683407, 90.10227966, 1.00000000, 0.00000000, 0.00000000, 0.00000000, -0.04305182, -0.01648678, -0.08231784, 0.00000000, 0.00000000, 0.00000000, 0.00000000
1, 0.4100, 41, 0.21479179, -0.93777251, 0.34810507, -4.32135725, -1.31048155, -69.39537048, 0.00000000, 0.00000000, 0.00000000, 105.20751953, 12.63990593, 90.27569580, 1.00000000, 0.00000000, 0.00000000, 0.00000000, -0.00037861, -0.00473553, -0.09179540, 0.00000000, 0.00000000, 0.00000000, 0.00000000
1, 0.4200, 42, 0.18062910, -1.07530081, 0.38958505, -5.40877438, -8.14835358, -76.51484680, 0.00000000, 0.00000000, 0.00000000, 105.20407867, 13.34387398, 90.43953705, 1.00000000, 0.00000000, 0.00000000, 0.00000000, 0.04598161, 0.13538733, -0.13424447, 0.00000000, 0.00000000, 0.00000000, 0.00000000
1, 0.4300, 43, 0.17879832, -1.01475263, 0.42707330, -21.07015228, -5.47385168, -82.81880951, 0.00000000, 0.00000000, 0.00000000, 105.03335571, 14.15764236, 90.60766602, 1.00000000, 0.00000000, 0.00000000, 0.00000000, 0.06050899, 0.07738210, -0.17398924, 0.00000000, 0.00000000, 0.00000000, 0.00000000
1, 0.4400, 44, 0.18645746, -0.98580080, 0.38627693, -12.74518490, -6.43321037, -90.54415131, 0.00000000, 0.00000000, 0.00000000, 104.95069122, 15.04894257, 90.78528595, 1.00000000, 0.00000000, 0.00000000, 0.00000000, 0.06752460, 0.05141996, -0.13646415, 0.00000000, 0.00000000, 0.00000000, 0.00000000
1, 0.4500, 45, 0.26916558, -1.04747927, 0.35149956, -16.59546852, -15.46155930, -92.17837524, 0.00000000, 0.00000000, 0.00000000, 104.80889130, 15.97948551, 90.87599945, 1.00000000, 0.00000000, 0.00000000, 0.00000000, 0.00019680, 0.11671501, -0.10431494, 0.00000000, 0.00000000, 0.00000000, 0.00000000
1, 0.4600, 46, 0.38122061, -1.15940273, 0.28771690, -10.94971657, -27.68949699, -94.87651825, 0.00000000, 0.00000000, 0.00000000, 104.69136810, 16.96746445, 90.84854126, 1.00000000, 0.00000000, 0.00000000, 0.00000000, -0.09569312, 0.23255746, -0.04397976, 0.00000000, 0.00000000, 0.00000000, 0.00000000
1, 0.4700, 47, 0.27418864, -1.29432642, 0.34228191, -19.81507874, -42.32638931, -98.70289612, 0.00000000, 0.00000000, 0.00000000, 104.44615173, 18.00329208, 90.69818115, 1.00000000, 0.00000000, 0.00000000, 0.00000000, 0.02848149, 0.37180918, -0.10285392, 0.00000000, 0.00000000, 0.00000000, 0.00000000
1, 0.4800, 48, 0.18153054, -1.37505877, 0.36446467, -19.13313293, -58.42360306, -103.04830933, 0.00000000, 0.00000000, 0.00000000, 104.14996338, 19.14611816, 90.36937714, 1.00000000, 0.00000000, 0.00000000, 0.00000000, 0.13925126, 0.45711988, -0.13111126, 0.00000000, 0.00000000, 0.00000000, 0.00000000
1, 0.4900, 49, 0.05517409, -1.37379849, 0.36286899, -22.99379158, -67.90600586, -111.63493347, 0.00000000, 0.00000000, 0.00000000, 103.77986908, 20.39331055, 89.95532990, 1.00000000, 0.00000000, 0.00000000, 0.00000000, 0.28550091, 0.46125147, -0.13668805, 0.00000000, 0.00000000, 0.00000000, 0.00000000
1, 0.5000, 50, -0.01324182, -1.40301216, 0.30360243, -18.84168053, -76.51698303, -121.62180328, 0.00000000, 0.00000000, 0.00000000, 103.41521454, 21.75536537, 89.46475220, 1.00000000, 0.00000000, 0.00000000, 0.00000000, 0.37539253, 0.49687761, -0.08515481, 0.00000000, 0.00000000, 0.00000000, 0.00000000
1, 0.5100, 51, -0.00316720, -1.48150265, 0.28324202, -25.35409355, -73.65805817, -138.41256714, 0.00000000, 0.00000000, 0.00000000, 102.99577332, 23.27122498, 89.03089142, 1.00000000, 0.00000000, 0.00000000, 0.00000000, 0.38889545, 0.58314478, -0.07322643, 0.00000000, 0.00000000, 0.00000000, 0.00000000
1, 0.5200, 52, 0.03214961, -1.55616653, 0.37738565, -31.27502823, -75.19806671, -151.43011475, 0.00000000, 0.00000000, 0.00000000, 102.50630951, 24.87628746, 88.62171173, 1.00000000, 0.00000000, 0.00000000, 0.00000000, 0.37904054, 0.66693997, -0.17705631, 0.00000000, 0.00000000, 0.00000000, 0.00000000
1, 0.5300, 53, 0.11193287, -1.56637549, 0.44098711, -35.61144638, -82.80682373, -158.55392456, 0.00000000, 0.00000000, 0.00000000, 101.92150879, 26.60109711, 88.09570312, 1.00000000, 0.00000000, 0.00000000, 0.00000000, 0.32558683, 0.68735588, -0.25172013, 0.00000000, 0.00000000, 0.00000000, 0.00000000
1, 0.5400, 54, 0.17866801, -1.56202793, 0.55078745, -33.55703354, -96.11859131, -164.28323364, 0.00000000, 0.00000000, 0.00000000, 101.26718903, 28.40347862, 87.40624237, 1.00000000, 0.00000000, 0.00000000, 0.00000000, 0.28649938, 0.69467700, -0.37405142, 0.00000000, 0.00000000, 0.00000000, 0.00000000
1, 0.5500, 55, 0.16348121, -1.62250161, 0.57594448, -30.06548119, -118.59489441, -165.92086792, 0.00000000, 0.00000000, 0.00000000, 100.48743439, 30.25660133, 86.42946625, 1.00000000, 0.00000000, 0.00000000, 0.00000000, 0.32979780, 0.76807487, -0.41304249, 0.00000000, 0.00000000, 0.00000000, 0.00000000
1, 0.5600, 56, -0.03097587, -1.68794727, 0.54829216, -26.21684456, -148.34671021, -163.09890747, 0.00000000, 0.00000000, 0.00000000, 99.51119995, 32.12026596, 85.05265808, 1.00000000, 0.00000000, 0.00000000, 0.00000000, 0.55229723, 0.84734744, -0.40160951, 0.00000000, 0.00000000, 0.00000000, 0.00000000
1, 0.5700, 57, -0.01906163, -1.75367141, 0.53380615, -22.05242729, -185.84793091, -158.37722778, 0.00000000, 0.00000000, 0.00000000, 98.26182556, 33.93920135, 83.18103790, 1.00000000, 0.00000000, 0.00000000, 0.00000000, 0.56761825, 0.92734867, -0.40664139, 0.00000000, 0.00000000, 0.00000000, 0.00000000
1, 0.5800, 58, -0.47437960, -2.00288463, 0.51032162, -6.00793314, -232.79760742, -152.73992920, 0.00000000, 0.00000000, 0.00000000, 96.73143768, 35.75730896, 80.61122131, 1.00000000, 0.00000000, 0.00000000, 0.00000000, 1.04915595, 1.19135213, -0.40577638, 0.00000000, 0.00000000, 0.00000000, 0.00000000
1, 0.5900, 59, -0.71750504, -2.25336576, 0.64588338, -7.48307562, -278.31423950, -141.91903687, 0.00000000, 0.00000000, 0.00000000, 94.70310974, 37.44731522, 77.33789825, 1.00000000, 0.00000000, 0.00000000, 0.00000000, 1.31681001, 1.45663202, -0.56898493, 0.00000000, 0.00000000, 0.00000000, 0.00000000
1, 0.6000, 60, -0.91576004, -2.42106676, 0.84379441, -14.25308037, -294.57635498, -144.14529419, 0.00000000, 0.00000000, 0.00000000, 92.31163025, 39.06773758, 73.70632172, 1.00000000, 0.00000000, 0.00000000, 0.00000000, 1.53775764, 1.63939333, -0.79955339, 0.00000000, 0.00000000, 0.00000000, 0.00000000
1, 0.6100, 61, -0.76293057, -2.48333430, 0.70183116, -32.89712906, -278.63717651, -156.22357178, 0.00000000, 0.00000000, 0.00000000, 89.67839050, 40.67914963, 70.11167908, 1.00000000, 0.00000000, 0.00000000, 0.00000000, 1.40668702, 1.71826172, -0.69277531, 0.00000000, 0.00000000, 0.00000000, 0.00000000
1, 0.6200, 62, -0.51538223, -2.54871607, 0.82530254, -45.30772400, -224.42318726, -175.81904602, 0.00000000, 0.00000000, 0.00000000, 87.20960999, 42.36220169, 67.07008362, 1.00000000, 0.00000000, 0.00000000, 0.00000000, 1.18083179, 1.80278015, -0.84998804, 0.00000000, 0.00000000, 0.00000000, 0.00000000
1, 0.6300, 63, -0.31184331, -2.39783168, 1.11255813, -89.84935760, -125.10204315, -202.55654907, 0.00000000, 0.00000000, 0.00000000, 85.00789642, 44.30076218, 65.16744232, 1.00000000, 0.00000000, 0.00000000, 0.00000000, 1.00095320, 1.67518997, -1.16514111, 0.00000000, 0.00000000, 0.00000000, 0.00000000
1, 0.6400, 64, 0.10517807, -1.98168635, 1.12426662, -140.97782898, -54.40413666, -199.87234497, 0.00000000, 0.00000000, 0.00000000, 82.83969879, 46.23138428, 64.09932709, 1.00000000, 0.00000000, 0.00000000, 0.00000000, 0.60830247, 1.28539836, -1.20164084, 0.00000000, 0.00000000, 0.00000000, 0.00000000
1, 0.6500, 65, -0.07363237, -1.97579801, 0.98594403, -104.84310150, -80.86231232, -172.19042969, 0.00000000, 0.00000000, 0.00000000, 80.66450500, 47.81792831, 62.56170654, 1.00000000, 0.00000000, 0.00000000, 0.00000000, 0.80805320, 1.30468082, -1.08654797, 0.00000000, 0.00000000, 0.00000000, 0.00000000
1, 0.6600, 66, -0.42929259, -2.09740114, 0.72929329, -85.78713226, -111.57077789, -139.20481873, 0.00000000, 0.00000000, 0.00000000, 78.28476715, 48.98344421, 60.52804565, 1.00000000, 0.00000000, 0.00000000, 0.00000000, 1.17913723, 1.44750023, -0.85286248, 0.00000000, 0.00000000, 0.00000000, 0.00000000
1, 0.6700, 67, -0.02031386, -1.42966092, 0.36309505, -162.11636353, -121.10125732, -116.15899658, 0.00000000, 0.00000000, 0.00000000, 75.04183960, 49.77544785, 58.40712738, 1.00000000, 0.00000000, 0.00000000, 0.00000000, 0.78085601, 0.79895204, -0.51689863, 0.00000000, 0.00000000, 0.00000000, 0.00000000
1, 0.6800, 68, 1.13862133, -0.62950730, -0.24699193, -153.58567810, -131.02992249, -103.01111603, 0.00000000, 0.00000000, 0.00000000, 71.65147400, 50.38394547, 55.99115753, 1.00000000, 0.00000000, 0.00000000, 0.00000000, -0.37032607, 0.01783077, 0.05869012, 0.00000000, 0.00000000, 0.00000000, 0.00000000
1, 0.6900, 69, 1.42159283, -0.46424171, 1.18377113, -31.93908501, -112.02901459, -80.77465057, 0.00000000, 0.00000000, 0.00000000, 69.72241974, 50.77452087, 53.90395737, 1.00000000, 0.00000000, 0.00000000, 0.00000000, -0.64948571, -0.13375624, -1.39875245, 0.00000000, 0.00000000, 0.00000000, 0.00000000
1, 0.7000, 70, 0.01911579, -0.83353096, 1.01324749, 45.95653152, -15.52940178, -78.10551453, 0.00000000, 0.00000000, 0.00000000, 69.66385651, 51.45276642, 53.23870850, 1.00000000, 0.00000000, 0.00000000, 0.00000000, 0.76093793, 0.24693447, -1.23099208, 0.00000000, 0.00000000, 0.00000000, 0.00000000
1, 0.7100, 71, -0.70621347, -0.80930787, 0.32898635, 9.18140984, -2.64589190, -4.60202742, 0.00000000, 0.00000000, 0.00000000, 69.70440674, 51.48674011, 53.17319107, 1.00000000, 0.00000000, 0.00000000, 0.00000000, 1.48904443, 0.22562304, -0.54459625, 0.00000000, 0.00000000, 0.00000000, 0.00000000
1, 0.7200, 72, -0.63683593, -0.57401192, 0.04151755, -23.62960243, -12.39580727, 50.92945099, 0.00000000, 0.00000000, 0.00000000, 69.60591888, 50.68610001, 53.53502274, 1.00000000, 0.00000000, 0.00000000, 0.00000000, 1.41535974, -0.01430051, -0.26007327, 0.00000000, 0.00000000, 0.00000000, 0.00000000
1, 0.7300, 73, -0.10237744, -0.41753563, -0.15376401, -7.92286539, -39.31081772, 82.23336792, 0.00000000, 0.00000000, 0.00000000, 69.42980194, 49.77820206, 53.40902710, 1.00000000, 0.00000000, 0.00000000, 0.00000000, 0.87001473, -0.18275276, -0.07065756, 0.00000000, 0.00000000, 0.00000000, 0.00000000
1, 0.7400, 74, 0.15781078, -0.17259713, -0.08447596, -21.44708252, -30.34753227, 112.28812408, 0.00000000, 0.00000000, 0.00000000, 69.34389496, 48.62047195, 53.57946396, 1.00000000, 0.00000000, 0.00000000, 0.00000000, 0.59770882, -0.44040328, -0.14658070, 0.00000000, 0.00000000, 0.00000000, 0.00000000
1, 0.7500, 75, 0.02377980, 0.03915463, 0.02923088, 10.75676441, -11.34410572, 140.08164978, 0.00000000, 0.00000000, 0.00000000, 69.87513733, 47.26808929, 54.15043259, 1.00000000, 0.00000000, 0.00000000, 0.00000000, 0.71682984, -0.66903830, -0.26310027, 0.00000000, 0.00000000, 0.00000000, 0.00000000
1, 0.7600, 76, -0.13149898, -0.02202451, 0.08850869, 59.20065308, 25.42314911, 167.25585938, 0.00000000, 0.00000000, 0.00000000, 71.30579376, 45.77488327, 55.30706787, 1.00000000, 0.00000000, 0.00000000, 0.00000000, 0.85495806, -0.62961590, -0.31630874, 0.00000000, 0.00000000, 0.00000000, 0.00000000
1, 0.7700, 77, -0.15908401, -0.08920605, 0.09946464, 76.37380981, 56.77735519, 188.39680481, 0.00000000, 0.00000000, 0.00000000, 73.24148560, 44.10769272, 56.94931030, 1.00000000, 0.00000000, 0.00000000, 0.00000000, 0.86323291, -0.58779520, -0.31330419, 0.00000000, 0.00000000, 0.00000000, 0.00000000
1, 0.7800, 78, -0.13033371, -0.11117835, 0.13741216, 92.21211243, 77.86915588, 209.25808716, 0.00000000, 0.00000000, 0.00000000, 75.39889526, 42.30315399, 58.75379944, 1.00000000, 0.00000000, 0.00000000, 0.00000000, 0.81223840, -0.59383297, -0.33189803, 0.00000000, 0.00000000, 0.00000000, 0.00000000
1, 0.7900, 79, -0.11711914, -0.12492833, 0.09985521, 101.49348450, 99.73541260, 229.29881287, 0.00000000, 0.00000000, 0.00000000, 77.73428345, 40.30430222, 60.75431442, 1.00000000, 0.00000000, 0.00000000, 0.00000000, 0.77404177, -0.60915303, -0.27133384, 0.00000000, 0.00000000, 0.00000000, 0.00000000
1, 0.8000, 80, -0.17153205, -0.18050264, 0.11203567, 114.87233734, 121.14410400, 241.93434143, 0.00000000, 0.00000000, 0.00000000, 80.23166656, 38.16082382, 62.88669968, 1.00000000, 0.00000000, 0.00000000, 0.00000000, 0.80048120, -0.58326745, -0.25652111, 0.00000000, 0.00000000, 0.00000000, 0.00000000
1, 0.8100, 81, -0.23924178, -0.30021876, 0.14397036, 132.94923401, 142.08302307, 253.94686890, 0.00000000, 0.00000000, 0.00000000, 82.90166473, 35.85695648, 65.11343384, 1.00000000, 0.00000000, 0.00000000, 0.00000000, 0.83732045, -0.49306273, -0.25696078, 0.00000000, 0.00000000, 0.00000000, 0.00000000
1, 0.8200, 82, -0.21033233, -0.44237706, 0.15282688, 145.67787170, 159.74713135, 271.30599976, 0.00000000, 0.00000000, 0.00000000, 85.66828156, 33.26923752, 67.41751862, 1.00000000, 0.00000000, 0.00000000, 0.00000000, 0.77349496, -0.38016748, -0.23015015, 0.00000000, 0.00000000, 0.00000000, 0.00000000
1, 0.8300, 83, -0.06024884, -0.54333061, 0.17780644, 154.06112671, 169.96357727, 290.80041504, 0.00000000, 0.00000000, 0.00000000, 88.35873413, 30.45352936, 69.59407806, 1.00000000, 0.00000000, 0.00000000, 0.00000000, 0.58315319, -0.30796903, -0.21707565, 0.00000000, 0.00000000, 0.00000000, 0.00000000
1, 0.8400, 84, 0.06226207, -0.64341044, 0.18947695, 163.95581055, 177.99893188, 309.56814575, 0.00000000, 0.00000000, 0.00000000, 90.99192810, 27.36792946, 71.64730835, 1.00000000, 0.00000000, 0.00000000, 0.00000000, 0.41549823, -0.23487663, -0.18924730, 0.00000000, 0.00000000, 0.00000000, 0.00000000
1, 0.8500, 85, 0.06967847, -0.75328350, 0.19205302, 166.98028564, 180.54924011, 323.87545776, 0.00000000, 0.00000000, 0.00000000, 93.47084808, 24.06123352, 73.50897980, 1.00000000, 0.00000000, 0.00000000, 0.00000000, 0.35790744, -0.14957590, -0.15163141, 0.00000000, 0.00000000, 0.00000000, 0.00000000
1, 0.8600, 86, 0.02176926, -0.89585274, 0.17890093, 168.60241699, 175.43005371, 338.75704956, 0.00000000, 0.00000000, 0.00000000, 95.76366425, 20.54369164, 75.10379791, 1.00000000, 0.00000000, 0.00000000, 0.00000000, 0.35082063, -0.02850804, -0.09934424, 0.00000000, 0.00000000, 0.00000000, 0.00000000
1, 0.8700, 87, -0.00157868, -1.13136220, 0.15984550, 172.84069824, 166.86842346, 355.14093018, 0.00000000, 0.00000000, 0.00000000, 97.91024780, 16.80090523, 76.41963959, 1.00000000, 0.00000000, 0.00000000, 0.00000000, 0.31431085, 0.18908007, -0.04208628, 0.00000000, 0.00000000, 0.00000000, 0.00000000
1, 0.8800, 88, 0.12470515, -1.39152229, 0.19955541, 165.72834778, 160.71903992, 368.82235718, 0.00000000, 0.00000000, 0.00000000, 99.83847046, 12.90889549, 77.47268677, 1.00000000, 0.00000000, 0.00000000, 0.00000000, 0.12358936, 0.43535203, -0.04578981, 0.00000000, 0.00000000, 0.00000000, 0.00000000
1, 0.8900, 89, 0.51557052, -1.66320479, 0.30909869, 159.79075623, 164.79005432, 379.86248779, 0.00000000, 0.00000000, 0.00000000, 101.61270142, 8.87012672, 78.40108490, 1.00000000, 0.00000000, 0.00000000, 0.00000000, -0.33515471, 0.69777358, -0.12220460, 0.00000000, 0.00000000, 0.00000000, 0.00000000
1, 0.9000, 90, 1.01636446, -1.94799411, 0.30985254, 158.75869751, 146.24256897, 390.22592163, 0.00000000, 0.00000000, 0.00000000, 103.27362061, 4.74558353, 78.99205017, 1.00000000, 0.00000000, 0.00000000, 0.00000000, -0.90675342, 0.97843188, -0.09198677, 0.00000000, 0.00000000, 0.00000000, 0.00000000
1, 0.9100, 91, 1.01521099, -2.07592869, 0.37026811, 150.24301147, 104.86393738, 397.41946411, 0.00000000, 0.00000000, 0.00000000, 104.78022003, 0.63634610, 79.04609680, 1.00000000, 0.00000000, 0.00000000, 0.00000000, -0.97729814, 1.10748720, -0.12485160, 0.00000000, 0.00000000, 0.00000000, 0.00000000
1, 0.9200, 92, 0.92429727, -2.21351433, 0.49012941, 154.04737854, 110.10491180, 391.95742798, 0.00000000, 0.00000000, 0.00000000, 106.31893921, -3.42478752, 79.04866791, 1.00000000, 0.00000000, 0.00000000, 0.00000000, -0.95760792, 1.25176406, -0.21905866, 0.00000000, 0.00000000, 0.00000000, 0.00000000
1, 0.9300, 93, 0.98469567, -2.30832839, 0.45959157, 141.46800232, 114.46383667, 374.92611694, 0.00000000, 0.00000000, 0.00000000, 107.73460388, -7.34462547, 79.04477692, 1.00000000, 0.00000000, 0.00000000, 0.00000000, -1.08728802, 1.35836148, -0.16526106, 0.00000000, 0.00000000, 0.00000000, 0.00000000
1, 0.9400, 94, 1.23477995, -2.33372545, 0.31555727, 124.29043579, 108.51501465, 360.80447388, 0.00000000, 0.00000000, 0.00000000, 108.99510193, -11.11071587, 78.93589020, 1.00000000, 0.00000000, 0.00000000, 0.00000000, -1.40339637, 1.39933896, -0.00231461, 0.00000000, 0.00000000, 0.00000000, 0.00000000
1, 0.9500, 95, 1.60824740, -2.51550412, 0.38597402, 125.57305145, 141.55363464, 337.34442139, 0.00000000, 0.00000000, 0.00000000, 110.20239258, -14.76408195, 79.14405060, 1.00000000, 0.00000000, 0.00000000, 0.00000000, -1.84003425, 1.60009623, -0.05741025, 0.00000000, 0.00000000, 0.00000000, 0.00000000
1, 0.9600, 96, 1.68564069, -2.23628664, 0.43207225, 99.53073883, 155.54606628, 301.46487427, 0.00000000, 0.00000000, 0.00000000, 111.08132935, -18.13409615, 79.55117035, 1.00000000, 0.00000000, 0.00000000, 0.00000000, -1.97626424, 1.34197557, -0.09226546, 0.00000000, 0.00000000, 0.00000000, 0.00000000
1, 0.9700, 97, 2.13667202, -1.66330731, 0.07984430, 87.87148285, 160.87748718, 257.36254883, 0.00000000, 0.00000000, 0.00000000, 111.75683594, -21.09879494, 80.13133240, 1.00000000, 0.00000000, 0.00000000, 0.00000000, -2.47921371, 0.78916717, 0.26415181, 0.00000000, 0.00000000, 0.00000000, 0.00000000
1, 0.9800, 98, 2.68410254, -1.32242668, 0.01208110, 95.71945953, 118.90550232, 202.01684570, 0.00000000, 0.00000000, 0.00000000, 112.57599640, -23.41785812, 80.49800873, 1.00000000, 0.00000000, 0.00000000, 0.00000000, -3.06852007, 0.46820170, 0.33776391, 0.00000000, 0.00000000, 0.00000000, 0.00000000
1, 0.9900, 99, 2.78593516, -0.97085124, -0.28454599, 85.87326050, 37.12027740, 145.57832336, 0.00000000, 0.00000000, 0.00000000, 113.53842926, -24.90194130, 80.24880981, 1.00000000, 0.00000000, 0.00000000, 0.00000000, -3.19923234, 0.13356283, 0.64241195, 0.00000000, 0.00000000, 0.00000000, 0.00000000
1, 1.0000, 100, 2.78862190, -1.10395706, -0.22350104, 86.45721436, -43.30713654, 98.09273529, 0.00000000, 0.00000000, 0.00000000, 114.77959442, -25.61917114, 79.36855316, 1.00000000, 0.00000000, 0.00000000, 0.00000000, -3.21752977, 0.28078365, 0.59550107, 0.00000000, 0.00000000, 0.00000000, 0.00000000
1, 1.0100, 101, 2.55944371, -1.33639848, -0.06201918, 50.43618393, -68.60509491, 52.77257538, 0.00000000, 0.00000000, 0.00000000, 115.69171143, -25.80336952, 78.43041229, 1.00000000, 0.00000000, 0.00000000, 0.00000000, -2.99447584, 0.52305496, 0.44829109, 0.00000000, 0.00000000, 0.00000000, 0.00000000
1, 1.0200, 102, 1.91241884, -1.24784446, -0.32955429, -11.90048981, -85.45284271, -5.75771332, 0.00000000, 0.00000000, 0.00000000, 115.90438843, -25.32898521, 77.57769012, 1.00000000, 0.00000000, 0.00000000, 0.00000000, -2.34407616, 0.43625814, 0.72324371, 0.00000000, 0.00000000, 0.00000000, 0.00000000
1, 1.0300, 103, 1.44724059, -1.09094059, -0.39802620, -38.30420685, -89.62628937, -75.09537506, 0.00000000, 0.00000000, 0.00000000, 115.74414062, -24.26225662, 77.04918671, 1.00000000, 0.00000000, 0.00000000, 0.00000000, -1.86526549, 0.27329516, 0.79385298, 0.00000000, 0.00000000, 0.00000000, 0.00000000
1, 1.0400, 104, 1.35247695, -1.04496729, -0.25970182, -57.48959351, -47.07905960, -150.81277466, 0.00000000, 0.00000000, 0.00000000, 115.07447815, -22.69740677, 77.29129028, 1.00000000, 0.00000000, 0.00000000, 0.00000000, -1.74821389, 0.21521418, 0.65318477, 0.00000000, 0.00000000, 0.00000000, 0.00000000
1, 1.0500, 105, 1.43397081, -1.17432320, -0.13993323, -63.24788666, 21.82393837, -210.45954895, 0.00000000, 0.00000000, 0.00000000, 114.01522827, -20.87270164, 78.44608307, 1.00000000, 0.00000000, 0.00000000, 0.00000000, -1.80162632, 0.32765189, 0.52447367, 0.00000000, 0.00000000, 0.00000000, 0.00000000
1, 1.0600, 106, 0.70929831, -1.12708104, 0.51268625, -78.36332703, 85.75727844, -247.65142822, 0.00000000, 0.00000000, 0.00000000, 112.59362030, -18.93669891, 80.32595825, 1.00000000, 0.00000000, 0.00000000, 0.00000000, -1.04589975, 0.26136672, -0.14241347, 0.00000000, 0.00000000, 0.00000000, 0.00000000
1, 1.0700, 107, -2.76917005, -1.64318156, 1.70243502, -35.69739151, 277.27957153, -255.90769958, 0.00000000, 0.00000000, 0.00000000, 111.08006287, -17.59164429, 84.04095459, 1.00000000, 0.00000000, 0.00000000, 0.00000000, 2.46018219, 0.75892830, -1.35237670, 0.00000000, 0.00000000, 0.00000000, 0.00000000
1, 1.0800, 108, -2.27255273, -2.54988241, -0.33154872, -6.15500927, 57.44254303, -88.31432343, 0.00000000, 0.00000000, 0.00000000, 110.75106049, -16.97258377, 84.93375397, 1.00000000, 0.00000000, 0.00000000, 0.00000000, 1.97654939, 1.65739727, 0.67190421, 0.00000000, 0.00000000, 0.00000000, 0.00000000
1, 1.0900, 109, 0.79434389, -2.15459323, -0.48861429, -106.09239197, 3.64362788, -139.01538086, 0.00000000, 0.00000000, 0.00000000, 109.53980255, -15.67984486, 85.46668243, 1.00000000, 0.00000000, 0.00000000, 0.00000000, -1.07381511, 1.25227344, 0.81668919, 0.00000000, 0.00000000, 0.00000000, 0.00000000
1, 1.1000, 110, 2.32518148, -1.96058762, -0.84257096, -64.63895416, -41.40458679, -180.23193359, 0.00000000, 0.00000000, 0.00000000, 108.83959961, -13.84184074, 85.67475128, 1.00000000, 0.00000000, 0.00000000, 0.00000000, -2.57658601, 1.04603934, 1.15927708, 0.00000000, 0.00000000, 0.00000000, 0.00000000
1, 1.1100, 111, 1.28790987, -1.64790702, 0.37717533, -61.47656631, -35.25014877, -216.03633118, 0.00000000, 0.00000000, 0.00000000, 108.14617920, -11.68092823, 86.03392029, 1.00000000, 0.00000000, 0.00000000, 0.00000000, -1.50423121, 0.72151977, -0.06913465, 0.00000000, 0.00000000, 0.00000000, 0.00000000
1, 1.1200, 112, -0.31636479, -1.07975471, 0.16832031, -50.74744034, -26.76918983, -192.32131958, 0.00000000, 0.00000000, 0.00000000, 107.49600220, -9.81722069, 86.45314789, 1.00000000, 0.00000000, 0.00000000, 0.00000000, 0.13478741, 0.14325389, 0.13152842, 0.00000000, 0.00000000, 0.00000000, 0.00000000
1, 1.1300, 113, 0.12298360, -0.78637177, -0.16458258, -21.98665237, -54.05802155, -156.70182800, 0.00000000, 0.00000000, 0.00000000, 107.28418732, -8.16025829, 86.40411377, 1.00000000, 0.00000000, 0.00000000, 0.00000000, -0.27551895, -0.15701106, 0.45902544, 0.00000000, 0.00000000, 0.00000000, 0.00000000
1, 1.1400, 114, 0.84898698, -0.66431010, 0.26683855, -2.50130177, -0.55159366, -161.13926697, 0.00000000, 0.00000000, 0.00000000, 107.19954681, -6.61961079, 86.88037872, 1.00000000, 0.00000000, 0.00000000, 0.00000000, -0.97412896, -0.28324586, 0.02713687, 0.00000000, 0.00000000, 0.00000000, 0.00000000
1, 1.1500, 115, 0.80631202, -0.64997071, 0.41453245, 0.69762653, 54.71165848, -163.74676514, 0.00000000, 0.00000000, 0.00000000, 107.10298920, -5.21618080, 87.89126587, 1.00000000, 0.00000000, 0.00000000, 0.00000000, -0.90614945, -0.30085200, -0.12140632, 0.00000000, 0.00000000, 0.00000000, 0.00000000
1, 1.1600, 116, 0.57567769, -0.74764454, 0.70006186, 8.73295116, 70.89801788, -152.06982422, 0.00000000, 0.00000000, 0.00000000, 107.10035706, -3.97101736, 89.01950836, 1.00000000, 0.00000000, 0.00000000, 0.00000000, -0.65285140, -0.20532088, -0.40703398, 0.00000000, 0.00000000, 0.00000000, 0.00000000
1, 1.1700, 117, 0.57074982, -0.88587916, 0.60855192, 8.40913773, 77.59730530, -139.02000427, 0.00000000, 0.00000000, 0.00000000, 107.15988159, -2.76513386, 90.07434845, 1.00000000, 0.00000000, 0.00000000, 0.00000000, -0.62733394, -0.06814039, -0.31425637, 0.00000000, 0.00000000, 0.00000000, 0.00000000
1, 1.1800, 118, 0.70313120, -0.76636034, 0.65055537, -14.85921955, 49.00861359, -126.05289459, 0.00000000, 0.00000000, 0.00000000, 106.97759247, -1.70404553, 90.91336823, 1.00000000, 0.00000000, 0.00000000, 0.00000000, -0.73994601, -0.18908292, -0.35773414, 0.00000000, 0.00000000, 0.00000000, 0.00000000
1, 1.1900, 119, 0.82832223, -0.86430031, 0.54598749, 7.08965969, -13.35237408, -111.02751160, 0.00000000, 0.00000000, 0.00000000, 107.04337311, -0.60320580, 91.11059570, 1.00000000, 0.00000000, 0.00000000, 0.00000000, -0.84597427, -0.09173654, -0.25332183, 0.00000000, 0.00000000, 0.00000000, 0.00000000
1, 1.2000, 120, 0.91329437, -0.97751206, 0.37542716, -15.06295395, -81.05337524, -87.26570129, 0.00000000, 0.00000000, 0.00000000, 106.89250183, 0.46797574, 90.59020233, 1.00000000, 0.00000000, 0.00000000, 0.00000000, -0.91214168, 0.02101648, -0.08373069, 0.00000000, 0.00000000, 0.00000000, 0.00000000
1, 1.2100, 121, 0.65951180, -0.97748160, 0.38046420, -17.50275612, -123.89868927, -65.60452271, 0.00000000, 0.00000000, 0.00000000, 106.70021057, 1.45407307, 89.59360504, 1.00000000, 0.00000000, 0.00000000, 0.00000000, -0.64035559, 0.02022932, -0.09188513, 0.00000000, 0.00000000, 0.00000000, 0.00000000
1, 1.2200, 122, 0.49739981, -0.99159443, 0.19010706, -11.68465614, -113.66997528, -52.57077408, 0.00000000, 0.00000000, 0.00000000, 106.50190735, 2.37478089, 88.61127472, 1.00000000, 0.00000000, 0.00000000, 0.00000000, -0.46242580, 0.03377567, 0.09509238, 0.00000000, 0.00000000, 0.00000000, 0.00000000
1, 1.2300, 123, 0.20083657, -1.13470209, -0.02841838, -4.04887390, -95.43056488, -52.62419128, 0.00000000, 0.00000000, 0.00000000, 106.42463684, 3.14996624, 87.84439087, 1.00000000, 0.00000000, 0.00000000, 0.00000000, -0.15095106, 0.17687315, 0.31136781, 0.00000000, 0.00000000, 0.00000000, 0.00000000
1, 1.2400, 124, -0.09655099, -1.19347095, -0.07484982, -14.19326401, -82.94330597, -54.97768402, 0.00000000, 0.00000000, 0.00000000, 106.24330139, 3.91098690, 87.20199585, 1.00000000, 0.00000000, 0.00000000, 0.00000000, 0.15987237, 0.23570178, 0.35530305, 0.00000000, 0.00000000, 0.00000000, 0.00000000
1, 1.2500, 125, -0.16921887, -1.04315078, -0.08301550, -20.19286728, -36.36964798, -58.50248337, 0.00000000, 0.00000000, 0.00000000, 106.02807617, 4.57421923, 87.01471710, 1.00000000, 0.00000000, 0.00000000, 0.00000000, 0.24477097, 0.08514547, 0.35961381, 0.00000000, 0.00000000, 0.00000000, 0.00000000
1, 1.2600, 126, -0.12379446, -0.99668831, 0.03730022, -12.08678246, 33.25868988, -70.94017792, 0.00000000, 0.00000000, 0.00000000, 105.95182800, 5.16479731, 87.53161621, 1.00000000, 0.00000000, 0.00000000, 0.00000000, 0.21008095, 0.03884079, 0.23669729, 0.00000000, 0.00000000, 0.00000000, 0.00000000
1, 1.2700, 127, 0.23445052, -0.99319607, 0.20431133, -20.98587990, 84.13188934, -77.87862396, 0.00000000, 0.00000000, 0.00000000, 105.82802582, 5.74572659, 88.52103424, 1.00000000, 0.00000000, 0.00000000, 0.00000000, -0.13850906, 0.03579333, 0.06802353, 0.00000000, 0.00000000, 0.00000000, 0.00000000
1, 1.2800, 128, 0.55387074, -0.91595632, 0.43744010, -17.26883316, 67.53338623, -69.07274628, 0.00000000, 0.00000000, 0.00000000, 105.74316406, 6.22660160, 89.36344910, 1.00000000, 0.00000000, 0.00000000, 0.00000000, -0.44841486, -0.04098946, -0.16701764, 0.00000000, 0.00000000, 0.00000000, 0.00000000
1, 1.2900, 129, 0.78466117, -0.79377282, 0.51598853, -18.25958824, 33.66645432, -55.18057632, 0.00000000, 0.00000000, 0.00000000, 105.61363983, 6.66683435, 89.83963013, 1.00000000, 0.00000000, 0.00000000, 0.00000000, -0.67150640, -0.16293480, -0.24784385, 0.00000000, 0.00000000, 0.00000000, 0.00000000
1, 1.3000, 130, 0.66805208, -0.72303957, 0.52513331, -4.07130909, -19.68682289, -46.44619751, 0.00000000, 0.00000000, 0.00000000, 105.56473541, 7.16709328, 89.77429962, 1.00000000, 0.00000000, 0.00000000, 0.00000000, -0.54661298, -0.23306568, -0.25846997, 0.00000000, 0.00000000, 0.00000000, 0.00000000
1, 1.3100, 131, 0.34389615, -0.73416692, 0.42808652, 0.69042337, -52.82641983, -40.49048996, 0.00000000, 0.00000000, 0.00000000, 105.51926422, 7.69868183, 89.37037659, 1.00000000, 0.00000000, 0.00000000, 0.00000000, -0.21335247, -0.22107810, -0.16264601, 0.00000000, 0.00000000, 0.00000000, 0.00000000
1, 1.3200, 132, 0.11245349, -0.85275531, 0.37990850, 9.08974361, -47.93941879, -41.95310974, 0.00000000, 0.00000000, 0.00000000, 105.63429260, 8.19122314, 89.02410126, 1.00000000, 0.00000000, 0.00000000, 0.00000000, 0.02707351, -0.10115759, -0.11424671, 0.00000000, 0.00000000, 0.00000000, 0.00000000
1, 1.3300, 133, 0.06048673, -0.95662242, 0.30962044, 1.85757518, -20.40190887, -45.82723236, 0.00000000, 0.00000000, 0.00000000, 105.64219666, 8.68752575, 88.95042419, 1.00000000, 0.00000000, 0.00000000, 0.00000000, 0.08743279, 0.00425978, -0.04293783, 0.00000000, 0.00000000, 0.00000000, 0.00000000
1, 1.3400, 134, 0.28949884, -0.94265234, 0.31256029, -7.80696583, -3.77793384, -48.52281570, 0.00000000, 0.00000000, 0.00000000, 105.57899475, 9.16502476, 89.04578400, 1.00000000, 0.00000000, 0.00000000, 0.00000000, -0.13333394, -0.00867207, -0.04687463, 0.00000000, 0.00000000, 0.00000000, 0.00000000
1, 1.3500, 135, 0.25808150, -0.99080062, 0.24899453, -2.34686995, 1.28468275, -49.03743362, 0.00000000, 0.00000000, 0.00000000, 105.57930756, 9.63391304, 89.19180298, 1.00000000, 0.00000000, 0.00000000, 0.00000000, -0.09377013, 0.04064548, 0.01596162, 0.00000000, 0.00000000, 0.00000000, 0.00000000
1, 1.3600, 136, 0.33691287, -1.00795102, 0.28438437, -4.21534252, -8.59335613, -49.63849258, 0.00000000, 0.00000000, 0.00000000, 105.54589844, 10.13514614, 89.24291992, 1.00000000, 0.00000000, 0.00000000, 0.00000000, -0.16420756, 0.05905867, -0.02024434, 0.00000000, 0.00000000, 0.00000000, 0.00000000
1, 1.3700, 137, 0.32105273, -1.01387894, 0.26831180, -0.39482051, -14.90709496, -49.79468155, 0.00000000, 0.00000000, 0.00000000, 105.50794220, 10.73258781, 89.18768311, 1.00000000, 0.00000000, 0.00000000, 0.00000000, -0.13919972, 0.06648128, -0.00495237, 0.00000000, 0.00000000, 0.00000000, 0.00000000
1, 1.3800, 138, 0.28377038, -0.98076522, 0.22729985, 1.74969089, -24.63695717, -52.49051666, 0.00000000, 0.00000000, 0.00000000, 105.50652313, 11.30424786, 89.08879089, 1.00000000, 0.00000000, 0.00000000, 0.00000000, -0.09147236, 0.03515042, 0.03504742, 0.00000000, 0.00000000, 0.00000000, 0.00000000
1, 1.3900, 139, 0.09585536, -1.03041959, 0.12856200, 4.65329695, -24.31299973, -57.85948944, 0.00000000, 0.00000000, 0.00000000, 105.53674316, 11.92678452, 89.00765991, 1.00000000, 0.00000000, 0.00000000, 0.00000000, 0.10674350, 0.08687963, 0.13349977, 0.00000000, 0.00000000, 0.00000000, 0.00000000
1, 1.4000, 140, -0.04615510, -1.04833817, 0.16542892, -6.25631714, -14.17031097, -65.16600800, 0.00000000, 0.00000000, 0.00000000, 105.48258972, 12.59260368, 89.04637146, 1.00000000, 0.00000000, 0.00000000, 0.00000000, 0.25985610, 0.10702023, 0.09580225, 0.00000000, 0.00000000, 0.00000000, 0.00000000
1, 1.4100, 141, 0.08776920, -1.00412619, 0.26095614, -14.57382011, -1.01887059, -75.42615509, 0.00000000, 0.00000000, 0.00000000, 105.38095093, 13.32240295, 89.24225616, 1.00000000, 0.00000000, 0.00000000, 0.00000000, 0.13793740, 0.06500192, -0.00194109, 0.00000000, 0.00000000, 0.00000000, 0.00000000
1, 1.4200, 142, 0.19096452, -0.97666204, 0.25845981, -17.23833084, 5.90942049, -82.57401276, 0.00000000, 0.00000000, 0.00000000, 105.28443909, 14.09425545, 89.53024292, 1.00000000, 0.00000000, 0.00000000, 0.00000000, 0.04763727, 0.04007441, -0.00183131, 0.00000000, 0.00000000, 0.00000000, 0.00000000
1, 1.4300, 143, 0.34685516, -1.01851380, 0.34057093, -14.79902649, -2.52797508, -86.78064728, 0.00000000, 0.00000000, 0.00000000, 105.18898010, 14.93817329, 89.74056244, 1.00000000, 0.00000000, 0.00000000, 0.00000000, -0.09450109, 0.08484785, -0.08646838, 0.00000000, 0.00000000, 0.00000000, 0.00000000
1, 1.4400, 144, 0.42570695, -1.08642447, 0.44048521, -15.96738434, -14.96857262, -88.54042816, 0.00000000, 0.00000000, 0.00000000, 105.05296326, 15.83193970, 89.83026123, 1.00000000, 0.00000000, 0.00000000, 0.00000000, -0.15857467, 0.15608481, -0.18931049, 0.00000000, 0.00000000, 0.00000000, 0.00000000
1, 1.4500, 145, 0.35068890, -1.10914183, 0.42359826, -13.39172173, -33.56338882, -86.98876190, 0.00000000, 0.00000000, 0.00000000, 104.88958740, 16.75895309, 89.72658539, 1.00000000, 0.00000000, 0.00000000, 0.00000000, -0.06823142, 0.18238051, -0.17598958, 0.00000000, 0.00000000, 0.00000000, 0.00000000
1, 1.4600, 146, 0.35830283, -1.11849880, 0.53467965, -16.58913231, -46.93941116, -90.97463989, 0.00000000, 0.00000000, 0.00000000, 104.65468597, 17.75829887, 89.49417114, 1.00000000, 0.00000000, 0.00000000, 0.00000000, -0.05963681, 0.19557635, -0.29180685, 0.00000000, 0.00000000, 0.00000000, 0.00000000
1, 1.4700, 147, 0.02850200, -1.21307540, 0.49294934, -13.60223675, -56.76191711, -95.85176849, 0.00000000, 0.00000000, 0.00000000, 104.44412994, 18.76922607, 89.20539856, 1.00000000, 0.00000000, 0.00000000, 0.00000000, 0.28725722, 0.29456919, -0.25500584, 0.00000000, 0.00000000, 0.00000000, 0.00000000
1, 1.4800, 148, -0.00184674, -1.23999763, 0.48773399, -27.96765900, -55.77621841, -102.19150543, 0.00000000, 0.00000000, 0.00000000, 104.06316376, 19.89704895, 88.89923096, 1.00000000, 0.00000000, 0.00000000, 0.00000000, 0.33512932, 0.32604083, -0.25627896, 0.00000000, 0.00000000, 0.00000000, 0.00000000
1, 1.4900, 149, 0.08476055, -1.22781861, 0.38108757, -26.29239273, -55.87445068, -112.78266144, 0.00000000, 0.00000000, 0.00000000, 103.69843292, 21.12594032, 88.60881805, 1.00000000, 0.00000000, 0.00000000, 0.00000000, 0.26797378, 0.31925303, -0.15737446, 0.00000000, 0.00000000, 0.00000000, 0.00000000
1, 1.5000, 150, 0.07367384, -1.36166608, 0.34931839, -25.75184441, -61.24173737, -123.84201050, 0.00000000, 0.00000000, 0.00000000, 103.31858063, 22.47317696, 88.27903748, 1.00000000, 0.00000000, 0.00000000, 0.00000000, 0.30029440, 0.45972881, -0.13342462, 0.00000000, 0.00000000, 0.00000000, 0.00000000
1, 1.5100, 151, 0.13458486, -1.48642337, 0.39512140, -31.86611938, -63.61051178, -133.68212891, 0.00000000, 0.00000000, 0.00000000, 102.86418152, 23.91935349, 87.93447113, 1.00000000, 0.00000000, 0.00000000, 0.00000000, 0.26204449, 0.59215003, -0.18798512, 0.00000000, 0.00000000, 0.00000000, 0.00000000
1, 1.5200, 152, 0.13959187, -1.51768327, 0.46016142, -37.04687500, -71.56311035, -141.60461426, 0.00000000, 0.00000000, 0.00000000, 102.32360077, 25.42740250, 87.52591705, 1.00000000, 0.00000000, 0.00000000, 0.00000000, 0.28090233, 0.63204253, -0.26327482, 0.00000000, 0.00000000, 0.00000000, 0.00000000
1, 1.5300, 153, 0.16716652, -1.56047392, 0.54244137, -35.30509186, -83.54163361, -146.87687683, 0.00000000, 0.00000000, 0.00000000, 101.71831512, 27.03787041, 86.95587921, 1.00000000, 0.00000000, 0.00000000, 0.00000000, 0.27791104, 0.68442005, -0.35705927, 0.00000000, 0.00000000, 0.00000000, 0.00000000
1, 1.5400, 154, 0.10213415, -1.62606227, 0.47779715, -33.39321136, -100.80127716, -148.71368408, 0.00000000, 0.00000000, 0.00000000, 101.01625824, 28.69441414, 86.16955566, 1.00000000, 0.00000000, 0.00000000, 0.00000000, 0.36840391, 0.76080763, -0.30501622, 0.00000000, 0.00000000, 0.00000000, 0.00000000
1, 1.5500, 155, -0.01047636, -1.66688728, 0.43975759, -29.48117447, -124.51547241, -148.06120300, 0.00000000, 0.00000000, 0.00000000, 100.18148804, 30.37865639, 85.07570648, 1.00000000, 0.00000000, 0.00000000, 0.00000000, 0.50662196, 0.81325322, -0.28142953, 0.00000000, 0.00000000, 0.00000000, 0.00000000
1, 1.5600, 156, -0.04723873, -1.72728395, 0.34436718, -26.85316277, -158.01159668, -143.90347290, 0.00000000, 0.00000000, 0.00000000, 99.11396790, 32.06205750, 83.53610229, 1.00000000, 0.00000000, 0.00000000, 0.00000000, 0.56869274, 0.88584721, -0.20301062, 0.00000000, 0.00000000, 0.00000000, 0.00000000
1, 1.5700, 157, -0.22297224, -1.84399652, 0.32239383, -22.69768715, -198.38035583, -139.82798767, 0.00000000, 0.00000000, 0.00000000, 97.74996185, 33.70047379, 81.46730042, 1.00000000, 0.00000000, 0.00000000, 0.00000000, 0.76906323, 1.01508498, -0.20158751, 0.00000000, 0.00000000, 0.00000000, 0.00000000
1, 1.5800, 158, -0.64617378, -1.96760678, 0.39933071, -19.90187836, -245.73587036, -135.06578064, 0.00000000, 0.00000000, 0.00000000, 95.98271179, 35.33542633, 78.70227814, 1.00000000, 0.00000000, 0.00000000, 0.00000000, 1.21584129, 1.15138221, -0.30372649, 0.00000000, 0.00000000, 0.00000000, 0.00000000
1, 1.5900, 159, -0.85916436, -2.15217566, 0.56256396, -21.26439095, -280.05020142, -130.50135803, 0.00000000, 0.00000000, 0.00000000, 93.81523132, 36.87531281, 75.38666534, 1.00000000, 0.00000000, 0.00000000, 0.00000000, 1.45124376, 1.34903800, -0.49713612, 0.00000000, 0.00000000, 0.00000000, 0.00000000
1, 1.6000, 160, -0.90079659, -2.34473491, 0.72278893, -28.58268356, -280.23937988, -139.81106567, 0.00000000, 0.00000000, 0.00000000, 91.42056274, 38.40119171, 71.93241119, 1.00000000, 0.00000000, 0.00000000, 0.00000000, 1.51397181, 1.55553496, -0.69059384, 0.00000000, 0.00000000, 0.00000000, 0.00000000
1, 1.6100, 161, -0.64149952, -2.52722597, 0.75878519, -46.72150040, -240.80621338, -164.11294556, 0.00000000, 0.00000000, 0.00000000, 88.99407196, 40.05228424, 68.83168030, 1.00000000, 0.00000000, 0.00000000, 0.00000000, 1.27647209, 1.75478911, -0.76017457, 0.00000000, 0.00000000, 0.00000000, 0.00000000
1, 1.6200, 162, -0.48692065, -2.61401010, 1.01244235, -62.52146530, -159.92259216, -192.67955017, 0.00000000, 0.00000000, 0.00000000, 86.93452454, 41.90855026, 66.63983154, 1.00000000, 0.00000000, 0.00000000, 0.00000000, 1.14552867, 1.86224043, -1.04309905, 0.00000000, 0.00000000, 0.00000000, 0.00000000
1, 1.6300, 163, -0.24387604, -2.36031890, 1.26648200, -104.84957886, -60.39004517, -208.66220093, 0.00000000, 0.00000000, 0.00000000, 85.19660187, 43.95087433, 65.62397766, 1.00000000, 0.00000000, 0.00000000, 0.00000000, 0.92817414, 1.63312769, -1.31932008, 0.00000000, 0.00000000, 0.00000000, 0.00000000
1, 1.6400, 164, -0.02301924, -1.99744344, 1.15963495, -146.72192383, -30.45645523, -195.61738586, 0.00000000, 0.00000000, 0.00000000, 83.22956085, 45.86557770, 64.91764069, 1.00000000, 0.00000000, 0.00000000, 0.00000000, 0.73210138, 1.29628301, -1.23341584, 0.00000000, 0.00000000, 0.00000000, 0.00000000
1, 1.6500, 165, -0.40235054, -1.98763406, 1.09369755, -104.85078430, -55.71687317, -172.83882141, 0.00000000, 0.00000000, 0.00000000, 81.34872437, 47.50323486, 63.77450943, 1.00000000, 0.00000000, 0.00000000, 0.00000000, 1.13268459, 1.31118608, -1.18820441, 0.00000000, 0.00000000, 0.00000000, 0.00000000
1, 1.6600, 166, -0.36489651, -1.85880494, 0.78491700, -122.08850098, -62.01688385, -145.43843079, 0.00000000, 0.00000000, 0.00000000, 79.17134094, 48.83248520, 62.49132919, 1.00000000, 0.00000000, 0.00000000, 0.00000000, 1.11213517, 1.20432127, -0.89977252, 0.00000000, 0.00000000, 0.00000000, 0.00000000
1, 1.6700, 167, 0.21789059, -1.13973665, 0.44278619, -178.52409363, -50.47309494, -130.54226685, 0.00000000, 0.00000000, 0.00000000, 76.49292755, 49.98185730, 61.32929993, 1.00000000, 0.00000000, 0.00000000, 0.00000000, 0.54322869, 0.50655150, -0.58303666, 0.00000000, 0.00000000, 0.00000000, 0.00000000
1, 1.6800, 168, 1.67797220, -0.71380806, -0.03927136, -100.69090271, -88.74897766, -96.09040070, 0.00000000, 0.00000000, 0.00000000, 74.15497589, 50.68369675, 59.60253143, 1.00000000, 0.00000000, 0.00000000, 0.00000000, -0.90646392, 0.09939615, -0.12570418, 0.00000000, 0.00000000, 0.00000000, 0.00000000
1, 1.6900, 169, 0.89309520, -0.82649457, 1.44633782, 3.24546361, -24.25793648, -101.02951813, 0.00000000, 0.00000000, 0.00000000, 73.55023956, 51.58623886, 58.78213882, 1.00000000, 0.00000000, 0.00000000, 0.00000000, -0.11373349, 0.22531816, -1.62284994, 0.00000000, 0.00000000, 0.00000000, 0.00000000
1, 1.7000, 170, -0.19061951, -0.91606438, 0.75532466, 34.61238098, -18.11034775, -58.67801666, 0.00000000, 0.00000000, 0.00000000, 73.46312714, 52.09749603, 58.23132324, 1.00000000, 0.00000000, 0.00000000, 0.00000000, 0.97810352, 0.32511824, -0.93038785, 0.00000000, 0.00000000, 0.00000000, 0.00000000
1, 1.7100, 171, -0.66980124, -0.72723264, 0.37940180, -35.30636978, -15.11594486, 4.42255640, 0.00000000, 0.00000000, 0.00000000, 72.94113159, 52.01160812, 58.01726532, 1.00000000, 0.00000000, 0.00000000, 0.00000000, 1.45888674, 0.13924587, -0.55719793, 0.00000000, 0.00000000, 0.00000000, 0.00000000
1, 1.7200, 172, -0.40885141, -0.43255779, 0.07057405, -33.53696060, -44.18645859, 58.49804688, 0.00000000, 0.00000000, 0.00000000, 72.32707214, 51.18149185, 57.74040222, 1.00000000, 0.00000000, 0.00000000, 0.00000000, 1.19236481, -0.16013415, -0.25711876, 0.00000000, 0.00000000, 0.00000000, 0.00000000
1, 1.7300, 173, -0.00376119, -0.30145881, -0.12644556, -9.70793343, -64.30531311, 97.48229218, 0.00000000, 0.00000000, 0.00000000, 71.84954071, 50.05615997, 57.24855423, 1.00000000, 0.00000000, 0.00000000, 0.00000000, 0.77543628, -0.30347750, -0.06985728, 0.00000000, 0.00000000, 0.00000000, 0.00000000
1, 1.7400, 174, 0.10084398, -0.09966714, -0.12818165, -15.84388924, -55.28173065, 131.78713989, 0.00000000, 0.00000000, 0.00000000, 71.56134796, 48.63141632, 57.07823563, 1.00000000, 0.00000000, 0.00000000, 0.00000000, 0.65597713, -0.52063906, -0.07770859, 0.00000000, 0.00000000, 0.00000000, 0.00000000
1, 1.7500, 175, 0.02606127, 0.05473776, -0.01607012, 21.80458450, -39.57794952, 161.03253174, 0.00000000, 0.00000000, 0.00000000, 71.92213440, 46.97819519, 57.27161407, 1.00000000, 0.00000000, 0.00000000, 0.00000000, 0.71249545, -0.69486874, -0.19534661, 0.00000000, 0.00000000, 0.00000000, 0.00000000
1, 1.7600, 176, -0.12360961, -0.01211647, 0.10029453, 64.79389191, -13.67268181, 178.83590698, 0.00000000, 0.00000000, 0.00000000, 72.99475861, 45.23167801, 57.86165237, 1.00000000, 0.00000000, 0.00000000, 0.00000000, 0.84159517, -0.65188980, -0.30887106, 0.00000000, 0.00000000, 0.00000000, 0.00000000
1, 1.7700, 177, -0.22033525, -0.06925579, 0.17007601, 85.79821777, 26.11338234, 203.40667725, 0.00000000, 0.00000000, 0.00000000, 74.71478271, 43.30490494, 59.06241989, 1.00000000, 0.00000000, 0.00000000, 0.00000000, 0.91568935, -0.62155503, -0.36789763, 0.00000000, 0.00000000, 0.00000000, 0.00000000
1, 1.7800, 178, -0.26766986, -0.08383042, 0.18163627, 102.11293030, 50.67493057, 225.94796753, 0.00000000, 0.00000000, 0.00000000, 76.68952179, 41.24035645, 60.48041153, 1.00000000, 0.00000000, 0.00000000, 0.00000000, 0.93713391, -0.63663739, -0.36215627, 0.00000000, 0.00000000, 0.00000000, 0.00000000
1, 1.7900, 179, -0.33817279, -0.15971260, 0.17397973, 117.94205475, 75.50440979, 243.68611145, 0.00000000, 0.00000000, 0.00000000, 78.92471313, 39.01757431, 62.11906052, 1.00000000, 0.00000000, 0.00000000, 0.00000000, 0.97906947, -0.59122014, -0.33259866, 0.00000000, 0.00000000, 0.00000000, 0.00000000
1, 1.8000, 180, -0.37331921, -0.29636604, 0.11228999, 132.38087463, 105.85600281, 255.22415161, 0.00000000, 0.00000000, 0.00000000, 81.39757538, 36.68320847, 63.99245453, 1.00000000, 0.00000000, 0.00000000, 0.00000000, 0.98297119, -0.48520210, -0.24363363, 0.00000000, 0.00000000, 0.00000000, 0.00000000
1, 1.8100, 181, -0.29226556, -0.40336919, 0.09705619, 141.60838318, 139.85850525, 265.95907593, 0.00000000, 0.00000000, 0.00000000, 84.04126740, 34.22169876, 66.10932159, 1.00000000, 0.00000000, 0.00000000, 0.00000000, 0.86804640, -0.40805995, -0.19605112, 0.00000000, 0.00000000, 0.00000000, 0.00000000
1, 1.8200, 182, -0.13095662, -0.47117704, 0.12240236, 159.70555115, 169.32951355, 278.15945435, 0.00000000, 0.00000000, 0.00000000, 86.89752960, 31.54614067, 68.41587830, 1.00000000, 0.00000000, 0.00000000, 0.00000000, 0.66936225, -0.36906785, -0.18398660, 0.00000000, 0.00000000, 0.00000000, 0.00000000
1, 1.8300, 183, -0.02364641, -0.60494828, 0.19122562, 180.14700317, 193.83949280, 289.74768066, 0.00000000, 0.00000000, 0.00000000, 89.87117767, 28.70406342, 70.75043488, 1.00000000, 0.00000000, 0.00000000, 0.00000000, 0.52036792, -0.26255411, -0.20999648, 0.00000000, 0.00000000, 0.00000000, 0.00000000
1, 1.8400, 184, 0.02684770, -0.79430860, 0.17769203, 182.86889648, 201.72734070, 304.20910645, 0.00000000, 0.00000000, 0.00000000, 92.70077515, 25.61724281, 72.93929291, 1.00000000, 0.00000000, 0.00000000, 0.00000000, 0.42391613, -0.09774353, -0.15171006, 0.00000000, 0.00000000, 0.00000000, 0.00000000
1, 1.8500, 185, 0.05975288, -0.98222363, 0.14189383, 178.71101379, 190.37524414, 324.89767456, 0.00000000, 0.00000000, 0.00000000, 95.23281860, 22.24471474, 74.77038574, 1.00000000, 0.00000000, 0.00000000, 0.00000000, 0.33935261, 0.06812996, -0.07298671, 0.00000000, 0.00000000, 0.00000000, 0.00000000
1, 1.8600, 186, 0.15800469, -1.17384243, 0.12739371, 173.79841614, 174.38172913, 343.24838257, 0.00000000, 0.00000000, 0.00000000, 97.47656250, 18.64047813, 76.21334076, 1.00000000, 0.00000000, 0.00000000, 0.00000000, 0.18409273, 0.24074152, -0.01841575, 0.00000000, 0.00000000, 0.00000000, 0.00000000
1, 1.8700, 187, 0.22632256, -1.32411861, 0.16082403, 166.50556946, 162.01631165, 360.11355591, 0.00000000, 0.00000000, 0.00000000, 99.46379089, 14.83565235, 77.33560944, 1.00000000, 0.00000000, 0.00000000, 0.00000000, 0.05393082, 0.37555575, -0.01503912, 0.00000000, 0.00000000, 0.00000000, 0.00000000
1, 1.8800, 188, 0.38245314, -1.51140273, 0.22709934, 166.29736328, 158.05804443, 373.38629150, 0.00000000, 0.00000000, 0.00000000, 101.32855988, 10.87804031, 78.23875427, 1.00000000, 0.00000000, 0.00000000, 0.00000000, -0.16819715, 0.55163503, -0.04686154, 0.00000000, 0.00000000, 0.00000000, 0.00000000
1, 1.8900, 189, 0.72915828, -1.79752469, 0.29637823, 170.37417603, 154.50080872, 384.66888428, 0.00000000, 0.00000000, 0.00000000, 103.14212799, 6.79200459, 78.94168091, 1.00000000, 0.00000000, 0.00000000, 0.00000000, -0.58430082, 0.83164167, -0.08281130, 0.00000000, 0.00000000, 0.00000000, 0.00000000
1, 1.9000, 190, 0.95758063, -2.05875945, 0.36196446, 168.92755127, 124.24969482, 392.18707275, 0.00000000, 0.00000000, 0.00000000, 104.85539246, 2.68714333, 79.19895172, 1.00000000, 0.00000000, 0.00000000, 0.00000000, -0.88392472, 1.09228253, -0.11695741, 0.00000000, 0.00000000, 0.00000000, 0.00000000
1, 1.9100, 191, 0.95510167, -2.20653391, 0.44812194, 160.95658875, 98.72434998, 392.70120239, 0.00000000, 0.00000000, 0.00000000, 106.46479034, -1.36014521, 79.08941650, 1.00000000, 0.00000000, 0.00000000, 0.00000000, -0.95245677, 1.24484503, -0.17481141, 0.00000000, 0.00000000, 0.00000000, 0.00000000
1, 1.9200, 192, 0.91352397, -2.26989245, 0.45232934, 149.15351868, 97.50965881, 384.64172363, 0.00000000, 0.00000000, 0.00000000, 107.96569061, -5.31163931, 78.87411499, 1.00000000, 0.00000000, 0.00000000, 0.00000000, -0.98051226, 1.31808591, -0.15373883, 0.00000000, 0.00000000, 0.00000000, 0.00000000
1, 1.9300, 193, 1.09043884, -2.36829925, 0.30698627, 138.80798340, 105.94165802, 368.64599609, 0.00000000, 0.00000000, 0.00000000, 109.37595367, -9.14329815, 78.69654846, 1.00000000, 0.00000000, 0.00000000, 0.00000000, -1.22472501, 1.43066597, 0.01304440, 0.00000000, 0.00000000, 0.00000000, 0.00000000
1, 1.9400, 194, 1.43150544, -2.59835577, 0.31616312, 125.99322510, 140.50859070, 345.13159180, 0.00000000, 0.00000000, 0.00000000, 110.60692596, -12.86766624, 78.83842468, 1.00000000, 0.00000000, 0.00000000, 0.00000000, -1.63046920, 1.67862940, 0.02170676, 0.00000000, 0.00000000, 0.00000000, 0.00000000
1, 1.9500, 195, 1.74495983, -2.39696074, 0.30676699, 97.69167328, 163.59025574, 317.05145264, 0.00000000, 0.00000000, 0.00000000, 111.48228455, -16.41437912, 79.23836517, 1.00000000, 0.00000000, 0.00000000, 0.00000000, -2.00551867, 1.49688172, 0.04202809, 0.00000000, 0.00000000, 0.00000000, 0.00000000
1, 1.9600, 196, 1.93242407, -1.82368565, 0.13220672, 82.87391663, 165.24580383, 278.61422729, 0.00000000, 0.00000000, 0.00000000, 112.14756775, -19.61515999, 79.76371765, 1.00000000, 0.00000000, 0.00000000, 0.00000000, -2.24884510, 0.94361836, 0.22150707, 0.00000000, 0.00000000, 0.00000000, 0.00000000
1, 1.9700, 197, 2.39100337, -1.38364780, 0.00936049, 88.19718170, 156.63581848, 224.72514343, 0.00000000, 0.00000000, 0.00000000, 112.79999542, -22.27145386, 80.38021088, 1.00000000, 0.00000000, 0.00000000, 0.00000000, -2.75471425, 0.52351052, 0.34800723, 0.00000000, 0.00000000, 0.00000000, 0.00000000
1, 1.9800, 198, 2.71081209, -0.97447509, -0.19797097, 84.06611633, 109.22239685, 161.83222961, 0.00000000, 0.00000000, 0.00000000, 113.48281860, -24.18830299, 80.78212738, 1.00000000, 0.00000000, 0.00000000, 0.00000000, -3.11017346, 0.13193902, 0.55929637, 0.00000000, 0.00000000, 0.00000000, 0.00000000
1, 1.9900, 199, 2.79859734, -0.97700018, -0.38649446, 86.22151947, 29.36567879, 101.62976837, 0.00000000, 0.00000000, 0.00000000, 114.41180420, -25.23575211, 80.62440491, 1.00000000, 0.00000000, 0.00000000, 0.00000000, -3.21968102, 0.14872977, 0.75611234, 0.00000000, 0.00000000, 0.00000000, 0.00000000
1, 2.0000, 200, 2.80950117, -1.28538430, -0.18755230, 60.70462418, -15.12100410, 55.91981506, 0.00000000, 0.00000000, 0.00000000, 115.19608307, -25.67966652, 80.21269226, 1.00000000, 0.00000000, 0.00000000, 0.00000000, -3.24080586, 0.46728581, 0.56791699, 0.00000000, 0.00000000, 0.00000000, 0.00000000
1, 2.0100, 201, 2.32711911, -1.22975993, -0.32688409, 5.40521622, -35.99417496, 11.95522022, 0.00000000, 0.00000000, 0.00000000, 115.43123627, -25.63352776, 79.79508972, 1.00000000, 0.00000000, 0.00000000, 0.00000000, -2.76066756, 0.41566181, 0.71325022, 0.00000000, 0.00000000, 0.00000000, 0.00000000
1, 2.0200, 202, 1.80038035, -1.08351123, -0.51332080, -35.78380585, -64.07554626, -47.87630463, 0.00000000, 0.00000000, 0.00000000, 115.22077179, -24.87078094, 79.35515594, 1.00000000, 0.00000000, 0.00000000, 0.00000000, -2.22701430, 0.26617151, 0.90051240, 0.00000000, 0.00000000, 0.00000000, 0.00000000
1, 2.0300, 203, 1.51956677, -0.95662814, -0.36905760, -68.09674072, -49.06111526, -130.28479004, 0.00000000, 0.00000000, 0.00000000, 114.49508667, -23.48175240, 79.46753693, 1.00000000, 0.00000000, 0.00000000, 0.00000000, -1.92687106, 0.12764706, 0.75224286, 0.00000000, 0.00000000, 0.00000000, 0.00000000
1, 2.0400, 204, 1.49333119, -0.98326051, -0.31149784, -71.43728638, 8.09536362, -191.09707642, 0.00000000, 0.00000000, 0.00000000, 113.42795563, -21.76751137, 80.38794708, 1.00000000, 0.00000000, 0.00000000, 0.00000000, -1.87488365, 0.13783212, 0.68509066, 0.00000000, 0.00000000, 0.00000000, 0.00000000
1, 2.0500, 205, 1.33338380, -1.13717568, 0.12783074, -76.20827484, 65.23306274, -237.89279175, 0.00000000, 0.00000000, 0.00000000, 112.08863831, -19.82629967, 82.01678467, 1.00000000, 0.00000000, 0.00000000, 0.00000000, -1.68460870, 0.27304780, 0.23243544, 0.00000000, 0.00000000, 0.00000000, 0.00000000
1, 2.0600, 206, -1.39757907, -0.93634480, 2.60349870, -70.35544586, 220.37922668, -272.81356812, 0.00000000, 0.00000000, 0.00000000, 110.35147858, -18.07402420, 85.23153687, 1.00000000, 0.00000000, 0.00000000, 0.00000000, 1.07755685, 0.05195048, -2.26394129, 0.00000000, 0.00000000, 0.00000000, 0.00000000
1, 2.0700, 207, -2.94656968, -2.51050019, 0.05428557, 49.79856491, 135.19413757, -133.63282776, 0.00000000, 0.00000000, 0.00000000, 110.28923798, -17.28906822, 87.05393982, 1.00000000, 0.00000000, 0.00000000, 0.00000000, 2.64534783, 1.61501288, 0.27336171, 0.00000000, 0.00000000, 0.00000000, 0.00000000
1, 2.0800, 208, -0.12134107, -2.72271824, -0.16230312, -48.76949692, -80.99237823, -86.51993561, 0.00000000, 0.00000000, 0.00000000, 109.94069672, -16.19679451, 86.57309723, 1.00000000, 0.00000000, 0.00000000, 0.00000000, -0.16586331, 1.82403994, 0.49373099, 0.00000000, 0.00000000, 0.00000000, 0.00000000
1, 2.0900, 209, 1.33552432, -2.11637616, -0.63892800, -116.51780701, -100.04186249, -157.27684021, 0.00000000, 0.00000000, 0.00000000, 108.89183044, -14.38086891, 86.13490295, 1.00000000, 0.00000000, 0.00000000, 0.00000000, -1.59586644, 1.20487130, 0.95716715, 0.00000000, 0.00000000, 0.00000000, 0.00000000
1, 2.1000, 210, 1.64908826, -1.71112311, 0.22182052, -74.77558136, -55.67774200, -215.37942505, 0.00000000, 0.00000000, 0.00000000, 108.11067200, -12.16062832, 86.29302979, 1.00000000, 0.00000000, 0.00000000, 0.00000000, -1.87427497, 0.78662306, 0.08551134, 0.00000000, 0.00000000, 0.00000000, 0.00000000
1, 2.1100, 211, 0.23629831, -1.27782798, 0.41341066, -51.75174713, -4.76197529, -214.99096680, 0.00000000, 0.00000000, 0.00000000, 107.47251892, -10.09914207, 86.91660309, 1.00000000, 0.00000000, 0.00000000, 0.00000000, -0.42425215, 0.34222224, -0.11472800, 0.00000000, 0.00000000, 0.00000000, 0.00000000
1, 2.1200, 212, 0.29548964, -0.97687018, -0.51796150, -26.54823112, -74.57340240, -162.17259216, 0.00000000, 0.00000000, 0.00000000, 107.15854645, -8.22995090, 86.66075897, 1.00000000, 0.00000000, 0.00000000, 0.00000000, -0.45134169, 0.03364217, 0.81112516, 0.00000000, 0.00000000, 0.00000000, 0.00000000
1, 2.1300, 213, 1.09942746, -0.81100595, 0.08111901, -11.58308887, -48.86624146, -166.25248718, 0.00000000, 0.00000000, 0.00000000, 107.04215240, -6.49709225, 86.68282318, 1.00000000, 0.00000000, 0.00000000, 0.00000000, -1.22379279, -0.13734175, 0.21059704, 0.00000000, 0.00000000, 0.00000000, 0.00000000
1, 2.1400, 214, 0.88715905, -0.66767555, 0.36268118, -1.12035227, 38.65634918, -176.11068726, 0.00000000, 0.00000000, 0.00000000, 106.94400787, -4.92559433, 87.57117462, 1.00000000, 0.00000000, 0.00000000, 0.00000000, -0.98288202, -0.28437260, -0.07219010, 0.00000000, 0.00000000, 0.00000000, 0.00000000
1, 2.1500, 215, 0.45345885, -0.69304138, 0.66575634, 13.25411606, 71.34223175, -159.43458557, 0.00000000, 0.00000000, 0.00000000, 106.99144745, -3.60864425, 88.72171783, 1.00000000, 0.00000000, 0.00000000, 0.00000000, -0.52470279, -0.26100534, -0.37475902, 0.00000000, 0.00000000, 0.00000000, 0.00000000
1, 2.1600, 216, 0.46720952, -0.72722149, 0.64181155, 12.34939003, 82.94537354, -143.15251160, 0.00000000, 0.00000000, 0.00000000, 107.05082703, -2.48296118, 89.93588257, 1.00000000, 0.00000000, 0.00000000, 0.00000000, -0.51762265, -0.22762668, -0.34907508, 0.00000000, 0.00000000, 0.00000000, 0.00000000
1, 2.1700, 217, 0.83501738, -0.63511568, 0.65014774, -16.23281288, 88.20387268, -128.16387939, 0.00000000, 0.00000000, 0.00000000, 106.90766144, -1.39154410, 91.04232025, 1.00000000, 0.00000000, 0.00000000, 0.00000000, -0.86715293, -0.32096103, -0.35884926, 0.00000000, 0.00000000, 0.00000000, 0.00000000
1, 2.1800, 218, 0.90253139, -0.81172723, 0.51557267, 6.93898773, 49.51995850, -119.57649231, 0.00000000, 0.00000000, 0.00000000, 106.96331024, -0.39143956, 91.86402130, 1.00000000, 0.00000000, 0.00000000, 0.00000000, -0.91592795, -0.14490785, -0.22463405, 0.00000000, 0.00000000, 0.00000000, 0.00000000
1, 2.1900, 219, 0.88713014, -1.00829673, 0.34906703, -10.98122120, -43.05982208, -91.31252289, 0.00000000, 0.00000000, 0.00000000, 106.85124969, 0.60731781, 91.71831512, 1.00000000, 0.00000000, 0.00000000, 0.00000000, -0.88308549, 0.05167978, -0.05778951, 0.00000000, 0.00000000, 0.00000000, 0.00000000
1, 2.2000, 220, 0.94623309, -1.00636971, 0.41264999, -20.58465767, -110.40480804, -61.97788239, 0.00000000, 0.00000000, 0.00000000, 106.62856293, 1.51861989, 90.83931732, 1.00000000, 0.00000000, 0.00000000, 0.00000000, -0.92546701, 0.04878037, -0.12529737, 0.00000000, 0.00000000, 0.00000000, 0.00000000
1, 2.2100, 221, 0.74077779, -1.11814523, 0.18665987, -7.95880413, -113.51953888, -44.49499512, 0.00000000, 0.00000000, 0.00000000, 106.51697540, 2.26879358, 89.87762451, 1.00000000, 0.00000000, 0.00000000, 0.00000000, -0.70592797, 0.16018265, 0.09808602, 0.00000000, 0.00000000, 0.00000000, 0.00000000
1, 2.2200, 222, 0.45651278, -1.15112102, 0.03130156, -14.08759499, -128.98793030, -34.19034195, 0.00000000, 0.00000000, 0.00000000, 106.27259064, 3.01679802, 88.71849823, 1.00000000, 0.00000000, 0.00000000, 0.00000000, -0.40916395, 0.19286466, 0.25063303, 0.00000000, 0.00000000, 0.00000000, 0.00000000
1, 2.2300, 223, 0.10248471, -1.12350452, -0.09373334, -6.96765614, -136.64993286, -34.57781219, 0.00000000, 0.00000000, 0.00000000, 106.13124847, 3.72983813, 87.50047302, 1.00000000, 0.00000000, 0.00000000, 0.00000000, -0.04206452, 0.16482624, 0.37171322, 0.00000000, 0.00000000, 0.00000000, 0.00000000
1, 2.2400, 224, -0.16909656, -1.06924272, -0.24584129, -2.29451799, -118.03396606, -35.16800690, 0.00000000, 0.00000000, 0.00000000, 106.03488159, 4.39491415, 86.46124268, 1.00000000, 0.00000000, 0.00000000, 0.00000000, 0.24145579, 0.11088181, 0.52206212, 0.00000000, 0.00000000, 0.00000000, 0.00000000
1, 2.2500, 225, -0.28951225, -0.95182347, 0.02006424, 3.47992563, -57.71620941, -48.01942062, 0.00000000, 0.00000000, 0.00000000, 106.03565979, 5.01566601, 86.03754425, 1.00000000, 0.00000000, 0.00000000, 0.00000000, 0.37299049, -0.00602993, 0.25477964, 0.00000000, 0.00000000, 0.00000000, 0.00000000
1, 2.2600, 226, -0.18515308, -1.02633953, 0.20270571, 5.80544567, 32.61449051, -58.65487289, 0.00000000, 0.00000000, 0.00000000, 106.13807678, 5.48863697, 86.51560974, 1.00000000, 0.00000000, 0.00000000, 0.00000000, 0.27792498, 0.06977628, 0.07365485, 0.00000000, 0.00000000, 0.00000000, 0.00000000
1, 2.2700, 227, 0.25081155, -0.96085501, 0.24505785, -9.00811386, 68.91134644, -63.94285965, 0.00000000, 0.00000000, 0.00000000, 106.11483765, 5.99490118, 87.31197357, 1.00000000, 0.00000000, 0.00000000, 0.00000000, -0.15025175, 0.00508201, 0.03130943, 0.00000000, 0.00000000, 0.00000000, 0.00000000
1, 2.2800, 228, 0.69342053, -0.90251255, 0.36768189, -2.94856048, 36.53706741, -57.01405716, 0.00000000, 0.00000000, 0.00000000, 106.14062500, 6.44106674, 87.82438660, 1.00000000, 0.00000000, 0.00000000, 0.00000000, -0.58414638, -0.05232938, -0.09140073, 0.00000000, 0.00000000, 0.00000000, 0.00000000
1, 2.2900, 229, 0.73539764, -0.85872066, 0.54498863, -4.63105965, 5.08314371, -48.54471207, 0.00000000, 0.00000000, 0.00000000, 106.11553192, 6.89327240, 88.00928497, 1.00000000, 0.00000000, 0.00000000, 0.00000000, -0.61832094, -0.09532629, -0.26915801, 0.00000000, 0.00000000, 0.00000000, 0.00000000
1, 2.3000, 230, 0.70883012, -0.73950028, 0.60668397, -8.45870495, -39.85063553, -35.08077621, 0.00000000, 0.00000000, 0.00000000, 105.99495697, 7.34058285, 87.72115326, 1.00000000, 0.00000000, 0.00000000, 0.00000000, -0.58399820, -0.21400328, -0.33237976, 0.00000000, 0.00000000, 0.00000000, 0.00000000
1, 2.3100, 231, 0.53672355, -0.67098480, 0.51539969, 0.60491973, -84.43470001, -23.78290558, 0.00000000, 0.00000000, 0.00000000, 105.90154266, 7.80110168, 86.96798706, 1.00000000, 0.00000000, 0.00000000, 0.00000000, -0.40396219, -0.28210849, -0.24340233, 0.00000000, 0.00000000, 0.00000000, 0.00000000
1, 2.3200, 232, 0.24240933, -0.74453342, 0.44351998, 12.57492065, -93.73693848, -20.04927635, 0.00000000, 0.00000000, 0.00000000, 105.94695282, 8.25232315, 86.10493469, 1.00000000, 0.00000000, 0.00000000, 0.00000000, -0.10179015, -0.20761648, -0.17216787, 0.00000000, 0.00000000, 0.00000000, 0.00000000
1, 2.3300, 233, -0.03872617, -0.90323895, 0.24542212, 17.70958519, -72.39289093, -28.29508400, 0.00000000, 0.00000000, 0.00000000, 106.03201294, 8.72372341, 85.48014832, 1.00000000, 0.00000000, 0.00000000, 0.00000000, 0.18729417, -0.04734425, 0.02718299, 0.00000000, 0.00000000, 0.00000000, 0.00000000
1, 2.3400, 234, -0.07212783, -1.01664841, 0.26151326, 4.94390774, -38.70410538, -37.03371429, 0.00000000, 0.00000000, 0.00000000, 106.03922272, 9.18658447, 85.20722198, 1.00000000, 0.00000000, 0.00000000, 0.00000000, 0.22883591, 0.06746776, 0.01142172, 0.00000000, 0.00000000, 0.00000000, 0.00000000
1, 2.3500, 235, 0.06778697, -1.00605607, 0.26458925, -6.66797781, -2.74181771, -45.00720978, 0.00000000, 0.00000000, 0.00000000, 105.98890686, 9.62676525, 85.30640411, 1.00000000, 0.00000000, 0.00000000, 0.00000000, 0.09657123, 0.05791958, 0.00747503, 0.00000000, 0.00000000, 0.00000000, 0.00000000
1, 2.3600, 236, 0.22926112, -0.96228117, 0.30499342, -11.33652592, 14.96175098, -49.88610458, 0.00000000, 0.00000000, 0.00000000, 105.92435455, 10.06526661, 85.59162903, 1.00000000, 0.00000000, 0.00000000, 0.00000000, -0.05734385, 0.01510398, -0.03426245, 0.00000000, 0.00000000, 0.00000000, 0.00000000
1, 2.3700, 237, 0.14727536, -0.94946361, 0.33923987, -10.65424156, 6.60124826, -55.01527405, 0.00000000, 0.00000000, 0.00000000, 105.91248322, 10.49815845, 85.85029602, 1.00000000, 0.00000000, 0.00000000, 0.00000000, 0.03254780, 0.00338128, -0.06981952, 0.00000000, 0.00000000, 0.00000000, 0.00000000
1, 2.3800, 238, 0.10942379, -0.91383219, 0.41255882, -15.94477654, -0.51312441, -58.79671097, 0.00000000, 0.00000000, 0.00000000, 105.78267670, 11.06517029, 86.00881195, 1.00000000, 0.00000000, 0.00000000, 0.00000000, 0.07876784, -0.03099805, -0.14447027, 0.00000000, 0.00000000, 0.00000000, 0.00000000
1, 2.3900, 239, 0.14048228, -0.91797388, 0.48234794, -18.80603409, 3.13976741, -68.69314575, 0.00000000, 0.00000000, 0.00000000, 105.63814545, 11.71794415, 86.22933960, 1.00000000, 0.00000000, 0.00000000, 0.00000000, 0.05830874, -0.02554646, -0.21731865, 0.00000000, 0.00000000, 0.00000000, 0.00000000
1, 2.4000, 240, 0.12812546, -0.94283968, 0.40861607, -22.78079224, 3.34536123, -74.08431244, 0.00000000, 0.00000000, 0.00000000, 105.45962524, 12.42265034, 86.46546936, 1.00000000, 0.00000000, 0.00000000, 0.00000000, 0.08243047, 0.00098272, -0.14677848, 0.00000000, 0.00000000, 0.00000000, 0.00000000
1, 2.4100, 241, 0.35966367, -0.90340298, 0.38372496, -23.11416054, -2.30886650, -76.47427368, 0.00000000, 0.00000000, 0.00000000, 105.26937866, 13.16623402, 86.65022278, 1.00000000, 0.00000000, 0.00000000, 0.00000000, -0.13669167, -0.03674926, -0.12607574, 0.00000000, 0.00000000, 0.00000000, 0.00000000
1, 2.4200, 242, 0.25297815, -0.99314529, 0.37787926, -13.94846916, -8.12870884, -80.74986267, 0.00000000, 0.00000000, 0.00000000, 105.18840027, 13.94833565, 86.79640198, 1.00000000, 0.00000000, 0.00000000, 0.00000000, -0.01685404, 0.05548768, -0.12287202, 0.00000000, 0.00000000, 0.00000000, 0.00000000
1, 2.4300, 243, 0.33826879, -1.07142735, 0.37119174, -20.73183060, -16.28216934, -81.21794891, 0.00000000, 0.00000000, 0.00000000, 104.99499512, 14.77491665, 86.85237122, 1.00000000, 0.00000000, 0.00000000, 0.00000000, -0.08848330, 0.13641250, -0.11952243, 0.00000000, 0.00000000, 0.00000000, 0.00000000
1, 2.4400, 244, 0.32673207, -1.21734715, 0.33260366, -17.74695778, -16.29015923, -85.85685730, 0.00000000, 0.00000000, 0.00000000, 104.83473969, 15.64645767, 86.91828918, 1.00000000, 0.00000000, 0.00000000, 0.00000000, -0.06259066, 0.28530571, -0.08459390, 0.00000000, 0.00000000, 0.00000000, 0.00000000
1, 2.4500, 245, 0.28155026, -1.24095368, 0.30749470, -25.64892578, -29.99737167, -89.54406738, 0.00000000, 0.00000000, 0.00000000, 104.55986023, 16.58863640, 86.85276031, 1.00000000, 0.00000000, 0.00000000, 0.00000000, -0.00209566, 0.31210819, -0.06433301, 0.00000000, 0.00000000, 0.00000000, 0.00000000
1, 2.4600, 246, 0.08368376, -1.24780798, 0.26714346, -23.42326736, -36.41203690, -96.06912231, 0.00000000, 0.00000000, 0.00000000, 104.29061890, 17.60971832, 86.73414612, 1.00000000, 0.00000000, 0.00000000, 0.00000000, 0.21235505, 0.32262623, -0.02971385, 0.00000000, 0.00000000, 0.00000000, 0.00000000
1, 2.4700, 247, -0.05693753, -1.27104819, 0.24707571, -28.19381523, -45.18347168, -104.72372437, 0.00000000, 0.00000000, 0.00000000, 103.93252563, 18.65805817, 86.59128571, 1.00000000, 0.00000000, 0.00000000, 0.00000000, 0.37067682, 0.35007092, -0.01612283, 0.00000000, 0.00000000, 0.00000000, 0.00000000
1, 2.4800, 248, -0.07300783, -1.27670372, 0.23504740, -32.14196396, -44.02563095, -117.57611847, 0.00000000, 0.00000000, 0.00000000, 103.55945587, 19.90480804, 86.43424988, 1.00000000, 0.00000000, 0.00000000, 0.00000000, 0.40558586, 0.36048675, -0.01167074, 0.00000000, 0.00000000, 0.00000000, 0.00000000
1, 2.4900, 249, -0.03206868, -1.37331796, 0.20655113, -34.03777313, -41.64693832, -133.65910339, 0.00000000, 0.00000000, 0.00000000, 103.18304443, 21.30149651, 86.33154297, 1.00000000, 0.00000000, 0.00000000, 0.00000000, 0.38661814, 0.46347389, 0.00891975, 0.00000000, 0.00000000, 0.00000000, 0.00000000
1, 2.5000, 250, 0.10886297, -1.47788632, 0.25839579, -42.79147720, -41.99697113, -146.48796082, 0.00000000, 0.00000000, 0.00000000, 102.72241211, 22.82324982, 86.24436188, 1.00000000, 0.00000000, 0.00000000, 0.00000000, 0.26966837, 0.57570249, -0.05171349, 0.00000000, 0.00000000, 0.00000000, 0.00000000
1, 2.5100, 251, 0.13170338, -1.53011858, 0.37150761, -46.30246735, -48.03829956, -155.91325378, 0.00000000, 0.00000000, 0.00000000, 102.20120239, 24.44927216, 86.09957886, 1.00000000, 0.00000000, 0.00000000, 0.00000000, 0.27236176, 0.63676739, -0.17507476, 0.00000000, 0.00000000, 0.00000000, 0.00000000
1, 2.5200, 252, 0.29040766, -1.55951297, 0.52262801, -49.54974365, -61.83081055, -161.14587402, 0.00000000, 0.00000000, 0.00000000, 101.58845520, 26.12912941, 85.81398773, 1.00000000, 0.00000000, 0.00000000, 0.00000000, 0.14011341, 0.67611605, -0.33773187, 0.00000000, 0.00000000, 0.00000000, 0.00000000
1, 2.5300, 253, 0.20699383, -1.59778976, 0.54263800, -45.11609268, -84.10689545, -163.31767273, 0.00000000, 0.00000000, 0.00000000, 100.87799835, 27.89462852, 85.24501038, 1.00000000, 0.00000000, 0.00000000, 0.00000000, 0.25055069, 0.72545969, -0.37056607, 0.00000000, 0.00000000, 0.00000000, 0.00000000
1, 2.5400, 254, 0.21270940, -1.64593554, 0.49093121, -41.01605606, -109.00417328, -160.51153564, 0.00000000, 0.00000000, 0.00000000, 100.03815460, 29.67066956, 84.35405731, 1.00000000, 0.00000000, 0.00000000, 0.00000000, 0.27216148, 0.78565103, -0.33369678, 0.00000000, 0.00000000, 0.00000000, 0.00000000
1, 2.5500, 255, 0.01809042, -1.73686993, 0.41517505, -30.52686501, -138.42036438, -156.78689575, 0.00000000, 0.00000000, 0.00000000, 99.07969666, 31.44649887, 83.07118225, 1.00000000, 0.00000000, 0.00000000, 0.00000000, 0.49365297, 0.88946116, -0.27401870, 0.00000000, 0.00000000, 0.00000000, 0.00000000
1, 2.5600, 256, -0.16854465, -1.85633767, 0.39727634, -24.37533379, -172.34596252, -152.57238770, 0.00000000, 0.00000000, 0.00000000, 97.89852905, 33.20969772, 81.32018280, 1.00000000, 0.00000000, 0.00000000, 0.00000000, 0.70655930, 1.02241397, -0.27474815, 0.00000000, 0.00000000, 0.00000000, 0.00000000
1, 2.5700, 257, -0.59439558, -2.04446197, 0.48295686, -18.70394516, -211.08839417, -146.46638489, 0.00000000, 0.00000000, 0.00000000, 96.42260742, 34.89918137, 79.03103638, 1.00000000, 0.00000000, 0.00000000, 0.00000000, 1.15763462, 1.22439945, -0.38218719, 0.00000000, 0.00000000, 0.00000000, 0.00000000
1, 2.5800, 258, -0.73110288, -2.23405719, 0.63953435, -23.02809906, -247.76078796, -136.57380676, 0.00000000, 0.00000000, 0.00000000, 94.51271057, 36.49516678, 76.15445709, 1.00000000, 0.00000000, 0.00000000, 0.00000000, 1.31753588, 1.42754400, -0.56528091, 0.00000000, 0.00000000, 0.00000000, 0.00000000
1, 2.5900, 259, -0.98129249, -2.40143824, 0.96828020, -27.29885674, -260.57788086, -140.66244507, 0.00000000, 0.00000000, 0.00000000, 92.32359314, 38.05543137, 72.99124146, 1.00000000, 0.00000000, 0.00000000, 0.00000000, 1.58962214, 1.60905349, -0.92435855, 0.00000000, 0.00000000, 0.00000000, 0.00000000
1, 2.6000, 260, -0.77072084, -2.51014328, 0.96343750, -39.48041534, -258.81414795, -146.56474304, 0.00000000, 0.00000000, 0.00000000, 89.86990356, 39.57123566, 69.70645142, 1.00000000, 0.00000000, 0.00000000, 0.00000000, 1.40010393, 1.73321569, -0.95254260, 0.00000000, 0.00000000, 0.00000000, 0.00000000
1, 2.6100, 261, -0.56976098, -2.65908241, 1.05098963, -38.60551453, -213.43684387, -164.44960022, 0.00000000, 0.00000000, 0.00000000, 87.64203644, 41.16980743, 66.85841370, 1.00000000, 0.00000000, 0.00000000, 0.00000000, 1.21978915, 1.89954293, -1.07188630, 0.00000000, 0.00000000, 0.00000000, 0.00000000
1, 2.6200, 262, -0.42967728, -2.56076765, 1.23076987, -81.06887817, -104.40203094, -197.67771912, 0.00000000, 0.00000000, 0.00000000, 85.80763245, 43.07133865, 65.32320404, 1.00000000, 0.00000000, 0.00000000, 0.00000000, 1.10335207, 1.82319522, -1.27568698, 0.00000000, 0.00000000, 0.00000000, 0.00000000
1, 2.6300, 263, 0.17841798, -1.94026220, 1.29448152, -168.73832703, -20.38713264, -203.20883179, 0.00000000, 0.00000000, 0.00000000, 83.74732208, 45.07800674, 64.78497314, 1.00000000, 0.00000000, 0.00000000, 0.00000000, 0.52027494, 1.22820663, -1.36272538, 0.00000000, 0.00000000, 0.00000000, 0.00000000
1, 2.6400, 264, -0.04926795, -1.83742094, 0.99119598, -131.19587708, -45.67667389, -181.91754150, 0.00000000, 0.00000000, 0.00000000, 81.72544098, 46.82275772, 63.80014801, 1.00000000, 0.00000000, 0.00000000, 0.00000000, 0.77108639, 1.15139711, -1.08195126, 0.00000000, 0.00000000, 0.00000000, 0.00000000
1, 2.6500, 265, -0.35395801, -1.97878766, 0.82624006, -83.05623627, -76.52270508, -145.21220398, 0.00000000, 0.00000000, 0.00000000, 79.81743622, 48.13368225, 62.33937836, 1.00000000, 0.00000000, 0.00000000, 0.00000000, 1.09325910, 1.31456268, -0.93651426, 0.00000000, 0.00000000, 0.00000000, 0.00000000
1, 2.6600, 266, -0.10397857, -1.50243711, 0.60024559, -160.55804443, -72.47125244, -121.11698151, 0.00000000, 0.00000000, 0.00000000, 77.13182831, 49.17763519, 60.90049362, 1.00000000, 0.00000000, 0.00000000, 0.00000000, 0.85633862, 0.85769075, -0.73497218, 0.00000000, 0.00000000, 0.00000000, 0.00000000
1, 2.6700, 267, 0.90568662, -0.76875329, -0.20259069, -171.66358948, -79.85166168, -104.72386932, 0.00000000, 0.00000000, 0.00000000, 74.19017029, 50.00920486, 59.28675079, 1.00000000, 0.00000000, 0.00000000, 0.00000000, -0.14261571, 0.14369024, 0.03852264, 0.00000000, 0.00000000, 0.00000000, 0.00000000
1, 2.6800, 268, 1.64774823, -0.46329123, 1.02828205, -63.19815826, -87.46992493, -69.77799988, 0.00000000, 0.00000000, 0.00000000, 72.31097412, 50.42478943, 57.66170120, 1.00000000, 0.00000000, 0.00000000, 0.00000000, -0.87931395, -0.14810115, -1.21716273, 0.00000000, 0.00000000, 0.00000000, 0.00000000
1, 2.6900, 269, 0.01672444, -0.84738249, 0.88976806, 24.26198769, 9.74425793, -82.12679291, 0.00000000, 0.00000000, 0.00000000, 72.36006165, 51.23684311, 57.41249847, 1.00000000, 0.00000000, 0.00000000, 0.00000000, 0.76042193, 0.24784471, -1.08103919, 0.00000000, 0.00000000, 0.00000000, 0.00000000
1, 2.7000, 270, -0.66752905, -0.77779621, 0.38719893, -11.68935299, -8.41069889, -7.77437878, 0.00000000, 0.00000000, 0.00000000, 72.11392975, 51.28541946, 57.24691010, 1.00000000, 0.00000000, 0.00000000, 0.00000000, 1.44817388, 0.18251714, -0.57755399, 0.00000000, 0.00000000, 0.00000000, 0.00000000
1, 2.7100, 271, -0.56732959, -0.44112170, 0.12448126, -59.28540802, -18.65673637, 55.33436584, 0.00000000, 0.00000000, 0.00000000, 71.51624298, 50.70142746, 57.24062347, 1.00000000, 0.00000000, 0.00000000, 0.00000000, 1.34402978, -0.15697914, -0.32196170, 0.00000000, 0.00000000, 0.00000000, 0.00000000
1, 2.7200, 272, -0.07128489, -0.24574390, -0.11396604, -25.16155815, -34.92792511, 98.21025848, 0.00000000, 0.00000000, 0.00000000, 71.19787598, 49.60963058, 57.21582794, 1.00000000, 0.00000000, 0.00000000, 0.00000000, 0.83807552, -0.36229756, -0.09166740, 0.00000000, 0.00000000, 0.00000000, 0.00000000
1, 2.7300, 273, 0.14946465, -0.10325199, -0.15920283, -23.59181213, -37.11423874, 130.32873535, 0.00000000, 0.00000000, 0.00000000, 71.04267120, 48.25642014, 57.32323456, 1.00000000, 0.00000000, 0.00000000, 0.00000000, 0.60274911, -0.52007031, -0.05433392, 0.00000000, 0.00000000, 0.00000000, 0.00000000
1, 2.7400, 274, 0.11624601, 0.06525356, -0.03795578, 1.09038496, -27.61196518, 158.13729858, 0.00000000, 0.00000000, 0.00000000, 71.32543945, 46.67066956, 57.69268799, 1.00000000, 0.00000000, 0.00000000, 0.00000000, 0.61842430, -0.70730191, -0.18106470, 0.00000000, 0.00000000, 0.00000000, 0.00000000
1, 2.7500, 275, 0.01000238, 0.07936525, 0.11734489, 49.78626633, -7.10388374, 180.40943909, 0.00000000, 0.00000000, 0.00000000, 72.33269501, 44.93440247, 58.40403748, 1.00000000, 0.00000000, 0.00000000, 0.00000000, 0.70436436, -0.74448037, -0.33463553, 0.00000000, 0.00000000, 0.00000000, 0.00000000
1, 2.7600, 276, -0.08603078, 0.02856005, 0.19882400, 73.36764526, 24.44306946, 199.40934753, 0.00000000, 0.00000000, 0.00000000, 73.85234833, 43.09736252, 59.53599930, 1.00000000, 0.00000000, 0.00000000, 0.00000000, 0.77808595, -0.71972227, -0.40677184, 0.00000000, 0.00000000, 0.00000000, 0.00000000
1, 2.7700, 277, -0.17733696, 0.00555600, 0.23609675, 90.58872986, 47.56841660, 218.80775452, 0.00000000, 0.00000000, 0.00000000, 75.76475525, 41.08301163, 60.97879028, 1.00000000, 0.00000000, 0.00000000, 0.00000000, 0.84465802, -0.72485650, -0.42881256, 0.00000000, 0.00000000, 0.00000000, 0.00000000
1, 2.7800, 278, -0.27216855, -0.05860206, 0.25518677, 106.51406097, 78.40985107, 237.36802673, 0.00000000, 0.00000000, 0.00000000, 77.92373657, 38.94949341, 62.68148804, 1.00000000, 0.00000000, 0.00000000, 0.00000000, 0.91171622, -0.69058019, -0.42701325, 0.00000000, 0.00000000, 0.00000000, 0.00000000
1, 2.7900, 279, -0.34816650, -0.19656597, 0.21222852, 120.18182373, 110.52346802, 253.80107117, 0.00000000, 0.00000000, 0.00000000, 80.33898926, 36.66503143, 64.66107178, 1.00000000, 0.00000000, 0.00000000, 0.00000000, 0.95736766, -0.58285618, -0.35769361, 0.00000000, 0.00000000, 0.00000000, 0.00000000
1, 2.8000, 280, -0.31240419, -0.34991658, 0.17418408, 131.10113525, 129.62654114, 266.98199463, 0.00000000, 0.00000000, 0.00000000, 82.84072876, 34.21319199, 66.71434784, 1.00000000, 0.00000000, 0.00000000, 0.00000000, 0.88801718, -0.45950481, -0.28934029, 0.00000000, 0.00000000, 0.00000000, 0.00000000
1, 2.8100, 281, -0.17384474, -0.45321795, 0.17119682, 141.23831177, 150.61058044, 279.10974121, 0.00000000, 0.00000000, 0.00000000, 85.40737915, 31.59050941, 68.83902740, 1.00000000, 0.00000000, 0.00000000, 0.00000000, 0.71240175, -0.38525048, -0.25273529, 0.00000000, 0.00000000, 0.00000000, 0.00000000
1, 2.8200, 282, -0.03368229, -0.52335536, 0.21827644, 155.91894531, 174.19477844, 291.79000854, 0.00000000, 0.00000000, 0.00000000, 88.10462189, 28.74883652, 71.06922150, 1.00000000, 0.00000000, 0.00000000, 0.00000000, 0.53121483, -0.34277439, -0.26245901, 0.00000000, 0.00000000, 0.00000000, 0.00000000
1, 2.8300, 283, 0.04651686, -0.62917882, 0.25818500, 169.97111511, 190.88253784, 303.71414185, 0.00000000, 0.00000000, 0.00000000, 90.80251312, 25.72977257, 73.24837494, 1.00000000, 0.00000000, 0.00000000, 0.00000000, 0.40552562, -0.26261157, -0.26129174, 0.00000000, 0.00000000, 0.00000000, 0.00000000
1, 2.8400, 284, 0.04939203, -0.78598446, 0.25057927, 173.88769531, 196.93881226, 316.94949341, 0.00000000, 0.00000000, 0.00000000, 93.37162781, 22.49055290, 75.27736664, 1.00000000, 0.00000000, 0.00000000, 0.00000000, 0.35288000, -0.12850460, -0.21180412, 0.00000000, 0.00000000, 0.00000000, 0.00000000
1, 2.8500, 285, 0.08151305, -0.98805034, 0.20078519, 173.93095398, 194.34443665, 332.44012451, 0.00000000, 0.00000000, 0.00000000, 95.74626923, 19.02223015, 77.06573486, 1.00000000, 0.00000000, 0.00000000, 0.00000000, 0.26602292, 0.05399278, -0.12110451, 0.00000000, 0.00000000, 0.00000000, 0.00000000
1, 2.8600, 286, 0.11827977, -1.23786616, 0.17577429, 171.11111450, 184.99142456, 347.71112061, 0.00000000, 0.00000000, 0.00000000, 97.89959717, 15.35035992, 78.55502319, 1.00000000, 0.00000000, 0.00000000, 0.00000000, 0.16976438, 0.28784278, -0.05718921, 0.00000000, 0.00000000, 0.00000000, 0.00000000
1, 2.8700, 287, 0.24958338, -1.51487362, 0.27800867, 159.81250000, 175.67329407, 362.92883301, 0.00000000, 0.00000000, 0.00000000, 99.77991486, 11.49417591, 79.76495361, 1.00000000, 0.00000000, 0.00000000, 0.00000000, -0.02547659, 0.55278170, -0.12399369, 0.00000000, 0.00000000, 0.00000000, 0.00000000
1, 2.8800, 288, 0.62213218, -1.71922278, 0.39550826, 154.34109497, 178.31497192, 374.57638550, 0.00000000, 0.00000000, 0.00000000, 101.50119019, 7.48359060, 80.83987427, 1.00000000, 0.00000000, 0.00000000, 0.00000000, -0.46576795, 0.74945784, -0.20935589, 0.00000000, 0.00000000, 0.00000000, 0.00000000
1, 2.8900, 289, 0.95496231, -1.95884871, 0.43541843, 154.77301025, 169.60575867, 386.68289185, 0.00000000, 0.00000000, 0.00000000, 103.13120270, 3.34519339, 81.67561340, 1.00000000, 0.00000000, 0.00000000, 0.00000000, -0.86947197, 0.98645985, -0.21936621, 0.00000000, 0.00000000, 0.00000000, 0.00000000
1, 2.9000, 290, 0.86620551, -2.13848901, 0.48983690, 146.41680908, 125.35620117, 397.46289062, 0.00000000, 0.00000000, 0.00000000, 104.60321045, -0.81335104, 81.93918610, 1.00000000, 0.00000000, 0.00000000, 0.00000000, -0.85324740, 1.16877913, -0.24686718, 0.00000000, 0.00000000, 0.00000000, 0.00000000
1, 2.9100, 291, 0.94744003, -2.24436641, 0.58531511, 143.07125854, 115.88939667, 392.47497559, 0.00000000, 0.00000000, 0.00000000, 106.03016663, -4.90467596, 82.02059937, 1.00000000, 0.00000000, 0.00000000, 0.00000000, -1.00631738, 1.28258586, -0.31873196, 0.00000000, 0.00000000, 0.00000000, 0.00000000
1, 2.9200, 292, 1.03917980, -2.34622359, 0.64789742, 143.36854553, 118.27603912, 376.87271118, 0.00000000, 0.00000000, 0.00000000, 107.45744324, -8.84351730, 82.06102753, 1.00000000, 0.00000000, 0.00000000, 0.00000000, -1.16769981, 1.39764714, -0.35932583, 0.00000000, 0.00000000, 0.00000000, 0.00000000
1, 2.9300, 293, 1.30568731, -2.48155069, 0.52967453, 141.31436157, 124.16366577, 360.62307739, 0.00000000, 0.00000000, 0.00000000, 108.85991669, -12.65714931, 82.11737061, 1.00000000, 0.00000000, 0.00000000, 0.00000000, -1.50046766, 1.55073571, -0.22104013, 0.00000000, 0.00000000, 0.00000000, 0.00000000
1, 2.9400, 294, 1.70767045, -2.48483610, 0.53122616, 129.05061340, 147.51863098, 343.70687866, 0.00000000, 0.00000000, 0.00000000, 110.08502197, -16.38992882, 82.37108612, 1.00000000, 0.00000000, 0.00000000, 0.00000000, -1.96638274, 1.57516885, -0.20686394, 0.00000000, 0.00000000, 0.00000000, 0.00000000
1, 2.9500, 295, 1.94719744, -2.11895776, 0.56211859, 107.31081390, 142.00743103, 305.58480835, 0.00000000, 0.00000000, 0.00000000, 111.07501221, -19.75008202, 82.63831329, 1.00000000, 0.00000000, 0.00000000, 0.00000000, -2.26487875, 1.23231590, -0.22645994, 0.00000000, 0.00000000, 0.00000000, 0.00000000
1, 2.9600, 296, 2.51557255, -1.62587059, 0.15396471, 113.27043152, 118.71745300, 263.81680298, 0.00000000, 0.00000000, 0.00000000, 112.15684509, -22.63959503, 82.78150177, 1.00000000, 0.00000000, 0.00000000, 0.00000000, -2.88358593, 0.76219809, 0.19015621, 0.00000000, 0.00000000, 0.00000000, 0.00000000
1, 2.9700, 297, 2.77246046, -1.09016752, -0.03336683, 104.75665283, 51.97273636, 212.92904663, 0.00000000, 0.00000000, 0.00000000, 113.35413361, -24.78384781, 82.39305115, 1.00000000, 0.00000000, 0.00000000, 0.00000000, -3.18010569, 0.24905692, 0.38865697, 0.00000000, 0.00000000, 0.00000000, 0.00000000
1, 2.9800, 298, 2.69850516, -0.86530280, -0.35127214, 112.54747772, -32.38784027, 150.74960327, 0.00000000, 0.00000000, 0.00000000, 114.91390228, -26.02669716, 81.38547516, 1.00000000, 0.00000000, 0.00000000, 0.00000000, -3.13104367, 0.04351191, 0.72206575, 0.00000000, 0.00000000, 0.00000000, 0.00000000
1, 2.9900, 299, 2.67343116, -1.25933063, -0.16449846, 108.19612122, -84.75273895, 101.29286194, 0.00000000, 0.00000000, 0.00000000, 116.59119415, -26.57027054, 80.04358673, 1.00000000, 0.00000000, 0.00000000, 0.00000000, -3.11815262, 0.45426559, 0.55697274, 0.00000000, 0.00000000, 0.00000000, 0.00000000
1, 3.0000, 300, 2.37407112, -1.45082200, -0.14036478, 55.54434204, -85.23610687, 55.68132782, 0.00000000, 0.00000000, 0.00000000, 117.65462494, -26.67651939, 78.91129303, 1.00000000, 0.00000000, 0.00000000, 0.00000000, -2.82295418, 0.65689206, 0.55043888, 0.00000000, 0.00000000, 0.00000000, 0.00000000
1, 3.0100, 301, 1.69108844, -1.27725577, -0.56100225, -4.46748972, -97.87544250, -1.74285126, 0.00000000, 0.00000000, 0.00000000, 118.03706360, -26.20346451, 77.95409393, 1.00000000, 0.00000000, 0.00000000, 0.00000000, -2.13629580, 0.48612666, 0.98040152, 0.00000000, 0.00000000, 0.00000000, 0.00000000
1, 3.0200, 302, 1.18021452, -1.16332126, -0.53491753, -36.56837463, -96.28148651, -78.88740540, 0.00000000, 0.00000000, 0.00000000, 117.84233093, -24.97134018, 77.39710999, 1.00000000, 0.00000000, 0.00000000, 0.00000000, -1.61085486, 0.36644369, 0.95858079, 0.00000000, 0.00000000, 0.00000000, 0.00000000
1, 3.0300, 303, 1.22540534, -1.03074777, -0.42641938, -73.73637390, -20.19406700, -171.87339783, 0.00000000, 0.00000000, 0.00000000, 116.83464813, -23.35034943, 78.06585693, 1.00000000, 0.00000000, 0.00000000, 0.00000000, -1.63144541, 0.21851924, 0.84514374, 0.00000000, 0.00000000, 0.00000000, 0.00000000
1, 3.0400, 304, 1.31081879, -1.10067344, -0.44557154, -79.89295197, 87.51757050, -229.53533936, 0.00000000, 0.00000000, 0.00000000, 115.29354858, -21.67200661, 80.00854492, 1.00000000, 0.00000000, 0.00000000, 0.00000000, -1.69043565, 0.26849294, 0.84961009, 0.00000000, 0.00000000, 0.00000000, 0.00000000
1, 3.0500, 305, 1.13213515, -1.30406857, -0.33868700, -82.90515137, 139.43112183, -273.43930054, 0.00000000, 0.00000000, 0.00000000, 113.55700684, -19.75785828, 82.57401276, 1.00000000, 0.00000000, 0.00000000, 0.00000000, -1.48236358, 0.44984499, 0.72272795, 0.00000000, 0.00000000, 0.00000000, 0.00000000
1, 3.0600, 306, -0.79953045, -1.19250989, 1.62756431, -81.01764679, 215.37002563, -300.65325928, 0.00000000, 0.00000000, 0.00000000, 111.68370819, -17.80746078, 85.89495850, 1.00000000, 0.00000000, 0.00000000, 0.00000000, 0.48210248, 0.31586775, -1.26621461, 0.00000000, 0.00000000, 0.00000000, 0.00000000
1, 3.0700, 307, -3.87746382, -2.13340187, 1.01780367, -32.72485352, 295.65774536, -204.19245911, 0.00000000, 0.00000000, 0.00000000, 110.26428986, -16.96231461, 89.55738068, 1.00000000, 0.00000000, 0.00000000, 0.00000000, 3.58241129, 1.23928237, -0.68098176, 0.00000000, 0.00000000, 0.00000000, 0.00000000
1, 3.0800, 308, -0.95765173, -1.62653482, -0.24973054, -40.05522537, -21.64844894, -42.44156647, 0.00000000, 0.00000000, 0.00000000, 109.88102722, -16.48935127, 89.49729919, 1.00000000, 0.00000000, 0.00000000, 0.00000000, 0.66959274, 0.72724950, 0.57881105, 0.00000000, 0.00000000, 0.00000000, 0.00000000
1, 3.0900, 309, 1.36287618, -2.11785102, -0.84951735, -55.92168427, -67.19037628, -128.53015137, 0.00000000, 0.00000000, 0.00000000, 109.37925720, -15.05325890, 89.28636932, 1.00000000, 0.00000000, 0.00000000, 0.00000000, -1.63284588, 1.21032977, 1.17116940, 0.00000000, 0.00000000, 0.00000000, 0.00000000
1, 3.1000, 310, 2.49508667, -2.27028489, -0.48764756, -73.79307556, -63.15422058, -189.96583557, 0.00000000, 0.00000000, 0.00000000, 108.63790131, -13.05059338, 89.31034851, 1.00000000, 0.00000000, 0.00000000, 0.00000000, -2.73407054, 1.35215926, 0.80358434, 0.00000000, 0.00000000, 0.00000000, 0.00000000
1, 3.1100, 311, 0.42738003, -1.63757181, 0.88071650, -70.00353241, -1.29792738, -230.65095520, 0.00000000, 0.00000000, 0.00000000, 107.78876495, -10.85468769, 90.03230286, 1.00000000, 0.00000000, 0.00000000, 0.00000000, -0.62952036, 0.70643824, -0.57740092, 0.00000000, 0.00000000, 0.00000000, 0.00000000
1, 3.1200, 312, -0.38324392, -1.35659921, 0.00713175, -35.64218521, -43.84220123, -175.41831970, 0.00000000, 0.00000000, 0.00000000, 107.32418823, -9.05097580, 90.19573212, 1.00000000, 0.00000000, 0.00000000, 0.00000000, 0.21491146, 0.41670245, 0.28982425, 0.00000000, 0.00000000, 0.00000000, 0.00000000
1, 3.1300, 313, 0.64849621, -0.77752990, -0.01921967, -36.58133316, -54.58794785, -163.52911377, 0.00000000, 0.00000000, 0.00000000, 106.96553040, -7.32717085, 90.15487671, 1.00000000, 0.00000000, 0.00000000, 0.00000000, -0.78718650, -0.16910814, 0.31002602, 0.00000000, 0.00000000, 0.00000000, 0.00000000
1, 3.1400, 314, 1.17996335, -0.53925645, 0.44136357, 7.64689684, 18.94392776, -181.24517822, 0.00000000, 0.00000000, 0.00000000, 106.96316528, -5.64864397, 90.86875153, 1.00000000, 0.00000000, 0.00000000, 0.00000000, -1.28909445, -0.41157874, -0.15164495, 0.00000000, 0.00000000, 0.00000000, 0.00000000
1, 3.1500, 315, 1.01293588, -0.59413135, 0.50401551, 12.18218422, 53.65474319, -167.76710510, 0.00000000, 0.00000000, 0.00000000, 106.99875641, -4.20096827, 91.87580872, 1.00000000, 0.00000000, 0.00000000, 0.00000000, -1.09531128, -0.35893124, -0.21274567, 0.00000000, 0.00000000, 0.00000000, 0.00000000
1, 3.1600, 316, 0.89852142, -0.59110969, 0.66881496, -1.06353748, 49.03250504, -147.36044312, 0.00000000, 0.00000000, 0.00000000, 106.93221283, -2.93458676, 92.77656555, 1.00000000, 0.00000000, 0.00000000, 0.00000000, -0.95781004, -0.36370909, -0.37766448, 0.00000000, 0.00000000, 0.00000000, 0.00000000
1, 3.1700, 317, 0.83977723, -0.73306119, 0.42482764, 4.92884684, 54.47916794, -133.28274536, 0.00000000, 0.00000000, 0.00000000, 106.95526123, -1.65101743, 93.58353424, 1.00000000, 0.00000000, 0.00000000, 0.00000000, -0.87786055, -0.22283606, -0.13367584, 0.00000000, 0.00000000, 0.00000000, 0.00000000
1, 3.1800, 318, 0.69977182, -0.86025763, 0.35591507, -12.38067055, 21.60029984, -111.56707764, 0.00000000, 0.00000000, 0.00000000, 106.82011414, -0.64648962, 94.11481476, 1.00000000, 0.00000000, 0.00000000, 0.00000000, -0.71753502, -0.09644061, -0.06541781, 0.00000000, 0.00000000, 0.00000000, 0.00000000
1, 3.1900, 319, 0.73731488, -0.90253460, 0.39339870, -24.36825180, -20.45570374, -92.94708252, 0.00000000, 0.00000000, 0.00000000, 106.57564545, 0.30243033, 94.18591309, 1.00000000, 0.00000000, 0.00000000, 0.00000000, -0.73813796, -0.05546230, -0.10666073, 0.00000000, 0.00000000, 0.00000000, 0.00000000
1, 3.2000, 320, 0.72785878, -1.08001947, 0.33085582, -16.11678696, -77.74343109, -72.96947479, 0.00000000, 0.00000000, 0.00000000, 106.40619659, 1.22257054, 93.64746857, 1.00000000, 0.00000000, 0.00000000, 0.00000000, -0.71253979, 0.12115486, -0.04744293, 0.00000000, 0.00000000, 0.00000000, 0.00000000
1, 3.2100, 321, 0.61242229, -1.12190008, 0.32120371, -24.75974464, -104.69026947, -53.24982452, 0.00000000, 0.00000000, 0.00000000, 106.13420868, 2.02719307, 92.79150391, 1.00000000, 0.00000000, 0.00000000, 0.00000000, -0.58208442, 0.16227058, -0.04160713, 0.00000000, 0.00000000, 0.00000000, 0.00000000
1, 3.2200, 322, 0.37106550, -1.06866634, 0.21356246, -16.81998825, -83.72218323, -48.72502136, 0.00000000, 0.00000000, 0.00000000, 105.88149261, 2.77451730, 92.11344147, 1.00000000, 0.00000000, 0.00000000, 0.00000000, -0.32780200, 0.10821600, 0.06148062, 0.00000000, 0.00000000, 0.00000000, 0.00000000
1, 3.2300, 323, 0.02332051, -1.13205564, -0.13841629, -3.53136182, -73.52889252, -48.50500488, 0.00000000, 0.00000000, 0.00000000, 105.81494904, 3.44195223, 91.53774261, 1.00000000, 0.00000000, 0.00000000, 0.00000000, 0.03239596, 0.17154209, 0.41099411, 0.00000000, 0.00000000, 0.00000000, 0.00000000
1, 3.2400, 324, -0.19152725, -1.03511131, -0.11828104, -6.91633558, -55.01696396, -55.45498276, 0.00000000, 0.00000000, 0.00000000, 105.72116852, 4.12514305, 91.15805817, 1.00000000, 0.00000000, 0.00000000, 0.00000000, 0.25896013, 0.07484123, 0.38906246, 0.00000000, 0.00000000, 0.00000000, 0.00000000
1, 3.2500, 325, -0.33373207, -0.93405020, -0.02889384, -1.24360108, 2.66249490, -65.62389374, 0.00000000, 0.00000000, 0.00000000, 105.72514343, 4.74961138, 91.36215973, 1.00000000, 0.00000000, 0.00000000, 0.00000000, 0.41262662, -0.02553090, 0.29902530, 0.00000000, 0.00000000, 0.00000000, 0.00000000
1, 3.2600, 326, -0.09208034, -0.95514995, 0.11324640, 0.30128092, 68.19309998, -73.04234314, 0.00000000, 0.00000000, 0.00000000, 105.80357361, 5.26737309, 92.22010803, 1.00000000, 0.00000000, 0.00000000, 0.00000000, 0.18063654, -0.00345020, 0.15737748, 0.00000000, 0.00000000, 0.00000000, 0.00000000
1, 3.2700, 327, 0.26998648, -1.08490050, 0.26659036, -1.84663558, 91.67469788, -76.60652161, 0.00000000, 0.00000000, 0.00000000, 105.91094208, 5.81781054, 93.27622223, 1.00000000, 0.00000000, 0.00000000, 0.00000000, -0.17263602, 0.12760042, 0.00560723, 0.00000000, 0.00000000, 0.00000000, 0.00000000
1, 3.2800, 328, 0.84998012, -0.98852366, 0.63693774, -24.65799904, 54.06604004, -63.33135605, 0.00000000, 0.00000000, 0.00000000, 105.73738098, 6.27927017, 93.97309113, 1.00000000, 0.00000000, 0.00000000, 0.00000000, -0.74360847, 0.03187951, -0.36580861, 0.00000000, 0.00000000, 0.00000000, 0.00000000
1, 3.2900, 329, 0.94659334, -0.69577730, 0.66370261, -20.10357475, -25.50979614, -46.51110840, 0.00000000, 0.00000000, 0.00000000, 105.52203369, 6.79567957, 93.85179901, 1.00000000, 0.00000000, 0.00000000, 0.00000000, -0.83164477, -0.26102665, -0.39667159, 0.00000000, 0.00000000, 0.00000000, 0.00000000
1, 3.3000, 330, 0.46339226, -0.60684615, 0.50535691, 0.80546159, -71.26399231, -34.37456894, 0.00000000, 0.00000000, 0.00000000, 105.45624542, 7.31708765, 93.25214386, 1.00000000, 0.00000000, 0.00000000, 0.00000000, -0.33943492, -0.34949899, -0.24072140, 0.00000000, 0.00000000, 0.00000000, 0.00000000
1, 3.3100, 331, 0.13596000, -0.77027649, 0.39985377, 9.38744831, -72.09890747, -34.89193344, 0.00000000, 0.00000000, 0.00000000, 105.47017670, 7.84560442, 92.64500427, 1.00000000, 0.00000000, 0.00000000, 0.00000000, -0.00286176, -0.18493493, -0.13556355, 0.00000000, 0.00000000, 0.00000000, 0.00000000
1, 3.3200, 332, 0.00744155, -0.88011152, 0.36763704, -1.26908779, -42.04605103, -36.85708237, 0.00000000, 0.00000000, 0.00000000, 105.48459625, 8.24556732, 92.35582733, 1.00000000, 0.00000000, 0.00000000, 0.00000000, 0.13396366, -0.07401510, -0.10373669, 0.00000000, 0.00000000, 0.00000000, 0.00000000
1, 3.3300, 333, 0.17428510, -0.90317523, 0.34072825, -5.39074469, -12.63260651, -39.78470230, 0.00000000, 0.00000000, 0.00000000, 105.42845917, 8.66270828, 92.33988190, 1.00000000, 0.00000000, 0.00000000, 0.00000000, -0.02638942, -0.05012569, -0.07740340, 0.00000000, 0.00000000, 0.00000000, 0.00000000
1, 3.3400, 334, 0.22565959, -1.00164330, 0.35062593, -2.68425608, 4.80883503, -46.75185776, 0.00000000, 0.00000000, 0.00000000, 105.42836761, 9.10058117, 92.51270294, 1.00000000, 0.00000000, 0.00000000, 0.00000000, -0.07031326, 0.04939377, -0.08778811, 0.00000000, 0.00000000, 0.00000000, 0.00000000
1, 3.3500, 335, 0.23863542, -1.01102459, 0.28086025, -9.02789402, 11.17832184, -46.12665176, 0.00000000, 0.00000000, 0.00000000, 105.37580872, 9.51558304, 92.74605560, 1.00000000, 0.00000000, 0.00000000, 0.00000000, -0.07599281, 0.05975440, -0.01888996, 0.00000000, 0.00000000, 0.00000000, 0.00000000
1, 3.3600, 336, 0.33603814, -0.96846741, 0.40465203, -7.48667097, 6.16630983, -47.83202362, 0.00000000, 0.00000000, 0.00000000, 105.33283997, 9.96050644, 92.93486786, 1.00000000, 0.00000000, 0.00000000, 0.00000000, -0.16600351, 0.01816969, -0.14385003, 0.00000000, 0.00000000, 0.00000000, 0.00000000
1, 3.3700, 337, 0.31228524, -0.96490335, 0.41883814, -0.62015325, -19.24592590, -50.12306595, 0.00000000, 0.00000000, 0.00000000, 105.40232849, 10.56306362, 92.82545471, 1.00000000, 0.00000000, 0.00000000, 0.00000000, -0.13341545, 0.01615024, -0.15833229, 0.00000000, 0.00000000, 0.00000000, 0.00000000
1, 3.3800, 338, 0.19077457, -0.91494542, 0.37069979, 1.91870344, -37.96704865, -53.80467987, 0.00000000, 0.00000000, 0.00000000, 105.37850952, 11.18254471, 92.59799194, 1.00000000, 0.00000000, 0.00000000, 0.00000000, -0.00093350, -0.03170650, -0.11031327, 0.00000000, 0.00000000, 0.00000000, 0.00000000
1, 3.3900, 339, 0.07124695, -0.92515212, 0.42215708, 3.26205039, -45.59292984, -59.63325882, 0.00000000, 0.00000000, 0.00000000, 105.35375977, 11.87841225, 92.31068420, 1.00000000, 0.00000000, 0.00000000, 0.00000000, 0.13004932, -0.01933825, -0.16253051, 0.00000000, 0.00000000, 0.00000000, 0.00000000
1, 3.4000, 340, 0.10302133, -0.89731038, 0.35747442, -0.20532051, -39.73273087, -66.92387390, 0.00000000, 0.00000000, 0.00000000, 105.30695343, 12.62886429, 92.09953308, 1.00000000, 0.00000000, 0.00000000, 0.00000000, 0.11073810, -0.04486854, -0.09941991, 0.00000000, 0.00000000, 0.00000000, 0.00000000
1, 3.4100, 341, 0.18843754, -1.05266798, 0.29209289, 3.57118535, -37.98001480, -76.45147705, 0.00000000, 0.00000000, 0.00000000, 105.30467224, 13.46652985, 91.93073273, 1.00000000, 0.00000000, 0.00000000, 0.00000000, 0.03899224, 0.11343658, -0.03498788, 0.00000000, 0.00000000, 0.00000000, 0.00000000
1, 3.4200, 342, 0.16532861, -1.09337842, 0.20844567, -9.36051273, -28.44845772, -83.89795685, 0.00000000, 0.00000000, 0.00000000, 105.15309906, 14.32673359, 91.89370728, 1.00000000, 0.00000000, 0.00000000, 0.00000000, 0.07675888, 0.15722142, 0.04647649, 0.00000000, 0.00000000, 0.00000000, 0.00000000
1, 3.4300, 343, 0.20266521, -1.14111042, 0.19597559, -9.48715687, -27.42133522, -89.92150116, 0.00000000, 0.00000000, 0.00000000, 105.05027771, 15.26633835, 91.86219788, 1.00000000, 0.00000000, 0.00000000, 0.00000000, 0.05462986, 0.20809951, 0.05555630, 0.00000000, 0.00000000, 0.00000000, 0.00000000
1, 3.4400, 344, 0.23566158, -1.18898654, 0.23820759, -16.81504059, -24.54547310, -95.62512207, 0.00000000, 0.00000000, 0.00000000, 104.88488007, 16.25353432, 91.87254333, 1.00000000, 0.00000000, 0.00000000, 0.00000000, 0.03792082, 0.25972915, 0.01000393, 0.00000000, 0.00000000, 0.00000000, 0.00000000
1, 3.4500, 345, 0.19878715, -1.21774304, 0.32355478, -17.42927170, -33.07902527, -100.98545074, 0.00000000, 0.00000000, 0.00000000, 104.69170380, 17.31433678, 91.80764771, 1.00000000, 0.00000000, 0.00000000, 0.00000000, 0.09207869, 0.29258689, -0.07972087, 0.00000000, 0.00000000, 0.00000000, 0.00000000
1, 3.4600, 346, 0.11869767, -1.27996421, 0.36641890, -14.49579048, -42.81125259, -108.38074493, 0.00000000, 0.00000000, 0.00000000, 104.50093079, 18.47101402, 91.65917206, 1.00000000, 0.00000000, 0.00000000, 0.00000000, 0.19078106, 0.35965824, -0.12719831, 0.00000000, 0.00000000, 0.00000000, 0.00000000
1, 3.4700, 347, 0.08265852, -1.34085357, 0.40232030, -18.50650406, -51.48458862, -117.41097260, 0.00000000, 0.00000000, 0.00000000, 104.25046539, 19.69173050, 91.46553040, 1.00000000, 0.00000000, 0.00000000, 0.00000000, 0.24691412, 0.42621094, -0.16828281, 0.00000000, 0.00000000, 0.00000000, 0.00000000
1, 3.4800, 348, 0.00530545, -1.35872769, 0.31983295, -19.48226547, -55.76140213, -126.18153381, 0.00000000, 0.00000000, 0.00000000, 103.96891785, 21.05137634, 91.21671295, 1.00000000, 0.00000000, 0.00000000, 0.00000000, 0.34545559, 0.45040172, -0.09209596, 0.00000000, 0.00000000, 0.00000000, 0.00000000
1, 3.4900, 349, 0.11213686, -1.39768744, 0.28041008, -24.64411736, -61.76289368, -136.32113647, 0.00000000, 0.00000000, 0.00000000, 103.61259460, 22.52252197, 90.92073059, 1.00000000, 0.00000000, 0.00000000, 0.00000000, 0.26182812, 0.49685434, -0.05996810, 0.00000000, 0.00000000, 0.00000000, 0.00000000
1, 3.5000, 350, 0.10660036, -1.48337579, 0.36405328, -27.02885056, -67.05616760, -148.58624268, 0.00000000, 0.00000000, 0.00000000, 103.20970917, 24.12341309, 90.58587646, 1.00000000, 0.00000000, 0.00000000, 0.00000000, 0.29238409, 0.59130180, -0.15203884, 0.00000000, 0.00000000, 0.00000000, 0.00000000
1, 3.5100, 351, 0.17484109, -1.54268587, 0.40507627, -33.45854568, -77.96721649, -155.04086304, 0.00000000, 0.00000000, 0.00000000, 102.68273926, 25.80903625, 90.13091278, 1.00000000, 0.00000000, 0.00000000, 0.00000000, 0.25044873, 0.66047990, -0.20316821, 0.00000000, 0.00000000, 0.00000000, 0.00000000
1, 3.5200, 352, 0.27281478, -1.58291578, 0.52035928, -34.34048462, -94.04595947, -159.69941711, 0.00000000, 0.00000000, 0.00000000, 102.05868530, 27.54329109, 89.50279236, 1.00000000, 0.00000000, 0.00000000, 0.00000000, 0.17957959, 0.71161532, -0.33037120, 0.00000000, 0.00000000, 0.00000000, 0.00000000
1, 3.5300, 353, 0.13593800, -1.58846796, 0.51887107, -27.87516212, -118.46455383, -159.69895935, 0.00000000, 0.00000000, 0.00000000, 101.32601166, 29.34701157, 88.55117035, 1.00000000, 0.00000000, 0.00000000, 0.00000000, 0.34379086, 0.72903544, -0.34238267, 0.00000000, 0.00000000, 0.00000000, 0.00000000
1, 3.5400, 354, 0.04740064, -1.64608419, 0.49909455, -20.65848732, -154.34280396, -156.39544678, 0.00000000, 0.00000000, 0.00000000, 100.40640259, 31.17383003, 87.13759613, 1.00000000, 0.00000000, 0.00000000, 0.00000000, 0.45992583, 0.79955411, -0.33812469, 0.00000000, 0.00000000, 0.00000000, 0.00000000
1, 3.5500, 355, -0.05412501, -1.74793756, 0.38743424, -12.85001564, -188.09851074, -152.00671387, 0.00000000, 0.00000000, 0.00000000, 99.27779388, 32.99303055, 85.25679779, 1.00000000, 0.00000000, 0.00000000, 0.00000000, 0.58862609, 0.91497332, -0.24468406, 0.00000000, 0.00000000, 0.00000000, 0.00000000
1, 3.5600, 356, -0.34498683, -1.97012234, 0.43709996, -10.82904053, -225.24205017, -146.57212830, 0.00000000, 0.00000000, 0.00000000, 97.81881714, 34.77771378, 82.83641052, 1.00000000, 0.00000000, 0.00000000, 0.00000000, 0.90579385, 1.15112996, -0.31612590, 0.00000000, 0.00000000, 0.00000000, 0.00000000
1, 3.5700, 357, -0.70491868, -2.18762231, 0.49459675, -17.86313057, -262.29916382, -138.50582886, 0.00000000, 0.00000000, 0.00000000, 95.89585876, 36.44353485, 79.85219574, 1.00000000, 0.00000000, 0.00000000, 0.00000000, 1.29038703, 1.38246083, -0.40070236, 0.00000000, 0.00000000, 0.00000000, 0.00000000
1, 3.5800, 358, -0.84464782, -2.39108872, 0.71492177, -21.17917061, -278.01287842, -136.91809082, 0.00000000, 0.00000000, 0.00000000, 93.66431427, 38.04036713, 76.51557159, 1.00000000, 0.00000000, 0.00000000, 0.00000000, 1.45264673, 1.59971058, -0.65230274, 0.00000000, 0.00000000, 0.00000000, 0.00000000
1, 3.5900, 359, -0.87431157, -2.48305845, 0.85287076, -35.71464539, -267.78268433, -148.20401001, 0.00000000, 0.00000000, 0.00000000, 91.20435333, 39.63602448, 73.16199493, 1.00000000, 0.00000000, 0.00000000, 0.00000000, 1.50408685, 1.70692229, -0.82378495, 0.00000000, 0.00000000, 0.00000000, 0.00000000
1, 3.6000, 360, -0.79909945, -2.59642601, 0.77636617, -42.99007416, -242.99983215, -157.93728638, 0.00000000, 0.00000000, 0.00000000, 88.70388031, 41.21421432, 69.96822357, 1.00000000, 0.00000000, 0.00000000, 0.00000000, 1.45021188, 1.83755493, -0.78121388, 0.00000000, 0.00000000, 0.00000000, 0.00000000
1, 3.6100, 361, -0.42592287, -2.50815296, 1.10726058, -68.69330597, -171.76562500, -178.25434875, 0.00000000, 0.00000000, 0.00000000, 86.40264130, 42.92421722, 67.55535889, 1.00000000, 0.00000000, 0.00000000, 0.00000000, 1.09841752, 1.76898718, -1.14253414, 0.00000000, 0.00000000, 0.00000000, 0.00000000
1, 3.6200, 362, 0.05466319, -2.06205940, 1.23514593, -130.73474121, -75.87194061, -197.39845276, 0.00000000, 0.00000000, 0.00000000, 84.24777222, 44.81133652, 66.31745911, 1.00000000, 0.00000000, 0.00000000, 0.00000000, 0.64122516, 1.34670734, -1.29734623, 0.00000000, 0.00000000, 0.00000000, 0.00000000
1, 3.6300, 363, -0.06749345, -2.00512648, 0.98507178, -108.71594238, -77.51647186, -176.93333435, 0.00000000, 0.00000000, 0.00000000, 82.15657806, 46.47500229, 64.91537476, 1.00000000, 0.00000000, 0.00000000, 0.00000000, 0.78541112, 1.31438065, -1.07082367, 0.00000000, 0.00000000, 0.00000000, 0.00000000
1, 3.6400, 364, -0.51441956, -2.18947983, 0.94243985, -81.12165070, -91.89887238, -147.34210205, 0.00000000, 0.00000000, 0.00000000, 80.12306976, 47.78997040, 63.24836731, 1.00000000, 0.00000000, 0.00000000, 0.00000000, 1.24953318, 1.52008951, -1.04939055, 0.00000000, 0.00000000, 0.00000000, 0.00000000
1, 3.6500, 365, -0.31130669, -1.83506298, 0.48784479, -141.51138306, -93.94544220, -126.38053894, 0.00000000, 0.00000000, 0.00000000, 77.39758301, 48.84777069, 61.49417496, 1.00000000, 0.00000000, 0.00000000, 0.00000000, 1.05984354, 1.18540919, -0.62026048, 0.00000000, 0.00000000, 0.00000000, 0.00000000
1, 3.6600, 366, 0.45616969, -0.90365070, -0.02309450, -183.94279480, -95.53412628, -116.30789948, 0.00000000, 0.00000000, 0.00000000, 74.14918518, 49.73986435, 59.63627243, 1.00000000, 0.00000000, 0.00000000, 0.00000000, 0.30331552, 0.27426440, -0.14100309, 0.00000000, 0.00000000, 0.00000000, 0.00000000
1, 3.6700, 367, 2.00974870, -0.44084403, 0.22170997, -94.29164886, -140.93382263, -78.70732117, 0.00000000, 0.00000000, 0.00000000, 71.36031342, 50.09065628, 57.19279480, 1.00000000, 0.00000000, 0.00000000, 0.00000000, -1.24363971, -0.17137685, -0.41713366, 0.00000000, 0.00000000, 0.00000000, 0.00000000
1, 3.6800, 368, 0.58005524, -0.58176887, 1.67084455, 17.18109512, -9.07492638, -103.12098694, 0.00000000, 0.00000000, 0.00000000, 71.02401733, 51.03685379, 56.53252029, 1.00000000, 0.00000000, 0.00000000, 0.00000000, 0.19307271, -0.01781771, -1.87758315, 0.00000000, 0.00000000, 0.00000000, 0.00000000
1, 3.6900, 369, -0.59575909, -0.72507906, 0.47168428, 61.79610443, 14.10225964, -33.72967148, 0.00000000, 0.00000000, 0.00000000, 71.67342377, 51.40130997, 56.57264328, 1.00000000, 0.00000000, 0.00000000, 0.00000000, 1.37651360, 0.13279954, -0.67073470, 0.00000000, 0.00000000, 0.00000000, 0.00000000
1, 3.7000, 370, -0.87364727, -0.69157833, 0.05322142, 9.83166790, -11.68674755, 50.42326355, 0.00000000, 0.00000000, 0.00000000, 71.82984924, 50.88584137, 56.64685440, 1.00000000, 0.00000000, 0.00000000, 0.00000000, 1.65234971, 0.09547058, -0.24884455, 0.00000000, 0.00000000, 0.00000000, 0.00000000
1, 3.7100, 371, -0.30061805, -0.51828909, -0.17059749, -4.35078859, -61.23472977, 87.96838379, 0.00000000, 0.00000000, 0.00000000, 71.41918182, 49.85802460, 56.17025375, 1.00000000, 0.00000000, 0.00000000, 0.00000000, 1.06960201, -0.08821901, -0.03135065, 0.00000000, 0.00000000, 0.00000000, 0.00000000
1, 3.7200, 372, 0.12539464, -0.19503562, -0.16644301, -23.23097610, -54.60850906, 115.64627075, 0.00000000, 0.00000000, 0.00000000, 70.95174408, 48.61026001, 55.88031387, 1.00000000, 0.00000000, 0.00000000, 0.00000000, 0.63032758, -0.42464024, -0.04532369, 0.00000000, 0.00000000, 0.00000000, 0.00000000
1, 3.7300, 373, 0.15061946, 0.12963481, -0.04064011, 12.71097469, -41.66040039, 145.17755127, 0.00000000, 0.00000000, 0.00000000, 71.16539001, 47.10192108, 55.99759293, 1.00000000, 0.00000000, 0.00000000, 0.00000000, 0.58877122, -0.76622963, -0.17842874, 0.00000000, 0.00000000, 0.00000000, 0.00000000
1, 3.7400, 374, -0.01736936, 0.09175325, 0.11820396, 80.86357880, -15.60743618, 163.95211792, 0.00000000, 0.00000000, 0.00000000, 72.35604858, 45.49570084, 56.52707672, 1.00000000, 0.00000000, 0.00000000, 0.00000000, 0.73792505, -0.75058991, -0.33419532, 0.00000000, 0.00000000, 0.00000000, 0.00000000
1, 3.7500, 375, -0.18126743, -0.06283297, 0.15019776, 97.19823456, 24.50104332, 182.28414917, 0.00000000, 0.00000000, 0.00000000, 74.07903290, 43.82064056, 57.59662247, 1.00000000, 0.00000000, 0.00000000, 0.00000000, 0.88161206, -0.62118816, -0.35397929, 0.00000000, 0.00000000, 0.00000000, 0.00000000
1, 3.7600, 376, -0.25238591, -0.10718770, 0.14539242, 104.04378510, 54.91007614, 206.20022583, 0.00000000, 0.00000000, 0.00000000, 76.10516357, 41.96900940, 59.04501724, 1.00000000, 0.00000000, 0.00000000, 0.00000000, 0.93026876, -0.60392404, -0.33155459, 0.00000000, 0.00000000, 0.00000000, 0.00000000
1, 3.7700, 377, -0.21516980, -0.14213713, 0.07578164, 115.75234985, 75.42247009, 229.73010254, 0.00000000, 0.00000000, 0.00000000, 78.36714172, 39.83613205, 60.74498367, 1.00000000, 0.00000000, 0.00000000, 0.00000000, 0.86690152, -0.59822345, -0.23987877, 0.00000000, 0.00000000, 0.00000000, 0.00000000
1, 3.7800, 378, -0.23214050, -0.23114108, 0.07793871, 129.74751282, 93.92538452, 247.50360107, 0.00000000, 0.00000000, 0.00000000, 80.76422882, 37.57201385, 62.50343704, 1.00000000, 0.00000000, 0.00000000, 0.00000000, 0.85373580, -0.53981638, -0.21590276, 0.00000000, 0.00000000, 0.00000000, 0.00000000
1, 3.7900, 379, -0.28947100, -0.35853025, 0.10079367, 146.04206848, 118.43102264, 262.53735352, 0.00000000, 0.00000000, 0.00000000, 83.35453033, 35.13478470, 64.41024780, 1.00000000, 0.00000000, 0.00000000, 0.00000000, 0.87812859, -0.44253930, -0.20811194, 0.00000000, 0.00000000, 0.00000000, 0.00000000
1, 3.8000, 380, -0.24665168, -0.45360878, 0.12098247, 156.09255981, 142.50851440, 279.04238892, 0.00000000, 0.00000000, 0.00000000, 86.03884888, 32.48772812, 66.42839813, 1.00000000, 0.00000000, 0.00000000, 0.00000000, 0.79850912, -0.37702671, -0.19315030, 0.00000000, 0.00000000, 0.00000000, 0.00000000
1, 3.8100, 381, -0.14930639, -0.55395907, 0.18057872, 171.88812256, 161.28506470, 294.66220093, 0.00000000, 0.00000000, 0.00000000, 88.80810547, 29.61639023, 68.46385193, 1.00000000, 0.00000000, 0.00000000, 0.00000000, 0.65994489, -0.30499038, -0.21401930, 0.00000000, 0.00000000, 0.00000000, 0.00000000
1, 3.8200, 382, -0.04685290, -0.70668226, 0.17491049, 182.66654968, 172.04939270, 307.18655396, 0.00000000, 0.00000000, 0.00000000, 91.56303406, 26.50776672, 70.42771149, 1.00000000, 0.00000000, 0.00000000, 0.00000000, 0.51165664, -0.17848010, -0.16654930, 0.00000000, 0.00000000, 0.00000000, 0.00000000
1, 3.8300, 383, -0.00222884, -0.85901219, 0.15045609, 179.73005676, 172.25563049, 320.66430664, 0.00000000, 0.00000000, 0.00000000, 94.08540344, 23.22009850, 72.14877319, 1.00000000, 0.00000000, 0.00000000, 0.00000000, 0.41637871, -0.04959790, -0.10021548, 0.00000000, 0.00000000, 0.00000000, 0.00000000
1, 3.8400, 384, -0.00081323, -1.00096536, 0.13212435, 176.66304016, 169.32614136, 335.01657104, 0.00000000, 0.00000000, 0.00000000, 96.39596558, 19.72934914, 73.63117981, 1.00000000, 0.00000000, 0.00000000, 0.00000000, 0.36001891, 0.07229134, -0.04194047, 0.00000000, 0.00000000, 0.00000000, 0.00000000
1, 3.8500, 385, 0.02915983, -1.20481312, 0.13745853, 175.07319641, 164.33149719, 351.14642334, 0.00000000, 0.00000000, 0.00000000, 98.52666473, 16.03451920, 74.86327362, 1.00000000, 0.00000000, 0.00000000, 0.00000000, 0.27042431, 0.25967219, -0.00887980, 0.00000000, 0.00000000, 0.00000000, 0.00000000
1, 3.8600, 386, 0.23245177, -1.48319554, 0.21518520, 168.64450073, 156.95494080, 365.53991699, 0.00000000, 0.00000000, 0.00000000, 100.45173645, 12.17064571, 75.83724976, 1.00000000, 0.00000000, 0.00000000, 0.00000000, 0.00318312, 0.52560282, -0.05070964, 0.00000000, 0.00000000, 0.00000000, 0.00000000
1, 3.8700, 387, 0.62453008, -1.75798130, 0.29987499, 162.59944153, 152.98751831, 376.76663208, 0.00000000, 0.00000000, 0.00000000, 102.21369171, 8.18495178, 76.60214233, 1.00000000, 0.00000000, 0.00000000, 0.00000000, -0.45630762, 0.79248571, -0.10221694, 0.00000000, 0.00000000, 0.00000000, 0.00000000
1, 3.8800, 388, 0.89975059, -1.94516206, 0.28187472, 153.97073364, 125.41625214, 393.46884155, 0.00000000, 0.00000000, 0.00000000, 103.79261017, 4.07010651, 76.94033813, 1.00000000, 0.00000000, 0.00000000, 0.00000000, -0.80190635, 0.97652638, -0.05447710, 0.00000000, 0.00000000, 0.00000000, 0.00000000
1, 3.8900, 389, 0.87450367, -2.07351780, 0.38807303, 150.70152283, 97.79131317, 397.99545288, 0.00000000, 0.00000000, 0.00000000, 105.29886627, -0.02744883, 76.88729858, 1.00000000, 0.00000000, 0.00000000, 0.00000000, -0.84825402, 1.10696328, -0.13384557, 0.00000000, 0.00000000, 0.00000000, 0.00000000
1, 3.9000, 390, 0.90300411, -2.15399098, 0.49991792, 145.12661743, 101.23146820, 392.22451782, 0.00000000, 0.00000000, 0.00000000, 106.75383759, -4.07678175, 76.77711487, 1.00000000, 0.00000000, 0.00000000, 0.00000000, -0.94769990, 1.19492805, -0.22105956, 0.00000000, 0.00000000, 0.00000000, 0.00000000
1, 3.9100, 391, 0.96403402, -2.26467156, 0.43623427, 140.15054321, 106.62622070, 381.11459351, 0.00000000, 0.00000000, 0.00000000, 108.16896820, -8.03216171, 76.64991760, 1.00000000, 0.00000000, 0.00000000, 0.00000000, -1.07824266, 1.31813252, -0.13522959, 0.00000000, 0.00000000, 0.00000000, 0.00000000
1, 3.9200, 392, 1.13439763, -2.42129779, 0.34253913, 133.80406189, 114.26158142, 363.53814697, 0.00000000, 0.00000000, 0.00000000, 109.51939392, -11.82977772, 76.54874420, 1.00000000, 0.00000000, 0.00000000, 0.00000000, -1.31525826, 1.49165702, -0.02210743, 0.00000000, 0.00000000, 0.00000000, 0.00000000
