SensorId, TimeStamp (s), FrameNumber, AccX (g), AccY (g), AccZ (g), GyroX (deg/s), GyroY (deg/s), GyroZ (deg/s), MagX (uT), MagY (uT), MagZ (uT), EulerX (deg), EulerY (deg), EulerZ (deg), QuatW, QuatX, QuatY, QuatZ, LinAccX (g), LinAccY (g), LinAccZ (g), Pressure (kPa), Altitude (m), Temperature (degC), HeaveMotion (m)
1, -0.0001, 0, 0.35167539, -0.99460244, 0.25913027, -0.49580455, 27.29209328, -96.99700165, 0.00000000, 0.00000000, 0.00000000, 108.72396851, -3.56185150, 73.33400726, 1.00000000, 0.00000000, 0.00000000, 0.00000000, -0.41908801, 0.04975617, 0.06134640, 0.00000000, 0.00000000, 0.00000000, 0.00000000
1, 0.0099, 1, 0.32349175, -0.94790351, 0.22915520, -2.01812458, 9.56688595, -82.17306519, 0.00000000, 0.00000000, 0.00000000, 108.68382263, -2.81423283, 73.68872833, 1.00000000, 0.00000000, 0.00000000, 0.00000000, -0.37740546, 0.00208853, 0.09102350, 0.00000000, 0.00000000, 0.00000000, 0.00000000
1, 0.0199, 2, 0.41979858, -0.91319102, 0.22284657, -6.58542061, -16.56672096, -72.46824646, 0.00000000, 0.00000000, 0.00000000, 108.61450195, -2.07463884, 73.76355743, 1.00000000, 0.00000000, 0.00000000, 0.00000000, -0.46085033, -0.03355502, 0.09648652, 0.00000000, 0.00000000, 0.00000000, 0.00000000
1, 0.0299, 3, 0.37787816, -0.92173028, 0.31157401, -0.19121078, -35.82361221, -61.92405701, 0.00000000, 0.00000000, 0.00000000, 108.61666870, -1.37345743, 73.62162018, 1.00000000, 0.00000000, 0.00000000, 0.00000000, -0.40632945, -0.02558789, 0.00743586, 0.00000000, 0.00000000, 0.00000000, 0.00000000
1, 0.0399, 4, 0.35171625, -0.89274043, 0.24587506, -5.15704536, -55.44435883, -49.37270737, 0.00000000, 0.00000000, 0.00000000, 108.56083679, -0.65876585, 73.22439575, 1.00000000, 0.00000000, 0.00000000, 0.00000000, -0.36831313, -0.05492392, 0.07294177, 0.00000000, 0.00000000, 0.00000000, 0.00000000
1, 0.0499, 5, 0.27294570, -0.91192406, 0.26456037, -4.55116510, -75.76851654, -39.17273712, 0.00000000, 0.00000000, 0.00000000, 108.51882172, -0.04654093, 72.63050079, 1.00000000, 0.00000000, 0.00000000, 0.00000000, -0.27768597, -0.03623381, 0.05319001, 0.00000000, 0.00000000, 0.00000000, 0.00000000
1, 0.0599, 6, 0.09005129, -0.94681430, 0.23426288, -1.16331649, -78.30271912, -30.73949242, 0.00000000, 0.00000000, 0.00000000, 108.50461578, 0.49360007, 71.98561859, 1.00000000, 0.00000000, 0.00000000, 0.00000000, -0.08490087, -0.00141682, 0.08326562, 0.00000000, 0.00000000, 0.00000000, 0.00000000
1, 0.0699, 7, 0.05214628, -0.96890545, 0.23802896, -4.49482393, -79.80348206, -25.23917198, 0.00000000, 0.00000000, 0.00000000, 108.45092010, 0.98579031, 71.30857086, 1.00000000, 0.00000000, 0.00000000, 0.00000000, -0.03810271, 0.02046266, 0.07859921, 0.00000000, 0.00000000, 0.00000000, 0.00000000
1, 0.0799, 8, -0.01660504, -1.06051338, 0.22899546, 3.11975193, -64.27740479, -23.94188881, 0.00000000, 0.00000000, 0.00000000, 108.47098541, 1.41645420, 70.77459717, 1.00000000, 0.00000000, 0.00000000, 0.00000000, 0.03858546, 0.11224052, 0.08769256, 0.00000000, 0.00000000, 0.00000000, 0.00000000
1, 0.0899, 9, -0.00356721, -1.06081915, 0.20377567, -0.35970941, -48.04544449, -26.10531998, 0.00000000, 0.00000000, 0.00000000, 108.42702484, 1.80721295, 70.41320801, 1.00000000, 0.00000000, 0.00000000, 0.00000000, 0.03261901, 0.11262745, 0.11258589, 0.00000000, 0.00000000, 0.00000000, 0.00000000
1, 0.0999, 10, -0.02402376, -1.05628562, 0.29145971, 4.65106487, -32.85206604, -28.85739326, 0.00000000, 0.00000000, 0.00000000, 108.46591187, 2.18488955, 70.19273376, 1.00000000, 0.00000000, 0.00000000, 0.00000000, 0.05973899, 0.10829228, 0.02481478, 0.00000000, 0.00000000, 0.00000000, 0.00000000
1, 0.1099, 11, 0.01687822, -0.99601632, 0.29961446, 2.14491105, -19.69725800, -28.28664970, 0.00000000, 0.00000000, 0.00000000, 108.48341370, 2.51560426, 70.09548187, 1.00000000, 0.00000000, 0.00000000, 0.00000000, 0.02489771, 0.04841395, 0.01709062, 0.00000000, 0.00000000, 0.00000000, 0.00000000
1, 0.1199, 12, 0.13929114, -0.95625752, 0.30730987, 0.70856208, -11.58749962, -28.99592018, 0.00000000, 0.00000000, 0.00000000, 108.48970032, 2.82733822, 70.07748413, 1.00000000, 0.00000000, 0.00000000, 0.00000000, -0.09197441, 0.00890596, 0.00936630, 0.00000000, 0.00000000, 0.00000000, 0.00000000
1, 0.1299, 13, 0.14388217, -0.97795713, 0.36028734, 9.06898880, -2.71579504, -26.36878586, 0.00000000, 0.00000000, 0.00000000, 108.58340454, 3.08598185, 70.13561249, 1.00000000, 0.00000000, 0.00000000, 0.00000000, -0.09164092, 0.03116252, -0.04271998, 0.00000000, 0.00000000, 0.00000000, 0.00000000
1, 0.1399, 14, 0.17132230, -0.97818047, 0.33135605, 8.72193146, 0.72938001, -22.82408905, 0.00000000, 0.00000000, 0.00000000, 108.67545319, 3.40670371, 70.16750336, 1.00000000, 0.00000000, 0.00000000, 0.00000000, -0.11466478, 0.03218812, -0.01216140, 0.00000000, 0.00000000, 0.00000000, 0.00000000
1, 0.1499, 15, 0.19987074, -0.96963203, 0.36093986, 9.28216839, -2.20743370, -20.01320648, 0.00000000, 0.00000000, 0.00000000, 108.77091980, 3.60334229, 70.21089172, 1.00000000, 0.00000000, 0.00000000, 0.00000000, -0.13830510, 0.02437310, -0.04048073, 0.00000000, 0.00000000, 0.00000000, 0.00000000
1, 0.1599, 16, 0.12174318, -0.97294813, 0.37500286, 17.75738716, -14.06430149, -17.40436172, 0.00000000, 0.00000000, 0.00000000, 108.94345856, 3.81354213, 70.13389587, 1.00000000, 0.00000000, 0.00000000, 0.00000000, -0.05664873, 0.02874708, -0.05213252, 0.00000000, 0.00000000, 0.00000000, 0.00000000
1, 0.1699, 17, 0.17892185, -0.92244428, 0.36115280, 8.86740303, -33.47472763, -14.89951611, 0.00000000, 0.00000000, 0.00000000, 109.01361847, 4.06336451, 69.86521912, 1.00000000, 0.00000000, 0.00000000, 0.00000000, -0.10975406, -0.02082601, -0.03641380, 0.00000000, 0.00000000, 0.00000000, 0.00000000
1, 0.1799, 18, 0.19378026, -0.89718354, 0.38275352, 12.30263901, -41.94600296, -12.25906754, 0.00000000, 0.00000000, 0.00000000, 109.11052704, 4.31616497, 69.50778198, 1.00000000, 0.00000000, 0.00000000, 0.00000000, -0.12011338, -0.04539308, -0.05699166, 0.00000000, 0.00000000, 0.00000000, 0.00000000
1, 0.1899, 19, 0.15426989, -0.89748073, 0.34770009, 12.09922981, -40.85335922, -9.77631569, 0.00000000, 0.00000000, 0.00000000, 109.20915985, 4.57728052, 69.13672638, 1.00000000, 0.00000000, 0.00000000, 0.00000000, -0.07638665, -0.04415350, -0.02019852, 0.00000000, 0.00000000, 0.00000000, 0.00000000
1, 0.1999, 20, 0.21293136, -0.86721539, 0.32899311, 7.71999502, -49.12513351, -9.24276352, 0.00000000, 0.00000000, 0.00000000, 109.25070190, 4.82635212, 68.70187378, 1.00000000, 0.00000000, 0.00000000, 0.00000000, -0.13047813, -0.07374321, -0.00066891, 0.00000000, 0.00000000, 0.00000000, 0.00000000
1, 0.2099, 21, 0.15014935, -0.91078824, 0.41218311, 11.01365566, -54.05069733, -9.11365604, 0.00000000, 0.00000000, 0.00000000, 109.31918335, 5.09084988, 68.21996307, 1.00000000, 0.00000000, 0.00000000, 0.00000000, -0.06313140, -0.02949400, -0.08310057, 0.00000000, 0.00000000, 0.00000000, 0.00000000
1, 0.2199, 22, 0.05924048, -0.96020114, 0.36789829, 12.99123287, -56.32312775, -9.70712566, 0.00000000, 0.00000000, 0.00000000, 109.40341949, 5.36919832, 67.71872711, 1.00000000, 0.00000000, 0.00000000, 0.00000000, 0.03246877, 0.02081622, -0.03752969, 0.00000000, 0.00000000, 0.00000000, 0.00000000
1, 0.2299, 23, 0.02868592, -0.99714333, 0.36916730, 9.18627071, -53.96647644, -12.83511543, 0.00000000, 0.00000000, 0.00000000, 109.45025635, 5.66972685, 67.25030518, 1.00000000, 0.00000000, 0.00000000, 0.00000000, 0.06813718, 0.05853231, -0.03805957, 0.00000000, 0.00000000, 0.00000000, 0.00000000
1, 0.2399, 24, -0.02678006, -1.03360558, 0.34233475, 11.93173599, -36.37928009, -14.84877205, 0.00000000, 0.00000000, 0.00000000, 109.52739716, 5.88016939, 66.97935486, 1.00000000, 0.00000000, 0.00000000, 0.00000000, 0.12824804, 0.09584029, -0.01022115, 0.00000000, 0.00000000, 0.00000000, 0.00000000
1, 0.2499, 25, -0.02277429, -1.03096056, 0.30001777, 11.65251637, -26.66715813, -16.32327652, 0.00000000, 0.00000000, 0.00000000, 109.62325287, 6.12332201, 66.78172302, 1.00000000, 0.00000000, 0.00000000, 0.00000000, 0.12782213, 0.09405228, 0.03339813, 0.00000000, 0.00000000, 0.00000000, 0.00000000
1, 0.2599, 26, 0.03410047, -1.01459968, 0.36258230, 9.36494541, -25.70814896, -19.80130196, 0.00000000, 0.00000000, 0.00000000, 109.69768524, 6.39627600, 66.60520172, 1.00000000, 0.00000000, 0.00000000, 0.00000000, 0.07552341, 0.07861470, -0.02804853, 0.00000000, 0.00000000, 0.00000000, 0.00000000
1, 0.2699, 27, -0.02382760, -0.98967016, 0.38258329, 8.66735744, -13.97924805, -22.64684296, 0.00000000, 0.00000000, 0.00000000, 109.77808380, 6.65664387, 66.54976654, 1.00000000, 0.00000000, 0.00000000, 0.00000000, 0.13807602, 0.05467515, -0.04683067, 0.00000000, 0.00000000, 0.00000000, 0.00000000
1, 0.2799, 28, 0.00478281, -0.91492337, 0.41169652, 2.72297430, -7.75718689, -25.28309822, 0.00000000, 0.00000000, 0.00000000, 109.80684662, 6.92079544, 66.56248474, 1.00000000, 0.00000000, 0.00000000, 0.00000000, 0.11397382, -0.01932152, -0.07542059, 0.00000000, 0.00000000, 0.00000000, 0.00000000
1, 0.2899, 29, -0.04200570, -0.90903306, 0.42677039, 1.74975729, 1.11082220, -29.24393845, 0.00000000, 0.00000000, 0.00000000, 109.84909058, 7.07414341, 66.72460175, 1.00000000, 0.00000000, 0.00000000, 0.00000000, 0.16490307, -0.02453606, -0.09010383, 0.00000000, 0.00000000, 0.00000000, 0.00000000
1, 0.2999, 30, -0.09904089, -0.91133446, 0.39906067, -0.21191931, -3.20634031, -36.11299515, 0.00000000, 0.00000000, 0.00000000, 109.85868073, 7.42468977, 66.81787872, 1.00000000, 0.00000000, 0.00000000, 0.00000000, 0.22583494, -0.02159375, -0.06206638, 0.00000000, 0.00000000, 0.00000000, 0.00000000
1, 0.3099, 31, -0.10706122, -0.95303124, 0.51969594, -4.27300501, -15.24741650, -43.22240448, 0.00000000, 0.00000000, 0.00000000, 109.81634521, 7.88300085, 66.82112885, 1.00000000, 0.00000000, 0.00000000, 0.00000000, 0.24112171, 0.02082521, -0.18351975, 0.00000000, 0.00000000, 0.00000000, 0.00000000
1, 0.3199, 32, -0.07789922, -0.98269433, 0.50575209, -8.81001282, -15.66564274, -48.99902344, 0.00000000, 0.00000000, 0.00000000, 109.73091125, 8.39709854, 66.83974457, 1.00000000, 0.00000000, 0.00000000, 0.00000000, 0.22052996, 0.05127123, -0.17093757, 0.00000000, 0.00000000, 0.00000000, 0.00000000
1, 0.3299, 33, -0.00341389, -1.02499664, 0.46466601, -15.57533836, -14.02678204, -54.70661926, 0.00000000, 0.00000000, 0.00000000, 109.58310699, 8.95946884, 66.89228821, 1.00000000, 0.00000000, 0.00000000, 0.00000000, 0.15543576, 0.09412561, -0.13246061, 0.00000000, 0.00000000, 0.00000000, 0.00000000
1, 0.3399, 34, 0.04151049, -1.04359901, 0.45744133, -20.57984543, -15.45695305, -59.57948303, 0.00000000, 0.00000000, 0.00000000, 109.40715027, 9.55017471, 66.95361328, 1.00000000, 0.00000000, 0.00000000, 0.00000000, 0.12065633, 0.11326936, -0.12853475, 0.00000000, 0.00000000, 0.00000000, 0.00000000
1, 0.3499, 35, 0.05043680, -1.02392161, 0.47475132, -26.45387268, -22.46841812, -64.71750641, 0.00000000, 0.00000000, 0.00000000, 109.14279175, 10.23521614, 66.95520020, 1.00000000, 0.00000000, 0.00000000, 0.00000000, 0.12272160, 0.09408589, -0.15008490, 0.00000000, 0.00000000, 0.00000000, 0.00000000
1, 0.3599, 36, -0.00775430, -1.01418006, 0.50807768, -30.91927147, -28.56043816, -69.03945923, 0.00000000, 0.00000000, 0.00000000, 108.82506561, 10.98095131, 66.90895081, 1.00000000, 0.00000000, 0.00000000, 0.00000000, 0.19338229, 0.08480769, -0.18902686, 0.00000000, 0.00000000, 0.00000000, 0.00000000
1, 0.3699, 37, -0.00359246, -1.04868972, 0.55095571, -31.49509048, -27.75181007, -72.96018982, 0.00000000, 0.00000000, 0.00000000, 108.50425720, 11.76100159, 66.87893677, 1.00000000, 0.00000000, 0.00000000, 0.00000000, 0.20238474, 0.11998592, -0.23794788, 0.00000000, 0.00000000, 0.00000000, 0.00000000
1, 0.3799, 38, 0.09449957, -1.12416577, 0.52843404, -34.91851807, -27.47542191, -77.27233124, 0.00000000, 0.00000000, 0.00000000, 108.15116882, 12.58090496, 66.86067200, 1.00000000, 0.00000000, 0.00000000, 0.00000000, 0.11799031, 0.19635051, -0.22185969, 0.00000000, 0.00000000, 0.00000000, 0.00000000
1, 0.3899, 39, -0.02207694, -1.25132489, 0.45190459, -38.42984009, -32.15470886, -81.93928528, 0.00000000, 0.00000000, 0.00000000, 107.75667572, 13.43308926, 66.81801605, 1.00000000, 0.00000000, 0.00000000, 0.00000000, 0.24906704, 0.32464093, -0.15238619, 0.00000000, 0.00000000, 0.00000000, 0.00000000
1, 0.3999, 40, 0.05175956, -1.23314750, 0.41154918, -47.26230240, -34.85972214, -87.20030975, 0.00000000, 0.00000000, 0.00000000, 107.26665497, 14.36953640, 66.74584961, 1.00000000, 0.00000000, 0.00000000, 0.00000000, 0.19036892, 0.30759320, -0.12052308, 0.00000000, 0.00000000, 0.00000000, 0.00000000
1, 0.4099, 41, -0.00271452, -1.24545896, 0.39755812, -51.75278473, -44.22199249, -93.06543732, 0.00000000, 0.00000000, 0.00000000, 106.70890045, 15.38874435, 66.58961487, 1.00000000, 0.00000000, 0.00000000, 0.00000000, 0.26150024, 0.32138228, -0.11634731, 0.00000000, 0.00000000, 0.00000000, 0.00000000
1, 0.4199, 42, -0.02901183, -1.25497305, 0.34291673, -56.80890656, -43.69855881, -100.36453247, 0.00000000, 0.00000000, 0.00000000, 106.10218048, 16.47501564, 66.44850159, 1.00000000, 0.00000000, 0.00000000, 0.00000000, 0.30571562, 0.33281460, -0.07269066, 0.00000000, 0.00000000, 0.00000000, 0.00000000
1, 0.4299, 43, -0.00945160, -1.30144846, 0.30573031, -58.21352386, -40.08367538, -107.51436615, 0.00000000, 0.00000000, 0.00000000, 105.49154663, 17.61870766, 66.35115814, 1.00000000, 0.00000000, 0.00000000, 0.00000000, 0.30489609, 0.38184047, -0.04689873, 0.00000000, 0.00000000, 0.00000000, 0.00000000
1, 0.4399, 44, -0.07233862, -1.33788180, 0.30443263, -63.23736954, -38.22704315, -114.76313782, 0.00000000, 0.00000000, 0.00000000, 104.83489227, 18.79833412, 66.29158020, 1.00000000, 0.00000000, 0.00000000, 0.00000000, 0.38735664, 0.42153305, -0.05739901, 0.00000000, 0.00000000, 0.00000000, 0.00000000
1, 0.4499, 45, -0.10832561, -1.33075321, 0.33928865, -65.81998444, -34.33965683, -120.37291718, 0.00000000, 0.00000000, 0.00000000, 104.16579437, 20.04973030, 66.25865936, 1.00000000, 0.00000000, 0.00000000, 0.00000000, 0.44339454, 0.41825867, -0.10469228, 0.00000000, 0.00000000, 0.00000000, 0.00000000
1, 0.4599, 46, -0.04209298, -1.33403373, 0.33724773, -70.66678619, -30.71156883, -126.99049377, 0.00000000, 0.00000000, 0.00000000, 103.46102142, 21.35625648, 66.26398468, 1.00000000, 0.00000000, 0.00000000, 0.00000000, 0.39819366, 0.42630759, -0.11549521, 0.00000000, 0.00000000, 0.00000000, 0.00000000
1, 0.4699, 47, -0.19770445, -1.38369727, 0.38238794, -71.83769989, -34.53194046, -132.88343811, 0.00000000, 0.00000000, 0.00000000, 102.72824097, 22.72870445, 66.22596741, 1.00000000, 0.00000000, 0.00000000, 0.00000000, 0.57568449, 0.48167872, -0.17397249, 0.00000000, 0.00000000, 0.00000000, 0.00000000
1, 0.4799, 48, -0.18329467, -1.38977706, 0.42202792, -78.36244202, -34.80414200, -137.37406921, 0.00000000, 0.00000000, 0.00000000, 101.92439270, 24.14511490, 66.17501831, 1.00000000, 0.00000000, 0.00000000, 0.00000000, 0.58381462, 0.49430943, -0.22796449, 0.00000000, 0.00000000, 0.00000000, 0.00000000
1, 0.4899, 49, -0.20972405, -1.41209936, 0.40826064, -79.85247803, -38.48506165, -141.17904663, 0.00000000, 0.00000000, 0.00000000, 101.08621216, 25.57456017, 66.08385468, 1.00000000, 0.00000000, 0.00000000, 0.00000000, 0.63304532, 0.52404511, -0.22910675, 0.00000000, 0.00000000, 0.00000000, 0.00000000
1, 0.4999, 50, -0.26897624, -1.43036175, 0.36856705, -79.92646790, -50.80148697, -144.77067566, 0.00000000, 0.00000000, 0.00000000, 100.17156982, 27.09093094, 65.82458496, 1.00000000, 0.00000000, 0.00000000, 0.00000000, 0.71544248, 0.55064815, -0.20516494, 0.00000000, 0.00000000, 0.00000000, 0.00000000
1, 0.5099, 51, -0.37063968, -1.42278445, 0.34351403, -82.00307465, -70.63679504, -146.67651367, 0.00000000, 0.00000000, 0.00000000, 99.11264801, 28.65503311, 65.31476593, 1.00000000, 0.00000000, 0.00000000, 0.00000000, 0.84110594, 0.55257821, -0.19749178, 0.00000000, 0.00000000, 0.00000000, 0.00000000
1, 0.5199, 52, -0.41094506, -1.39703536, 0.32865843, -80.72356415, -90.65319824, -147.36563110, 0.00000000, 0.00000000, 0.00000000, 97.92211914, 30.24656487, 64.53581238, 1.00000000, 0.00000000, 0.00000000, 0.00000000, 0.90560180, 0.53727084, -0.20203616, 0.00000000, 0.00000000, 0.00000000, 0.00000000
1, 0.5299, 53, -0.34906706, -1.41317141, 0.33109215, -84.40538025, -103.83670807, -151.29080200, 0.00000000, 0.00000000, 0.00000000, 96.57215118, 31.87823105, 63.55609512, 1.00000000, 0.00000000, 0.00000000, 0.00000000, 0.86799777, 0.56495488, -0.22553235, 0.00000000, 0.00000000, 0.00000000, 0.00000000
1, 0.5399, 54, -0.39560753, -1.50204337, 0.41409913, -88.64214325, -116.17465210, -159.48651123, 0.00000000, 0.00000000, 0.00000000, 95.05479431, 33.55646515, 62.38818359, 1.00000000, 0.00000000, 0.00000000, 0.00000000, 0.93921590, 0.66682947, -0.33163434, 0.00000000, 0.00000000, 0.00000000, 0.00000000
1, 0.5499, 55, -0.50818068, -1.59150851, 0.57307965, -96.83104706, -121.56284332, -165.73200989, 0.00000000, 0.00000000, 0.00000000, 93.33879852, 35.29859543, 61.06574249, 1.00000000, 0.00000000, 0.00000000, 0.00000000, 1.07666874, 0.77089107, -0.51574433, 0.00000000, 0.00000000, 0.00000000, 0.00000000
1, 0.5599, 56, -0.34655812, -1.61524034, 0.71549743, -108.14687347, -99.13491821, -165.18910217, 0.00000000, 0.00000000, 0.00000000, 91.58650970, 36.99220276, 59.92747116, 1.00000000, 0.00000000, 0.00000000, 0.00000000, 0.93942451, 0.81062508, -0.68404186, 0.00000000, 0.00000000, 0.00000000, 0.00000000
1, 0.5699, 57, -0.18248516, -1.60889685, 0.81441849, -109.11283875, -65.51058197, -162.24348450, 0.00000000, 0.00000000, 0.00000000, 90.00532532, 38.62411499, 59.12692642, 1.00000000, 0.00000000, 0.00000000, 0.00000000, 0.79836631, 0.82116026, -0.80646014, 0.00000000, 0.00000000, 0.00000000, 0.00000000
1, 0.5799, 58, -0.39045700, -1.60576415, 0.71080190, -103.14193726, -46.66650772, -154.97225952, 0.00000000, 0.00000000, 0.00000000, 88.57481384, 40.16790390, 58.49843979, 1.00000000, 0.00000000, 0.00000000, 0.00000000, 1.02779043, 0.83532202, -0.72261620, 0.00000000, 0.00000000, 0.00000000, 0.00000000
1, 0.5899, 59, -0.42807290, -1.42845309, 0.41504058, -110.26618958, -47.62358093, -154.61636353, 0.00000000, 0.00000000, 0.00000000, 87.02581787, 41.65111542, 57.81793976, 1.00000000, 0.00000000, 0.00000000, 0.00000000, 1.08554399, 0.67568171, -0.44637284, 0.00000000, 0.00000000, 0.00000000, 0.00000000
1, 0.5999, 60, -0.08178448, -1.17500746, 0.29272172, -114.44821930, -48.38898849, -160.20892334, 0.00000000, 0.00000000, 0.00000000, 85.34272766, 43.21772385, 57.01934052, 1.00000000, 0.00000000, 0.00000000, 0.00000000, 0.75899315, 0.44109619, -0.34437007, 0.00000000, 0.00000000, 0.00000000, 0.00000000
1, 0.6099, 61, 0.39378145, -0.97663611, 0.20686330, -103.44175720, -37.32860184, -156.66091919, 0.00000000, 0.00000000, 0.00000000, 83.80614471, 44.74176788, 56.29655838, 1.00000000, 0.00000000, 0.00000000, 0.00000000, 0.30314815, 0.26301247, -0.27720910, 0.00000000, 0.00000000, 0.00000000, 0.00000000
1, 0.6199, 62, 0.94898456, -0.77236068, 0.27179030, -63.39228439, -59.51360321, -141.45343018, 0.00000000, 0.00000000, 0.00000000, 82.39889526, 46.07377243, 55.21189880, 1.00000000, 0.00000000, 0.00000000, 0.00000000, -0.23464948, 0.07793742, -0.35803503, 0.00000000, 0.00000000, 0.00000000, 0.00000000
1, 0.6299, 63, 1.07987213, -0.62704211, 0.66139340, -5.57973480, -74.15617371, -121.26467896, 0.00000000, 0.00000000, 0.00000000, 81.38414001, 47.16910553, 53.89282608, 1.00000000, 0.00000000, 0.00000000, 0.00000000, -0.35111672, -0.05056149, -0.76004684, 0.00000000, 0.00000000, 0.00000000, 0.00000000
1, 0.6399, 64, 0.41341048, -0.61112523, 0.81243825, 24.52203178, -45.08911133, -75.72262573, 0.00000000, 0.00000000, 0.00000000, 81.28257751, 47.79138565, 53.22481918, 1.00000000, 0.00000000, 0.00000000, 0.00000000, 0.32523057, -0.05498676, -0.91585821, 0.00000000, 0.00000000, 0.00000000, 0.00000000
1, 0.6499, 65, -0.37000260, -0.51337749, 0.64395040, 25.62242889, -22.44356537, -14.76455116, 0.00000000, 0.00000000, 0.00000000, 81.26853943, 47.90327072, 52.86055756, 1.00000000, 0.00000000, 0.00000000, 0.00000000, 1.11211312, -0.14913684, -0.74566829, 0.00000000, 0.00000000, 0.00000000, 0.00000000
1, 0.6599, 66, -0.51249450, -0.41029322, 0.34691167, 7.10579967, -78.51627350, 35.05859375, 0.00000000, 0.00000000, 0.00000000, 80.54890442, 47.43330765, 51.79122543, 1.00000000, 0.00000000, 0.00000000, 0.00000000, 1.25141597, -0.25494251, -0.45388564, 0.00000000, 0.00000000, 0.00000000, 0.00000000
1, 0.6699, 67, -0.26403779, -0.37087983, 0.08945490, -10.33820248, -81.09239960, 59.18057251, 0.00000000, 0.00000000, 0.00000000, 79.69538879, 46.71120834, 50.76729202, 1.00000000, 0.00000000, 0.00000000, 0.00000000, 0.99529696, -0.30082560, -0.20799312, 0.00000000, 0.00000000, 0.00000000, 0.00000000
1, 0.6799, 68, -0.02279499, -0.37111685, -0.08604628, -3.44505620, -59.15183640, 73.30169678, 0.00000000, 0.00000000, 0.00000000, 79.19287872, 45.88216782, 50.12021637, 1.00000000, 0.00000000, 0.00000000, 0.00000000, 0.74453706, -0.30911994, -0.04180967, 0.00000000, 0.00000000, 0.00000000, 0.00000000
1, 0.6899, 69, 0.13847427, -0.34729037, -0.05555535, 9.72119141, -44.79347992, 84.68427277, 0.00000000, 0.00000000, 0.00000000, 79.02180481, 44.94643021, 49.74303055, 1.00000000, 0.00000000, 0.00000000, 0.00000000, 0.57248157, -0.34313411, -0.07798882, 0.00000000, 0.00000000, 0.00000000, 0.00000000
1, 0.6999, 70, 0.11751298, -0.32065126, 0.12344077, 32.66171646, -27.09605408, 104.08869171, 0.00000000, 0.00000000, 0.00000000, 79.27954102, 43.87300110, 49.64518356, 1.00000000, 0.00000000, 0.00000000, 0.00000000, 0.58078498, -0.38232103, -0.25827351, 0.00000000, 0.00000000, 0.00000000, 0.00000000
1, 0.7099, 71, 0.02446467, -0.31829375, 0.21242818, 53.81755829, -3.54398251, 133.01603699, 0.00000000, 0.00000000, 0.00000000, 80.00928497, 42.55798340, 49.92555237, 1.00000000, 0.00000000, 0.00000000, 0.00000000, 0.65843260, -0.40042728, -0.34296703, 0.00000000, 0.00000000, 0.00000000, 0.00000000
1, 0.7199, 72, -0.04971178, -0.34989092, 0.17740317, 67.72354126, 14.93754196, 163.51222229, 0.00000000, 0.00000000, 0.00000000, 81.05808258, 40.96958923, 50.48364258, 1.00000000, 0.00000000, 0.00000000, 0.00000000, 0.71344978, -0.38807991, -0.29894572, 0.00000000, 0.00000000, 0.00000000, 0.00000000
1, 0.7299, 73, -0.08979519, -0.41298738, 0.14834695, 76.21190643, 23.74691200, 191.51083374, 0.00000000, 0.00000000, 0.00000000, 82.25116730, 39.10917282, 51.15336609, 1.00000000, 0.00000000, 0.00000000, 0.00000000, 0.73023868, -0.34710303, -0.25784233, 0.00000000, 0.00000000, 0.00000000, 0.00000000
1, 0.7399, 74, -0.04698325, -0.48830900, 0.11494590, 85.61965179, 26.42952919, 214.87619019, 0.00000000, 0.00000000, 0.00000000, 83.53635406, 36.98017883, 51.84934998, 1.00000000, 0.00000000, 0.00000000, 0.00000000, 0.65987319, -0.29594517, -0.21073619, 0.00000000, 0.00000000, 0.00000000, 0.00000000
1, 0.7499, 75, -0.03921838, -0.52559197, 0.11046074, 93.60611725, 26.11104202, 230.82138062, 0.00000000, 0.00000000, 0.00000000, 84.82933044, 34.71039200, 52.45817184, 1.00000000, 0.00000000, 0.00000000, 0.00000000, 0.62096900, -0.28373468, -0.19049650, 0.00000000, 0.00000000, 0.00000000, 0.00000000
1, 0.7599, 76, -0.06794608, -0.53286159, 0.05665112, 99.18942261, 24.00779724, 250.36233521, 0.00000000, 0.00000000, 0.00000000, 86.11048889, 32.23362350, 52.98210526, 1.00000000, 0.00000000, 0.00000000, 0.00000000, 0.61516845, -0.30158758, -0.12041286, 0.00000000, 0.00000000, 0.00000000, 0.00000000
1, 0.7699, 77, -0.07300366, -0.55896950, -0.00540174, 112.77526093, 38.33774185, 268.63409424, 0.00000000, 0.00000000, 0.00000000, 87.55580902, 29.57233238, 53.60170364, 1.00000000, 0.00000000, 0.00000000, 0.00000000, 0.58171540, -0.30066198, -0.03972765, 0.00000000, 0.00000000, 0.00000000, 0.00000000
1, 0.7799, 78, 0.05600953, -0.70302558, -0.04229541, 139.99690247, 68.41983032, 274.51779175, 0.00000000, 0.00000000, 0.00000000, 89.36216736, 26.84638405, 54.46282578, 1.00000000, 0.00000000, 0.00000000, 0.00000000, 0.41141301, -0.18063018, 0.02162008, 0.00000000, 0.00000000, 0.00000000, 0.00000000
1, 0.7899, 79, 0.22180270, -0.83627373, 0.11589697, 159.56288147, 70.44814301, 278.20449829, 0.00000000, 0.00000000, 0.00000000, 91.29687500, 24.05505371, 55.23019028, 1.00000000, 0.00000000, 0.00000000, 0.00000000, 0.20255160, -0.06903297, -0.10675146, 0.00000000, 0.00000000, 0.00000000, 0.00000000
1, 0.7999, 80, 0.20678151, -0.96610099, 0.26266527, 165.64236450, 56.50684357, 285.45538330, 0.00000000, 0.00000000, 0.00000000, 93.14273071, 21.18082237, 55.72173691, 1.00000000, 0.00000000, 0.00000000, 0.00000000, 0.17205964, 0.04163672, -0.22293516, 0.00000000, 0.00000000, 0.00000000, 0.00000000
1, 0.8099, 81, 0.16035318, -1.08881223, 0.22802958, 150.87359619, 59.87057114, 291.60800171, 0.00000000, 0.00000000, 0.00000000, 94.79309082, 18.23028755, 56.14100266, 1.00000000, 0.00000000, 0.00000000, 0.00000000, 0.17081353, 0.14790328, -0.15907510, 0.00000000, 0.00000000, 0.00000000, 0.00000000
1, 0.8199, 82, 0.29918119, -1.22630239, 0.12446102, 148.94692993, 66.16495514, 293.80575562, 0.00000000, 0.00000000, 0.00000000, 96.39437866, 15.24165440, 56.52973938, 1.00000000, 0.00000000, 0.00000000, 0.00000000, -0.01746859, 0.27184200, -0.02764165, 0.00000000, 0.00000000, 0.00000000, 0.00000000
1, 0.8299, 83, 0.45609006, -1.33800340, 0.09785453, 154.62710571, 70.65171814, 294.38406372, 0.00000000, 0.00000000, 0.00000000, 98.02231598, 12.23269653, 56.87134933, 1.00000000, 0.00000000, 0.00000000, 0.00000000, -0.22500847, 0.37333596, 0.02761384, 0.00000000, 0.00000000, 0.00000000, 0.00000000
1, 0.8399, 84, 0.53018624, -1.44770098, 0.19321299, 164.04020691, 74.00701141, 294.86837769, 0.00000000, 0.00000000, 0.00000000, 99.71433258, 9.21033859, 57.14974976, 1.00000000, 0.00000000, 0.00000000, 0.00000000, -0.35065573, 0.47640696, -0.03806065, 0.00000000, 0.00000000, 0.00000000, 0.00000000
1, 0.8499, 85, 0.47367167, -1.51267135, 0.21411321, 170.57255554, 94.20604706, 290.91424561, 0.00000000, 0.00000000, 0.00000000, 101.47212219, 6.17711020, 57.54471970, 1.00000000, 0.00000000, 0.00000000, 0.00000000, -0.34638369, 0.53854871, -0.02812701, 0.00000000, 0.00000000, 0.00000000, 0.00000000
1, 0.8599, 86, 0.44704974, -1.53761911, 0.17932095, 176.09667969, 124.17846680, 279.12557983, 0.00000000, 0.00000000, 0.00000000, 103.28243256, 3.18397307, 58.16172409, 1.00000000, 0.00000000, 0.00000000, 0.00000000, -0.37205604, 0.56459522, 0.03818894, 0.00000000, 0.00000000, 0.00000000, 0.00000000
1, 0.8699, 87, 0.41928786, -1.56038892, 0.22448714, 182.58541870, 153.78706360, 262.70104980, 0.00000000, 0.00000000, 0.00000000, 105.13269043, 0.25921687, 59.00848389, 1.00000000, 0.00000000, 0.00000000, 0.00000000, -0.39568913, 0.59237248, 0.02471747, 0.00000000, 0.00000000, 0.00000000, 0.00000000
1, 0.8799, 88, 0.30895099, -1.64877617, 0.26327252, 183.57373047, 183.70466614, 250.68722534, 0.00000000, 0.00000000, 0.00000000, 106.94523621, -2.65831137, 60.08123398, 1.00000000, 0.00000000, 0.00000000, 0.00000000, -0.33623663, 0.68934309, 0.01684114, 0.00000000, 0.00000000, 0.00000000, 0.00000000
1, 0.8899, 89, 0.39126024, -1.65775418, 0.23532172, 167.66706848, 195.08045959, 239.04663086, 0.00000000, 0.00000000, 0.00000000, 108.53742218, -5.52017975, 61.20885086, 1.00000000, 0.00000000, 0.00000000, 0.00000000, -0.46900177, 0.70946604, 0.07201381, 0.00000000, 0.00000000, 0.00000000, 0.00000000
1, 0.8999, 90, 0.71890092, -1.71200931, 0.42205152, 165.70449829, 198.07833862, 220.60939026, 0.00000000, 0.00000000, 0.00000000, 110.05603027, -8.25713825, 62.35805130, 1.00000000, 0.00000000, 0.00000000, 0.00000000, -0.84494889, 0.77691805, -0.09116445, 0.00000000, 0.00000000, 0.00000000, 0.00000000
1, 0.9099, 91, 0.79230756, -1.91360247, 0.46340346, 154.00709534, 197.62858582, 208.93531799, 0.00000000, 0.00000000, 0.00000000, 111.40960693, -10.91111183, 63.48108292, 1.00000000, 0.00000000, 0.00000000, 0.00000000, -0.96460986, 0.99366856, -0.11151195, 0.00000000, 0.00000000, 0.00000000, 0.00000000
1, 0.9199, 92, 0.98948890, -1.87270761, 0.18785031, 111.83865356, 181.20094299, 201.89062500, 0.00000000, 0.00000000, 0.00000000, 112.32761383, -13.45993519, 64.43121338, 1.00000000, 0.00000000, 0.00000000, 0.00000000, -1.20613682, 0.96766764, 0.17793095, 0.00000000, 0.00000000, 0.00000000, 0.00000000
1, 0.9299, 93, 1.32447755, -1.62809062, 0.09463876, 103.49406433, 162.14929199, 183.60403442, 0.00000000, 0.00000000, 0.00000000, 113.15780640, -15.77969742, 65.24379730, 1.00000000, 0.00000000, 0.00000000, 0.00000000, -1.58222866, 0.73769391, 0.28035289, 0.00000000, 0.00000000, 0.00000000, 0.00000000
1, 0.9399, 94, 1.35963011, -1.59975386, 0.09178115, 100.38270569, 128.09550476, 155.46948242, 0.00000000, 0.00000000, 0.00000000, 113.98892212, -17.69846725, 65.81348419, 1.00000000, 0.00000000, 0.00000000, 0.00000000, -1.65223420, 0.72415400, 0.29241979, 0.00000000, 0.00000000, 0.00000000, 0.00000000
1, 0.9499, 95, 1.34720397, -1.49516404, 0.00343378, 75.12631226, 116.22147369, 123.66767120, 0.00000000, 0.00000000, 0.00000000, 114.55545807, -19.30382347, 66.39441681, 1.00000000, 0.00000000, 0.00000000, 0.00000000, -1.66825294, 0.63247347, 0.38724253, 0.00000000, 0.00000000, 0.00000000, 0.00000000
1, 0.9599, 96, 1.38770449, -1.36038554, 0.06901582, 61.10877991, 107.30525970, 90.66072845, 0.00000000, 0.00000000, 0.00000000, 114.95036316, -20.57654762, 67.02730560, 1.00000000, 0.00000000, 0.00000000, 0.00000000, -1.73177075, 0.50813746, 0.32500479, 0.00000000, 0.00000000, 0.00000000, 0.00000000
1, 0.9699, 97, 1.35280156, -1.26099324, 0.06040676, 41.16570282, 93.14389038, 60.07935333, 0.00000000, 0.00000000, 0.00000000, 115.13503265, -21.51531982, 67.65882874, 1.00000000, 0.00000000, 0.00000000, 0.00000000, -1.71427751, 0.41656891, 0.33489472, 0.00000000, 0.00000000, 0.00000000, 0.00000000
1, 0.9799, 98, 1.30628669, -1.12760067, -0.02197335, 16.79953003, 66.48996735, 29.68481636, 0.00000000, 0.00000000, 0.00000000, 115.11259460, -22.06648445, 68.17136383, 1.00000000, 0.00000000, 0.00000000, 0.00000000, -1.67914569, 0.28755748, 0.41605157, 0.00000000, 0.00000000, 0.00000000, 0.00000000
1, 0.9899, 99, 1.25720084, -1.11819267, -0.01730463, 2.97134209, 39.70148468, -9.51986313, 0.00000000, 0.00000000, 0.00000000, 114.95907593, -22.08546638, 68.58049011, 1.00000000, 0.00000000, 0.00000000, 0.00000000, -1.63410044, 0.27894464, 0.40923378, 0.00000000, 0.00000000, 0.00000000, 0.00000000
1, 0.9999, 100, 1.19103777, -1.21615779, 0.10101247, -9.54893970, 16.21433449, -50.36405182, 0.00000000, 0.00000000, 0.00000000, 114.71929932, -21.69656754, 68.96705627, 1.00000000, 0.00000000, 0.00000000, 0.00000000, -1.56356394, 0.37383074, 0.28847903, 0.00000000, 0.00000000, 0.00000000, 0.00000000
1, 1.0099, 101, 1.19949853, -1.31637335, 0.13055524, -19.23805618, -1.06765628, -82.14016724, 0.00000000, 0.00000000, 0.00000000, 114.39713287, -20.94512558, 69.32316589, 1.00000000, 0.00000000, 0.00000000, 0.00000000, -1.56203675, 0.46849430, 0.25629032, 0.00000000, 0.00000000, 0.00000000, 0.00000000
1, 1.0199, 102, 1.23042560, -1.34935689, 0.17177095, -34.81110382, -27.50115585, -110.69732666, 0.00000000, 0.00000000, 0.00000000, 113.97352600, -19.82271385, 69.53941345, 1.00000000, 0.00000000, 0.00000000, 0.00000000, -1.57684016, 0.49333555, 0.21187991, 0.00000000, 0.00000000, 0.00000000, 0.00000000
1, 1.0299, 103, 1.05164957, -1.18715322, 0.41385916, -34.54499054, -25.39829445, -135.15710449, 0.00000000, 0.00000000, 0.00000000, 113.52043915, -18.48306656, 69.86905670, 1.00000000, 0.00000000, 0.00000000, 0.00000000, -1.37710381, 0.32125142, -0.03406195, 0.00000000, 0.00000000, 0.00000000, 0.00000000
1, 1.0399, 104, 0.57792377, -1.05189157, 0.71147096, -23.82842445, -29.98914909, -143.02453613, 0.00000000, 0.00000000, 0.00000000, 113.21325684, -17.01306152, 70.13492584, 1.00000000, 0.00000000, 0.00000000, 0.00000000, -0.88003159, 0.17638549, -0.33442286, 0.00000000, 0.00000000, 0.00000000, 0.00000000
1, 1.0499, 105, -0.55887675, -1.15762389, 0.81237376, -2.78179240, -39.35100174, -126.94329071, 0.00000000, 0.00000000, 0.00000000, 113.14497375, -15.69121075, 70.27867889, 1.00000000, 0.00000000, 0.00000000, 0.00000000, 0.28058642, 0.27462238, -0.43445420, 0.00000000, 0.00000000, 0.00000000, 0.00000000
1, 1.0599, 106, -1.38786256, -1.11770368, 0.33213046, -38.10868073, -57.09186172, -82.02722168, 0.00000000, 0.00000000, 0.00000000, 112.81855774, -14.71340084, 70.06650543, 1.00000000, 0.00000000, 0.00000000, 0.00000000, 1.12793040, 0.22855872, 0.04447575, 0.00000000, 0.00000000, 0.00000000, 0.00000000
1, 1.0699, 107, -0.36695406, -1.01141202, 0.23087290, -46.83391190, -107.53206635, -66.80084229, 0.00000000, 0.00000000, 0.00000000, 112.53609467, -13.68256092, 69.30858612, 1.00000000, 0.00000000, 0.00000000, 0.00000000, 0.12358183, 0.11622995, 0.14247769, 0.00000000, 0.00000000, 0.00000000, 0.00000000
1, 1.0799, 108, 0.15663894, -1.08324230, 0.22403239, -49.28018570, -99.49526215, -87.97262573, 0.00000000, 0.00000000, 0.00000000, 112.18023682, -12.49028683, 68.70718384, 1.00000000, 0.00000000, 0.00000000, 0.00000000, -0.38075125, 0.18167803, 0.14599031, 0.00000000, 0.00000000, 0.00000000, 0.00000000
1, 1.0899, 109, -0.08937433, -1.15460920, 0.15215440, -31.62575340, -82.71990204, -96.74050140, 0.00000000, 0.00000000, 0.00000000, 111.92189789, -11.28465176, 68.31247711, 1.00000000, 0.00000000, 0.00000000, 0.00000000, -0.11395859, 0.24700314, 0.21509430, 0.00000000, 0.00000000, 0.00000000, 0.00000000
1, 1.0999, 110, -0.30842304, -1.24376595, 0.06297585, -38.36391449, -73.28049469, -96.66925049, 0.00000000, 0.00000000, 0.00000000, 111.59967041, -10.11499405, 67.98458099, 1.00000000, 0.00000000, 0.00000000, 0.00000000, 0.12537315, 0.33050728, 0.30091527, 0.00000000, 0.00000000, 0.00000000, 0.00000000
1, 1.1099, 111, -0.12104682, -1.27521741, 0.09476223, -28.52423668, -19.44887543, -103.74967957, 0.00000000, 0.00000000, 0.00000000, 111.28176880, -9.07794476, 68.18547821, 1.00000000, 0.00000000, 0.00000000, 0.00000000, -0.04317784, 0.35679281, 0.26509821, 0.00000000, 0.00000000, 0.00000000, 0.00000000
1, 1.1199, 112, 0.05410295, -1.24870467, 0.12341972, -17.77318001, 12.76752281, -100.00162506, 0.00000000, 0.00000000, 0.00000000, 111.03125000, -8.19134331, 68.67091370, 1.00000000, 0.00000000, 0.00000000, 0.00000000, -0.20221587, 0.32617271, 0.23291974, 0.00000000, 0.00000000, 0.00000000, 0.00000000
1, 1.1299, 113, 0.18288782, -1.10426450, 0.27616233, -10.53142643, 27.70064163, -102.95905304, 0.00000000, 0.00000000, 0.00000000, 110.84092712, -7.32853603, 69.30316162, 1.00000000, 0.00000000, 0.00000000, 0.00000000, -0.31605905, 0.17841779, 0.07746864, 0.00000000, 0.00000000, 0.00000000, 0.00000000
1, 1.1399, 114, 0.16492639, -1.07096851, 0.46784168, 9.47386742, 58.37561035, -112.01183319, 0.00000000, 0.00000000, 0.00000000, 110.82662201, -6.46973181, 70.24066162, 1.00000000, 0.00000000, 0.00000000, 0.00000000, -0.28322697, 0.14280692, -0.11499104, 0.00000000, 0.00000000, 0.00000000, 0.00000000
1, 1.1499, 115, 0.08422194, -1.21805096, 0.36360362, 15.02533722, 57.40725708, -109.30883026, 0.00000000, 0.00000000, 0.00000000, 110.87821960, -5.65267944, 71.17156982, 1.00000000, 0.00000000, 0.00000000, 0.00000000, -0.18810873, 0.28869796, -0.00935176, 0.00000000, 0.00000000, 0.00000000, 0.00000000
1, 1.1599, 116, 0.28853074, -1.23936486, 0.20964135, -8.32109833, 30.20242882, -106.17646790, 0.00000000, 0.00000000, 0.00000000, 110.73447418, -4.76774788, 71.83415222, 1.00000000, 0.00000000, 0.00000000, 0.00000000, -0.37750414, 0.30832118, 0.14422554, 0.00000000, 0.00000000, 0.00000000, 0.00000000
1, 1.1699, 117, 0.40732598, -1.07976294, 0.28501773, -17.26103020, 20.19527435, -97.22544861, 0.00000000, 0.00000000, 0.00000000, 110.52146912, -3.92891526, 72.36713409, 1.00000000, 0.00000000, 0.00000000, 0.00000000, -0.48119628, 0.14623049, 0.06575726, 0.00000000, 0.00000000, 0.00000000, 0.00000000
1, 1.1799, 118, 0.32294634, -0.90730834, 0.29670870, -9.63655663, 11.33631325, -84.10636139, 0.00000000, 0.00000000, 0.00000000, 110.40004730, -3.18054104, 72.76806641, 1.00000000, 0.00000000, 0.00000000, 0.00000000, -0.38321024, -0.02802540, 0.05186816, 0.00000000, 0.00000000, 0.00000000, 0.00000000
1, 1.1899, 119, 0.25109166, -0.83920568, 0.25534692, -6.79733706, -14.50060844, -69.81642151, 0.00000000, 0.00000000, 0.00000000, 110.31309509, -2.40483761, 72.84503937, 1.00000000, 0.00000000, 0.00000000, 0.00000000, -0.29857430, -0.09731159, 0.09202294, 0.00000000, 0.00000000, 0.00000000, 0.00000000
1, 1.1999, 120, 0.28863859, -0.85210496, 0.29438770, -7.87224913, -36.79043198, -61.77144623, 0.00000000, 0.00000000, 0.00000000, 110.23889923, -1.69793022, 72.71389008, 1.00000000, 0.00000000, 0.00000000, 0.00000000, -0.32289279, -0.08544338, 0.05175928, 0.00000000, 0.00000000, 0.00000000, 0.00000000
1, 1.2099, 121, 0.27152660, -0.90810573, 0.36642739, -2.52896738, -49.09717941, -54.80728149, 0.00000000, 0.00000000, 0.00000000, 110.21990967, -1.01391625, 72.44259644, 1.00000000, 0.00000000, 0.00000000, 0.00000000, -0.29363400, -0.03001492, -0.02084085, 0.00000000, 0.00000000, 0.00000000, 0.00000000
1, 1.2199, 122, 0.19613194, -0.93080497, 0.32889324, -1.75503480, -56.31533432, -45.50480652, 0.00000000, 0.00000000, 0.00000000, 110.20679474, -0.39228994, 72.07135773, 1.00000000, 0.00000000, 0.00000000, 0.00000000, -0.20695782, -0.00753769, 0.01663104, 0.00000000, 0.00000000, 0.00000000, 0.00000000
1, 1.2299, 123, 0.18742141, -0.92242944, 0.26786011, -4.46352959, -64.97641754, -37.34915924, 0.00000000, 0.00000000, 0.00000000, 110.16293335, 0.18246713, 71.59037781, 1.00000000, 0.00000000, 0.00000000, 0.00000000, -0.18794078, -0.01618701, 0.07709071, 0.00000000, 0.00000000, 0.00000000, 0.00000000
1, 1.2399, 124, 0.12597241, -0.94778514, 0.31485596, -1.52864337, -66.48757935, -32.04815674, 0.00000000, 0.00000000, 0.00000000, 110.13706207, 0.73223859, 71.06881714, 1.00000000, 0.00000000, 0.00000000, 0.00000000, -0.11685447, 0.00901820, 0.02956598, 0.00000000, 0.00000000, 0.00000000, 0.00000000
1, 1.2499, 125, 0.00289983, -0.98123509, 0.31732410, -0.42994744, -64.10132599, -28.37615013, 0.00000000, 0.00000000, 0.00000000, 110.12416077, 1.21929479, 70.56457520, 1.00000000, 0.00000000, 0.00000000, 0.00000000, 0.01521892, 0.04248437, 0.02678810, 0.00000000, 0.00000000, 0.00000000, 0.00000000
1, 1.2599, 126, -0.00681016, -1.00676787, 0.27692279, -2.47438121, -63.21068192, -28.11313629, 0.00000000, 0.00000000, 0.00000000, 110.08678436, 1.70058322, 70.06746674, 1.00000000, 0.00000000, 0.00000000, 0.00000000, 0.03332871, 0.06801198, 0.06663014, 0.00000000, 0.00000000, 0.00000000, 0.00000000
1, 1.2699, 127, -0.00282797, -1.04347420, 0.31832129, -0.92101687, -58.44667053, -29.09093475, 0.00000000, 0.00000000, 0.00000000, 110.06241608, 2.17442989, 69.61809540, 1.00000000, 0.00000000, 0.00000000, 0.00000000, 0.03769775, 0.10478438, 0.02466567, 0.00000000, 0.00000000, 0.00000000, 0.00000000
1, 1.2799, 128, 0.02309639, -1.02738130, 0.32523167, -2.19286561, -48.59254074, -29.99164581, 0.00000000, 0.00000000, 0.00000000, 110.02573395, 2.62272763, 69.26407623, 1.00000000, 0.00000000, 0.00000000, 0.00000000, 0.01977791, 0.08878538, 0.01710519, 0.00000000, 0.00000000, 0.00000000, 0.00000000
1, 1.2899, 129, 0.00630949, -0.98197174, 0.34054688, 2.73661566, -34.17359924, -30.05698204, 0.00000000, 0.00000000, 0.00000000, 110.03983307, 3.00269890, 69.05661774, 1.00000000, 0.00000000, 0.00000000, 0.00000000, 0.04378460, 0.04365321, 0.00157269, 0.00000000, 0.00000000, 0.00000000, 0.00000000
1, 1.2999, 130, 0.03660509, -0.94142061, 0.35463884, -1.94945645, -29.24150467, -29.29401016, 0.00000000, 0.00000000, 0.00000000, 110.01060486, 3.37807608, 68.88195801, 1.00000000, 0.00000000, 0.00000000, 0.00000000, 0.01986882, 0.00339755, -0.01270302, 0.00000000, 0.00000000, 0.00000000, 0.00000000
1, 1.3099, 131, 0.14984921, -0.93234926, 0.36513630, -2.72796488, -30.39129257, -27.89810371, 0.00000000, 0.00000000, 0.00000000, 109.97149658, 3.74413562, 68.69133759, 1.00000000, 0.00000000, 0.00000000, 0.00000000, -0.08691317, -0.00558271, -0.02407983, 0.00000000, 0.00000000, 0.00000000, 0.00000000
1, 1.3199, 132, 0.23955183, -0.97552425, 0.31273934, -1.08226383, -27.50813484, -27.00929642, 0.00000000, 0.00000000, 0.00000000, 109.94926453, 4.09190989, 68.52458954, 1.00000000, 0.00000000, 0.00000000, 0.00000000, -0.17046130, 0.03782758, 0.02777282, 0.00000000, 0.00000000, 0.00000000, 0.00000000
1, 1.3299, 133, 0.18998298, -0.99003971, 0.34120527, 0.95027161, -30.29095459, -25.96453667, 0.00000000, 0.00000000, 0.00000000, 109.94410706, 4.43932152, 68.32787323, 1.00000000, 0.00000000, 0.00000000, 0.00000000, -0.11484842, 0.05267847, -0.00104967, 0.00000000, 0.00000000, 0.00000000, 0.00000000
1, 1.3399, 134, 0.18640244, -0.94423938, 0.34827435, 1.93507910, -37.11525726, -23.02969170, 0.00000000, 0.00000000, 0.00000000, 109.94205475, 4.81889820, 68.03733063, 1.00000000, 0.00000000, 0.00000000, 0.00000000, -0.10512737, 0.00731237, -0.00833523, 0.00000000, 0.00000000, 0.00000000, 0.00000000
1, 1.3499, 135, 0.12371543, -0.94277990, 0.36128077, 6.96428585, -44.06723404, -21.96576500, 0.00000000, 0.00000000, 0.00000000, 109.98201752, 5.17577648, 67.69679260, 1.00000000, 0.00000000, 0.00000000, 0.00000000, -0.03581911, 0.00650507, -0.02119195, 0.00000000, 0.00000000, 0.00000000, 0.00000000
1, 1.3599, 136, 0.05176487, -0.91335541, 0.43316713, 1.47707140, -45.19869232, -19.12957764, 0.00000000, 0.00000000, 0.00000000, 109.96315002, 5.51002645, 67.33583069, 1.00000000, 0.00000000, 0.00000000, 0.00000000, 0.04211045, -0.02229153, -0.09294732, 0.00000000, 0.00000000, 0.00000000, 0.00000000
1, 1.3699, 137, 0.12879692, -0.85391045, 0.50295419, -4.98384762, -46.64294052, -16.56514359, 0.00000000, 0.00000000, 0.00000000, 109.87538147, 5.82466078, 66.95185089, 1.00000000, 0.00000000, 0.00000000, 0.00000000, -0.02934342, -0.08167830, -0.16416201, 0.00000000, 0.00000000, 0.00000000, 0.00000000
1, 1.3799, 138, 0.14339942, -0.89880484, 0.46300840, 1.91095269, -43.86753464, -17.29928207, 0.00000000, 0.00000000, 0.00000000, 109.85745239, 6.13638210, 66.59609222, 1.00000000, 0.00000000, 0.00000000, 0.00000000, -0.03854419, -0.03655656, -0.12521857, 0.00000000, 0.00000000, 0.00000000, 0.00000000
1, 1.3899, 139, 0.02338393, -0.96653837, 0.42830980, 4.16022062, -41.70482254, -18.89373779, 0.00000000, 0.00000000, 0.00000000, 109.88814545, 6.42261648, 66.27863312, 1.00000000, 0.00000000, 0.00000000, 0.00000000, 0.08681466, 0.03181998, -0.09044011, 0.00000000, 0.00000000, 0.00000000, 0.00000000
1, 1.3999, 140, 0.07982773, -0.97236526, 0.44207868, 0.68978965, -44.74620056, -19.11460686, 0.00000000, 0.00000000, 0.00000000, 109.85395050, 6.75445986, 65.92040253, 1.00000000, 0.00000000, 0.00000000, 0.00000000, 0.03566128, 0.03815515, -0.10457129, 0.00000000, 0.00000000, 0.00000000, 0.00000000
1, 1.4099, 141, 0.07343765, -1.00964618, 0.36741936, 4.21041298, -19.80515289, -20.03610420, 0.00000000, 0.00000000, 0.00000000, 109.88189697, 7.01018286, 65.80138397, 1.00000000, 0.00000000, 0.00000000, 0.00000000, 0.04708599, 0.07604834, -0.02997648, 0.00000000, 0.00000000, 0.00000000, 0.00000000
1, 1.4199, 142, 0.08311052, -0.99886411, 0.28440312, -2.91502738, -7.43910360, -21.78050423, 0.00000000, 0.00000000, 0.00000000, 109.85321808, 7.24030113, 65.80546570, 1.00000000, 0.00000000, 0.00000000, 0.00000000, 0.04134466, 0.06569612, 0.05280147, 0.00000000, 0.00000000, 0.00000000, 0.00000000
1, 1.4299, 143, 0.04580833, -1.03328884, 0.31026855, 2.95644259, -8.51969528, -26.39739037, 0.00000000, 0.00000000, 0.00000000, 109.88404083, 7.51751614, 65.81511688, 1.00000000, 0.00000000, 0.00000000, 0.00000000, 0.08317375, 0.10066935, 0.02675165, 0.00000000, 0.00000000, 0.00000000, 0.00000000
1, 1.4399, 144, -0.00525686, -1.02361727, 0.34869224, -3.13385868, -12.97611809, -30.06770325, 0.00000000, 0.00000000, 0.00000000, 109.85034180, 7.79759598, 65.82083893, 1.00000000, 0.00000000, 0.00000000, 0.00000000, 0.13933355, 0.09164841, -0.01186052, 0.00000000, 0.00000000, 0.00000000, 0.00000000
1, 1.4499, 145, 0.07037256, -0.97992837, 0.36422437, -3.55699205, -18.73041344, -32.65024567, 0.00000000, 0.00000000, 0.00000000, 109.80558777, 8.16827679, 65.75472260, 1.00000000, 0.00000000, 0.00000000, 0.00000000, 0.06926959, 0.04837611, -0.02850540, 0.00000000, 0.00000000, 0.00000000, 0.00000000
1, 1.4599, 146, 0.04436846, -1.03880072, 0.40076411, -3.11161947, -11.96619511, -34.23836899, 0.00000000, 0.00000000, 0.00000000, 109.77500153, 8.53095627, 65.75811768, 1.00000000, 0.00000000, 0.00000000, 0.00000000, 0.10167129, 0.10794805, -0.06582728, 0.00000000, 0.00000000, 0.00000000, 0.00000000
1, 1.4699, 147, 0.10073269, -1.04509723, 0.38325483, -8.09320164, -5.00545979, -34.37532043, 0.00000000, 0.00000000, 0.00000000, 109.70462799, 8.87142277, 65.82792664, 1.00000000, 0.00000000, 0.00000000, 0.00000000, 0.05127910, 0.11475560, -0.04955737, 0.00000000, 0.00000000, 0.00000000, 0.00000000
1, 1.4799, 148, 0.10989467, -1.04817760, 0.34591717, -6.89696169, -9.33776855, -37.17090225, 0.00000000, 0.00000000, 0.00000000, 109.64154053, 9.25286007, 65.86558533, 1.00000000, 0.00000000, 0.00000000, 0.00000000, 0.04833473, 0.11836876, -0.01362915, 0.00000000, 0.00000000, 0.00000000, 0.00000000
1, 1.4899, 149, 0.01981070, -1.01109290, 0.38955873, -12.30046844, -18.30125046, -40.57028198, 0.00000000, 0.00000000, 0.00000000, 109.52758026, 9.64737129, 65.85253906, 1.00000000, 0.00000000, 0.00000000, 0.00000000, 0.14547795, 0.08181970, -0.05921531, 0.00000000, 0.00000000, 0.00000000, 0.00000000
1, 1.4999, 150, 0.04958073, -0.92640495, 0.41886687, -15.14641953, -22.21170044, -43.92388535, 0.00000000, 0.00000000, 0.00000000, 109.36504364, 10.13549995, 65.78838348, 1.00000000, 0.00000000, 0.00000000, 0.00000000, 0.12317773, -0.00246777, -0.09123387, 0.00000000, 0.00000000, 0.00000000, 0.00000000
1, 1.5099, 151, 0.01476335, -0.95874566, 0.45417991, -15.93285370, -27.70842934, -48.21385956, 0.00000000, 0.00000000, 0.00000000, 109.18687439, 10.68207073, 65.68424988, 1.00000000, 0.00000000, 0.00000000, 0.00000000, 0.16698688, 0.03040172, -0.12993273, 0.00000000, 0.00000000, 0.00000000, 0.00000000
1, 1.5199, 152, 0.04998067, -1.02518010, 0.44622630, -20.57780647, -31.35841179, -53.92226410, 0.00000000, 0.00000000, 0.00000000, 108.95777130, 11.29418087, 65.56188965, 1.00000000, 0.00000000, 0.00000000, 0.00000000, 0.14185801, 0.09751169, -0.12588474, 0.00000000, 0.00000000, 0.00000000, 0.00000000
1, 1.5299, 153, 0.08230259, -1.11144888, 0.37891376, -23.93114471, -33.04747772, -58.46840668, 0.00000000, 0.00000000, 0.00000000, 108.69293213, 11.95421696, 65.43515778, 1.00000000, 0.00000000, 0.00000000, 0.00000000, 0.12052622, 0.18444285, -0.06346468, 0.00000000, 0.00000000, 0.00000000, 0.00000000
1, 1.5399, 154, 0.01053319, -1.16513145, 0.39906642, -30.86990166, -33.56862640, -63.35938644, 0.00000000, 0.00000000, 0.00000000, 108.35847473, 12.63161850, 65.33232117, 1.00000000, 0.00000000, 0.00000000, 0.00000000, 0.20397127, 0.23883699, -0.08930422, 0.00000000, 0.00000000, 0.00000000, 0.00000000
1, 1.5499, 155, 0.08798113, -1.12273526, 0.39229587, -34.09862900, -38.02097702, -66.88969421, 0.00000000, 0.00000000, 0.00000000, 107.98215485, 13.38569355, 65.17562866, 1.00000000, 0.00000000, 0.00000000, 0.00000000, 0.13862833, 0.19709130, -0.08928670, 0.00000000, 0.00000000, 0.00000000, 0.00000000
1, 1.5599, 156, 0.01237925, -1.13850963, 0.40282136, -37.35529709, -44.74654007, -72.56385040, 0.00000000, 0.00000000, 0.00000000, 107.55834198, 14.21329117, 64.96491241, 1.00000000, 0.00000000, 0.00000000, 0.00000000, 0.22781789, 0.21385165, -0.10736898, 0.00000000, 0.00000000, 0.00000000, 0.00000000
1, 1.5699, 157, -0.07985213, -1.12619781, 0.40399492, -40.98610687, -41.44420624, -78.51767731, 0.00000000, 0.00000000, 0.00000000, 107.10629272, 15.08632755, 64.79780579, 1.00000000, 0.00000000, 0.00000000, 0.00000000, 0.33453828, 0.20282893, -0.11676347, 0.00000000, 0.00000000, 0.00000000, 0.00000000
1, 1.5799, 158, -0.02150853, -1.13055468, 0.44102335, -46.02555847, -34.50731659, -85.86385345, 0.00000000, 0.00000000, 0.00000000, 106.62362671, 16.00822639, 64.71365356, 1.00000000, 0.00000000, 0.00000000, 0.00000000, 0.29141468, 0.20881245, -0.16260642, 0.00000000, 0.00000000, 0.00000000, 0.00000000
1, 1.5899, 159, -0.03213607, -1.16454089, 0.42460281, -51.43102646, -27.77640915, -92.68300629, 0.00000000, 0.00000000, 0.00000000, 106.11670685, 16.94261360, 64.72557068, 1.00000000, 0.00000000, 0.00000000, 0.00000000, 0.31783357, 0.24477588, -0.15556222, 0.00000000, 0.00000000, 0.00000000, 0.00000000
1, 1.5999, 160, 0.04142819, -1.18616271, 0.47344396, -53.94694901, -24.60493469, -98.65203094, 0.00000000, 0.00000000, 0.00000000, 105.58759308, 17.95884705, 64.75992584, 1.00000000, 0.00000000, 0.00000000, 0.00000000, 0.26050764, 0.26880872, -0.21408814, 0.00000000, 0.00000000, 0.00000000, 0.00000000
1, 1.6099, 161, 0.04285057, -1.21457362, 0.47774407, -57.69412613, -26.52368164, -103.87854767, 0.00000000, 0.00000000, 0.00000000, 105.01667786, 19.03076744, 64.77930450, 1.00000000, 0.00000000, 0.00000000, 0.00000000, 0.27650198, 0.30027261, -0.22868076, 0.00000000, 0.00000000, 0.00000000, 0.00000000
1, 1.6199, 162, 0.04942655, -1.20766175, 0.44151396, -60.17634964, -31.68698502, -107.14636993, 0.00000000, 0.00000000, 0.00000000, 104.40263367, 20.14755058, 64.74273682, 1.00000000, 0.00000000, 0.00000000, 0.00000000, 0.28808680, 0.29689658, -0.20370388, 0.00000000, 0.00000000, 0.00000000, 0.00000000
1, 1.6299, 163, 0.04817463, -1.21192765, 0.42988485, -61.91699219, -36.61726379, -110.54302216, 0.00000000, 0.00000000, 0.00000000, 103.75064850, 21.30878448, 64.65038300, 1.00000000, 0.00000000, 0.00000000, 0.00000000, 0.30805373, 0.30529565, -0.20387979, 0.00000000, 0.00000000, 0.00000000, 0.00000000
1, 1.6399, 164, 0.00762888, -1.23777974, 0.39068398, -65.12966156, -49.34851456, -113.90865326, 0.00000000, 0.00000000, 0.00000000, 103.01905823, 22.50040817, 64.43403625, 1.00000000, 0.00000000, 0.00000000, 0.00000000, 0.36793882, 0.33586439, -0.17748886, 0.00000000, 0.00000000, 0.00000000, 0.00000000
1, 1.6499, 165, -0.09874745, -1.29805315, 0.37953457, -66.02769470, -58.23324203, -117.85220337, 0.00000000, 0.00000000, 0.00000000, 102.22588348, 23.77763748, 64.09614563, 1.00000000, 0.00000000, 0.00000000, 0.00000000, 0.49420440, 0.40146792, -0.18029428, 0.00000000, 0.00000000, 0.00000000, 0.00000000
1, 1.6599, 166, -0.18922554, -1.38804317, 0.36287236, -71.13311768, -64.33071899, -120.76647949, 0.00000000, 0.00000000, 0.00000000, 101.34039307, 25.09119987, 63.67537689, 1.00000000, 0.00000000, 0.00000000, 0.00000000, 0.60545152, 0.49763799, -0.17881396, 0.00000000, 0.00000000, 0.00000000, 0.00000000
1, 1.6699, 167, -0.31148595, -1.44972336, 0.37429646, -75.65429688, -70.96903992, -123.11676788, 0.00000000, 0.00000000, 0.00000000, 100.35928345, 26.43394661, 63.15887833, 1.00000000, 0.00000000, 0.00000000, 0.00000000, 0.74872988, 0.56615633, -0.20677045, 0.00000000, 0.00000000, 0.00000000, 0.00000000
1, 1.6799, 168, -0.39914528, -1.45116019, 0.38130462, -80.14097595, -74.83227539, -126.04727173, 0.00000000, 0.00000000, 0.00000000, 99.29023743, 27.80355644, 62.57206726, 1.00000000, 0.00000000, 0.00000000, 0.00000000, 0.85759270, 0.57517242, -0.23162216, 0.00000000, 0.00000000, 0.00000000, 0.00000000
1, 1.6899, 169, -0.51453859, -1.41098559, 0.40111226, -79.96889496, -82.43550873, -129.11386108, 0.00000000, 0.00000000, 0.00000000, 98.16117096, 29.16617203, 61.88991547, 1.00000000, 0.00000000, 0.00000000, 0.00000000, 0.99425507, 0.54344499, -0.27004898, 0.00000000, 0.00000000, 0.00000000, 0.00000000
1, 1.6999, 170, -0.48069277, -1.31682670, 0.36530933, -82.78264618, -88.08923340, -134.65830994, 0.00000000, 0.00000000, 0.00000000, 96.93287659, 30.61673355, 61.08654785, 1.00000000, 0.00000000, 0.00000000, 0.00000000, 0.98169088, 0.45862967, -0.25386029, 0.00000000, 0.00000000, 0.00000000, 0.00000000
1, 1.7099, 171, -0.37428719, -1.29876399, 0.36967346, -82.23930359, -90.81565094, -144.54913330, 0.00000000, 0.00000000, 0.00000000, 95.65649414, 32.15311813, 60.21470261, 1.00000000, 0.00000000, 0.00000000, 0.00000000, 0.89779055, 0.45167959, -0.27853203, 0.00000000, 0.00000000, 0.00000000, 0.00000000
1, 1.7199, 172, -0.27914739, -1.39776742, 0.40451983, -84.84547424, -94.58952332, -156.23365784, 0.00000000, 0.00000000, 0.00000000, 94.28433228, 33.79148102, 59.25275803, 1.00000000, 0.00000000, 0.00000000, 0.00000000, 0.82626134, 0.56371665, -0.33431464, 0.00000000, 0.00000000, 0.00000000, 0.00000000
1, 1.7299, 173, -0.26728112, -1.51543736, 0.54691166, -88.99230957, -99.26428986, -162.69520569, 0.00000000, 0.00000000, 0.00000000, 92.77941132, 35.47666931, 58.17066574, 1.00000000, 0.00000000, 0.00000000, 0.00000000, 0.83862293, 0.69619435, -0.49890292, 0.00000000, 0.00000000, 0.00000000, 0.00000000
1, 1.7399, 174, -0.12320185, -1.54639053, 0.72477317, -95.76023865, -82.22044373, -161.88644409, 0.00000000, 0.00000000, 0.00000000, 91.28005981, 37.10324478, 57.23966599, 1.00000000, 0.00000000, 0.00000000, 0.00000000, 0.71808863, 0.74305165, -0.69907993, 0.00000000, 0.00000000, 0.00000000, 0.00000000
1, 1.7499, 175, -0.03431923, -1.59316254, 0.72216952, -95.23927307, -67.28393555, -151.16473389, 0.00000000, 0.00000000, 0.00000000, 89.81588745, 38.62134171, 56.40597534, 1.00000000, 0.00000000, 0.00000000, 0.00000000, 0.65081215, 0.80587256, -0.71710932, 0.00000000, 0.00000000, 0.00000000, 0.00000000
1, 1.7599, 176, -0.13709749, -1.66305113, 0.62016153, -100.62996674, -85.23779297, -137.03112793, 0.00000000, 0.00000000, 0.00000000, 88.09124756, 39.97574234, 55.27276230, 1.00000000, 0.00000000, 0.00000000, 0.00000000, 0.77283448, 0.89138031, -0.63677001, 0.00000000, 0.00000000, 0.00000000, 0.00000000
1, 1.7699, 177, -0.19839403, -1.48344672, 0.55267447, -111.53368378, -95.18697357, -140.65480042, 0.00000000, 0.00000000, 0.00000000, 86.09838104, 41.33240891, 53.92576218, 1.00000000, 0.00000000, 0.00000000, 0.00000000, 0.85202098, 0.72783041, -0.59409672, 0.00000000, 0.00000000, 0.00000000, 0.00000000
1, 1.7799, 178, -0.08710252, -1.27366805, 0.45326325, -113.46221161, -85.99769592, -149.09744263, 0.00000000, 0.00000000, 0.00000000, 84.07608795, 42.74439621, 52.60000229, 1.00000000, 0.00000000, 0.00000000, 0.00000000, 0.75899637, 0.53609818, -0.51996380, 0.00000000, 0.00000000, 0.00000000, 0.00000000
1, 1.7899, 179, 0.11546805, -1.13974369, 0.35340312, -98.49990845, -79.95855713, -145.00956726, 0.00000000, 0.00000000, 0.00000000, 82.21251678, 44.05339050, 51.30669022, 1.00000000, 0.00000000, 0.00000000, 0.00000000, 0.57395041, 0.42101258, -0.44310361, 0.00000000, 0.00000000, 0.00000000, 0.00000000
1, 1.7999, 180, 0.52922952, -0.99692976, 0.15145242, -73.17333221, -86.93680573, -134.79734802, 0.00000000, 0.00000000, 0.00000000, 80.42963409, 45.25410461, 49.81208038, 1.00000000, 0.00000000, 0.00000000, 0.00000000, 0.17560370, 0.29614994, -0.26121053, 0.00000000, 0.00000000, 0.00000000, 0.00000000
1, 1.8099, 181, 1.05658376, -0.77356428, 0.21162799, -43.82143784, -101.98267365, -125.88442993, 0.00000000, 0.00000000, 0.00000000, 78.72639465, 46.30764008, 48.04719925, 1.00000000, 0.00000000, 0.00000000, 0.00000000, -0.33818102, 0.08994454, -0.34009308, 0.00000000, 0.00000000, 0.00000000, 0.00000000
1, 1.8199, 182, 0.87097061, -0.74434125, 0.50141960, -27.73125076, -73.81254578, -99.04556274, 0.00000000, 0.00000000, 0.00000000, 77.46513367, 47.12435532, 46.69543076, 1.00000000, 0.00000000, 0.00000000, 0.00000000, -0.14144938, 0.07566546, -0.64509255, 0.00000000, 0.00000000, 0.00000000, 0.00000000
1, 1.8299, 183, 0.15428792, -0.70756078, 0.63450861, 9.11847591, -38.89266205, -43.85756683, 0.00000000, 0.00000000, 0.00000000, 77.04006195, 47.46614075, 45.99318314, 1.00000000, 0.00000000, 0.00000000, 0.00000000, 0.58154619, 0.04732984, -0.78497547, 0.00000000, 0.00000000, 0.00000000, 0.00000000
1, 1.8399, 184, -0.16220321, -0.57208800, 0.32375351, -10.74899578, -53.64567947, 1.35949266, 0.00000000, 0.00000000, 0.00000000, 76.46932983, 47.23554993, 45.33982849, 1.00000000, 0.00000000, 0.00000000, 0.00000000, 0.89810973, -0.08679479, -0.47966492, 0.00000000, 0.00000000, 0.00000000, 0.00000000
1, 1.8499, 185, -0.20629895, -0.46289337, 0.15995072, -19.07947540, -76.79047394, 26.12488937, 0.00000000, 0.00000000, 0.00000000, 75.54673004, 46.79626846, 44.33978653, 1.00000000, 0.00000000, 0.00000000, 0.00000000, 0.93742740, -0.19874096, -0.32631338, 0.00000000, 0.00000000, 0.00000000, 0.00000000
1, 1.8599, 186, -0.15972124, -0.44724011, 0.06865609, -5.45656586, -72.23056793, 46.94089508, 0.00000000, 0.00000000, 0.00000000, 74.88273621, 46.15798569, 43.49972916, 1.00000000, 0.00000000, 0.00000000, 0.00000000, 0.88400257, -0.21908693, -0.24588524, 0.00000000, 0.00000000, 0.00000000, 0.00000000
1, 1.8699, 187, -0.06341324, -0.39529353, -0.04920983, -0.65082061, -56.58660889, 63.91819382, 0.00000000, 0.00000000, 0.00000000, 74.48870850, 45.39202118, 42.95932007, 1.00000000, 0.00000000, 0.00000000, 0.00000000, 0.77894711, -0.27824706, -0.13609606, 0.00000000, 0.00000000, 0.00000000, 0.00000000
1, 1.8799, 188, 0.06607360, -0.31786558, -0.10889693, 9.82795238, -42.49897385, 78.16533661, 0.00000000, 0.00000000, 0.00000000, 74.38755798, 44.52492905, 42.67739487, 1.00000000, 0.00000000, 0.00000000, 0.00000000, 0.63928688, -0.36484689, -0.08176422, 0.00000000, 0.00000000, 0.00000000, 0.00000000
1, 1.8899, 189, 0.15840384, -0.26214352, 0.00338994, 32.86953354, -24.11424828, 97.06914520, 0.00000000, 0.00000000, 0.00000000, 74.77140808, 43.52008820, 42.73082733, 1.00000000, 0.00000000, 0.00000000, 0.00000000, 0.53511447, -0.43232447, -0.19501206, 0.00000000, 0.00000000, 0.00000000, 0.00000000
1, 1.8999, 190, 0.15093735, -0.22440925, 0.12468055, 55.63004684, 5.30443716, 121.98619843, 0.00000000, 0.00000000, 0.00000000, 75.66476440, 42.35396957, 43.22622681, 1.00000000, 0.00000000, 0.00000000, 0.00000000, 0.52857405, -0.48519143, -0.31092158, 0.00000000, 0.00000000, 0.00000000, 0.00000000
1, 1.9099, 191, 0.07088318, -0.18526606, 0.15490015, 68.69244385, 25.68481636, 147.37036133, 0.00000000, 0.00000000, 0.00000000, 76.88477325, 40.98316956, 44.02829742, 1.00000000, 0.00000000, 0.00000000, 0.00000000, 0.59189898, -0.54254156, -0.33082208, 0.00000000, 0.00000000, 0.00000000, 0.00000000
1, 1.9199, 192, -0.01438167, -0.18522368, 0.19307207, 81.64134216, 43.54038620, 172.14866638, 0.00000000, 0.00000000, 0.00000000, 78.37178040, 39.39474106, 45.06792831, 1.00000000, 0.00000000, 0.00000000, 0.00000000, 0.65733224, -0.56328368, -0.35510454, 0.00000000, 0.00000000, 0.00000000, 0.00000000
1, 1.9299, 193, -0.09272719, -0.22764532, 0.25890112, 92.41751099, 62.97714233, 198.59967041, 0.00000000, 0.00000000, 0.00000000, 80.08274078, 37.56131363, 46.33223724, 1.00000000, 0.00000000, 0.00000000, 0.00000000, 0.71201563, -0.54413581, -0.40281016, 0.00000000, 0.00000000, 0.00000000, 0.00000000
1, 1.9399, 194, -0.12244857, -0.29520950, 0.31362614, 97.57099915, 67.25768280, 220.11100769, 0.00000000, 0.00000000, 0.00000000, 81.84616089, 35.46962357, 47.61423111, 1.00000000, 0.00000000, 0.00000000, 0.00000000, 0.71420342, -0.50128597, -0.43717849, 0.00000000, 0.00000000, 0.00000000, 0.00000000
1, 1.9499, 195, -0.11457856, -0.35988176, 0.29230621, 91.59656525, 40.03881836, 246.54945374, 0.00000000, 0.00000000, 0.00000000, 83.25180054, 33.07726288, 48.48081970, 1.00000000, 0.00000000, 0.00000000, 0.00000000, 0.67374456, -0.46245438, -0.39683157, 0.00000000, 0.00000000, 0.00000000, 0.00000000
1, 1.9599, 196, -0.15695089, -0.48122579, -0.00254307, 100.48680878, 38.87471390, 268.37081909, 0.00000000, 0.00000000, 0.00000000, 84.67027283, 30.44907188, 49.26840973, 1.00000000, 0.00000000, 0.00000000, 0.00000000, 0.67852998, -0.36735597, -0.08498565, 0.00000000, 0.00000000, 0.00000000, 0.00000000
1, 1.9699, 197, -0.08030093, -0.64580619, -0.29230133, 143.81433105, 121.04695129, 269.43930054, 0.00000000, 0.00000000, 0.00000000, 86.88973236, 27.84981346, 50.87982941, 1.00000000, 0.00000000, 0.00000000, 0.00000000, 0.56231511, -0.22805838, 0.23096333, 0.00000000, 0.00000000, 0.00000000, 0.00000000
1, 1.9799, 198, 0.33217180, -0.71960741, -0.12247100, 178.80123901, 144.80451965, 269.71109009, 0.00000000, 0.00000000, 0.00000000, 89.44705200, 25.20276260, 52.59445190, 1.00000000, 0.00000000, 0.00000000, 0.00000000, 0.10940090, -0.17715286, 0.09917200, 0.00000000, 0.00000000, 0.00000000, 0.00000000
1, 1.9899, 199, 0.64662576, -0.87715530, 0.34025386, 202.83358765, 39.70328903, 272.44769287, 0.00000000, 0.00000000, 0.00000000, 91.65966034, 22.48531151, 52.99340820, 1.00000000, 0.00000000, 0.00000000, 0.00000000, -0.24792126, -0.03967404, -0.32646999, 0.00000000, 0.00000000, 0.00000000, 0.00000000
1, 1.9999, 200, 0.42911875, -1.13592136, 0.35047790, 178.06550598, 11.86269093, 279.64974976, 0.00000000, 0.00000000, 0.00000000, 93.43523407, 19.68514442, 52.98427963, 1.00000000, 0.00000000, 0.00000000, 0.00000000, -0.07486706, 0.20202570, -0.30472803, 0.00000000, 0.00000000, 0.00000000, 0.00000000
1, 2.0099, 201, 0.24461485, -1.12613893, 0.07100458, 141.53730774, 49.74129868, 295.26019287, 0.00000000, 0.00000000, 0.00000000, 94.94316864, 16.70427704, 53.27897263, 1.00000000, 0.00000000, 0.00000000, 0.00000000, 0.06163489, 0.17711306, 0.00177899, 0.00000000, 0.00000000, 0.00000000, 0.00000000
1, 2.0199, 202, 0.29922724, -1.26093578, 0.09356733, 159.54187012, 29.70067596, 299.66830444, 0.00000000, 0.00000000, 0.00000000, 96.53833008, 13.69321060, 53.27559662, 1.00000000, 0.00000000, 0.00000000, 0.00000000, -0.04349312, 0.29949981, 0.00627113, 0.00000000, 0.00000000, 0.00000000, 0.00000000
1, 2.0299, 203, 0.44692558, -1.30337214, 0.13455242, 174.31161499, 50.08251190, 294.58306885, 0.00000000, 0.00000000, 0.00000000, 98.30554962, 10.70670319, 53.39495087, 1.00000000, 0.00000000, 0.00000000, 0.00000000, -0.24198675, 0.33340585, -0.00462894, 0.00000000, 0.00000000, 0.00000000, 0.00000000
1, 2.0399, 204, 0.47664273, -1.29308939, 0.11886984, 194.21275330, 80.97322845, 290.46890259, 0.00000000, 0.00000000, 0.00000000, 100.29748535, 7.71589422, 53.72526932, 1.00000000, 0.00000000, 0.00000000, 0.00000000, -0.32303903, 0.31876576, 0.04481148, 0.00000000, 0.00000000, 0.00000000, 0.00000000
1, 2.0499, 205, 0.37458014, -1.32646978, 0.13053441, 206.70097351, 105.92844391, 289.28033447, 0.00000000, 0.00000000, 0.00000000, 102.41497040, 4.67078876, 54.19705200, 1.00000000, 0.00000000, 0.00000000, 0.00000000, -0.27320996, 0.35215807, 0.06974588, 0.00000000, 0.00000000, 0.00000000, 0.00000000
1, 2.0599, 206, 0.15450405, -1.46704030, 0.26669839, 213.44075012, 123.29481506, 292.41241455, 0.00000000, 0.00000000, 0.00000000, 104.57740021, 1.53954792, 54.71400833, 1.00000000, 0.00000000, 0.00000000, 0.00000000, -0.10707331, 0.49704057, -0.02899031, 0.00000000, 0.00000000, 0.00000000, 0.00000000
1, 2.0699, 207, 0.07070957, -1.65194809, 0.21373636, 198.74020386, 131.16307068, 285.58044434, 0.00000000, 0.00000000, 0.00000000, 106.56482697, -1.56360424, 55.21033859, 1.00000000, 0.00000000, 0.00000000, 0.00000000, -0.07786467, 0.69008619, 0.05912284, 0.00000000, 0.00000000, 0.00000000, 0.00000000
1, 2.0799, 208, 0.37758335, -1.76848555, 0.27293190, 194.51249695, 141.99597168, 263.51849365, 0.00000000, 0.00000000, 0.00000000, 108.47939301, -4.50447464, 55.77262115, 1.00000000, 0.00000000, 0.00000000, 0.00000000, -0.43716776, 0.81795686, 0.03146010, 0.00000000, 0.00000000, 0.00000000, 0.00000000
1, 2.0899, 209, 0.60606581, -1.90820050, 0.34016782, 199.62901306, 153.17504883, 241.92369080, 0.00000000, 0.00000000, 0.00000000, 110.40596008, -7.28804731, 56.41146469, 1.00000000, 0.00000000, 0.00000000, 0.00000000, -0.71509993, 0.97239518, -0.00533656, 0.00000000, 0.00000000, 0.00000000, 0.00000000
1, 2.0999, 210, 0.67793518, -2.02597523, 0.32527304, 190.46086121, 166.23005676, 221.85580444, 0.00000000, 0.00000000, 0.00000000, 112.19731903, -9.95951176, 57.16242981, 1.00000000, 0.00000000, 0.00000000, 0.00000000, -0.83375132, 1.10728467, 0.03734075, 0.00000000, 0.00000000, 0.00000000, 0.00000000
1, 2.1099, 211, 0.73944306, -2.13233948, 0.25630802, 175.78692627, 186.04130554, 204.20983887, 0.00000000, 0.00000000, 0.00000000, 113.77230835, -12.56664753, 58.09517670, 1.00000000, 0.00000000, 0.00000000, 0.00000000, -0.94037235, 1.23204124, 0.12953500, 0.00000000, 0.00000000, 0.00000000, 0.00000000
1, 2.1199, 212, 0.83856434, -2.19086409, 0.16634105, 158.80599976, 198.33410645, 190.58079529, 0.00000000, 0.00000000, 0.00000000, 115.10968018, -15.12268639, 59.14202881, 1.00000000, 0.00000000, 0.00000000, 0.00000000, -1.08335125, 1.30957103, 0.23765042, 0.00000000, 0.00000000, 0.00000000, 0.00000000
1, 2.1299, 213, 1.04473090, -2.05965662, 0.00027879, 127.58877563, 187.31195068, 178.39103699, 0.00000000, 0.00000000, 0.00000000, 116.11723328, -17.54137230, 60.09722900, 1.00000000, 0.00000000, 0.00000000, 0.00000000, -1.33121073, 1.19694853, 0.41626334, 0.00000000, 0.00000000, 0.00000000, 0.00000000
1, 2.1399, 214, 1.24254537, -1.62378848, -0.10061948, 88.91030121, 177.33538818, 158.67527771, 0.00000000, 0.00000000, 0.00000000, 116.69737244, -19.73037148, 61.02088165, 1.00000000, 0.00000000, 0.00000000, 0.00000000, -1.56704152, 0.77740616, 0.52278388, 0.00000000, 0.00000000, 0.00000000, 0.00000000
1, 2.1499, 215, 1.31481743, -1.31973958, -0.14167343, 72.98125458, 170.86015320, 132.52770996, 0.00000000, 0.00000000, 0.00000000, 117.07717133, -21.68523598, 62.00936127, 1.00000000, 0.00000000, 0.00000000, 0.00000000, -1.67276657, 0.48739749, 0.56474376, 0.00000000, 0.00000000, 0.00000000, 0.00000000
1, 2.1599, 216, 1.43021941, -1.26550865, -0.04056357, 67.32297516, 158.34753418, 98.20358276, 0.00000000, 0.00000000, 0.00000000, 117.35278320, -23.28290367, 63.04748154, 1.00000000, 0.00000000, 0.00000000, 0.00000000, -1.81636238, 0.44553947, 0.46303925, 0.00000000, 0.00000000, 0.00000000, 0.00000000
1, 2.1699, 217, 1.54505122, -1.30574143, -0.00486570, 48.17290115, 136.60588074, 53.03383255, 0.00000000, 0.00000000, 0.00000000, 117.40576172, -24.38235855, 64.10695648, 1.00000000, 0.00000000, 0.00000000, 0.00000000, -1.95208609, 0.49484259, 0.42527053, 0.00000000, 0.00000000, 0.00000000, 0.00000000
1, 2.1799, 218, 1.59384370, -1.25895607, -0.06944272, 22.55147934, 81.19358063, 5.13145351, 0.00000000, 0.00000000, 0.00000000, 117.31158447, -24.80119705, 64.87415314, 1.00000000, 0.00000000, 0.00000000, 0.00000000, -2.01161051, 0.45199782, 0.48691866, 0.00000000, 0.00000000, 0.00000000, 0.00000000
1, 2.1899, 219, 1.54031622, -1.22060966, -0.03222599, 0.77429986, 33.27417755, -37.53239441, 0.00000000, 0.00000000, 0.00000000, 117.09071350, -24.58096123, 65.37338257, 1.00000000, 0.00000000, 0.00000000, 0.00000000, -1.95852733, 0.41263676, 0.44728708, 0.00000000, 0.00000000, 0.00000000, 0.00000000
1, 2.1999, 220, 1.36849415, -1.25393224, 0.00939759, -20.80875587, 1.63092947, -79.84924316, 0.00000000, 0.00000000, 0.00000000, 116.71319580, -23.87636185, 65.78557587, 1.00000000, 0.00000000, 0.00000000, 0.00000000, -1.77806830, 0.44015086, 0.40290296, 0.00000000, 0.00000000, 0.00000000, 0.00000000
1, 2.2099, 221, 1.10530496, -1.28125846, 0.16836146, -39.68046570, -6.16850090, -119.78326416, 0.00000000, 0.00000000, 0.00000000, 116.11054993, -22.77610207, 66.30574036, 1.00000000, 0.00000000, 0.00000000, 0.00000000, -1.49945080, 0.45775914, 0.23963200, 0.00000000, 0.00000000, 0.00000000, 0.00000000
1, 2.2199, 222, 0.68027025, -1.14774740, 0.70719385, -33.66961288, 20.57498169, -154.74986267, 0.00000000, 0.00000000, 0.00000000, 115.42589569, -21.47143936, 67.23149109, 1.00000000, 0.00000000, 0.00000000, 0.00000000, -1.05434108, 0.31195420, -0.30536047, 0.00000000, 0.00000000, 0.00000000, 0.00000000
1, 2.2299, 223, -0.35220012, -1.05024981, 1.14663565, -1.79133332, 32.47316742, -155.90969849, 0.00000000, 0.00000000, 0.00000000, 115.04337311, -20.19908714, 68.25630188, 1.00000000, 0.00000000, 0.00000000, 0.00000000, -0.00062151, 0.20329431, -0.74896240, 0.00000000, 0.00000000, 0.00000000, 0.00000000
1, 2.2399, 224, -1.35147572, -1.03559959, 0.62178862, -26.30023766, -7.85364294, -102.38026428, 0.00000000, 0.00000000, 0.00000000, 114.65014648, -19.26533127, 68.65402222, 1.00000000, 0.00000000, 0.00000000, 0.00000000, 1.01634538, 0.18049952, -0.22622728, 0.00000000, 0.00000000, 0.00000000, 0.00000000
1, 2.2499, 225, -0.93523151, -0.81991923, 0.21547526, -55.32609940, -50.25508118, -54.94467545, 0.00000000, 0.00000000, 0.00000000, 114.17556763, -18.55752373, 68.41035461, 1.00000000, 0.00000000, 0.00000000, 0.00000000, 0.61275727, -0.04252326, 0.17463714, 0.00000000, 0.00000000, 0.00000000, 0.00000000
1, 2.2599, 226, -0.22538328, -1.02453077, 0.22540240, -46.82415009, -102.24244690, -57.32405472, 0.00000000, 0.00000000, 0.00000000, 113.93611145, -17.61748123, 67.67369843, 1.00000000, 0.00000000, 0.00000000, 0.00000000, -0.08377929, 0.15588698, 0.16170397, 0.00000000, 0.00000000, 0.00000000, 0.00000000
1, 2.2699, 227, -0.08282852, -1.15257156, 0.25657088, -40.83948517, -129.31761169, -80.29040527, 0.00000000, 0.00000000, 0.00000000, 113.78990173, -16.36001968, 66.77674103, 1.00000000, 0.00000000, 0.00000000, 0.00000000, -0.20693327, 0.27720776, 0.13038780, 0.00000000, 0.00000000, 0.00000000, 0.00000000
1, 2.2799, 228, 0.02698709, -1.03315091, 0.24008673, -37.82983780, -120.51348877, -87.52059174, 0.00000000, 0.00000000, 0.00000000, 113.62342834, -15.07421207, 65.99570465, 1.00000000, 0.00000000, 0.00000000, 0.00000000, -0.29503971, 0.15085706, 0.14678055, 0.00000000, 0.00000000, 0.00000000, 0.00000000
1, 2.2899, 229, -0.01286226, -1.27169240, 0.13114399, -38.76936340, -120.31024933, -84.14687347, 0.00000000, 0.00000000, 0.00000000, 113.41270447, -13.81033039, 65.21263123, 1.00000000, 0.00000000, 0.00000000, 0.00000000, -0.23397252, 0.38314524, 0.25553006, 0.00000000, 0.00000000, 0.00000000, 0.00000000
1, 2.2999, 230, -0.21233013, -1.48682475, 0.21065122, -38.84037781, -78.06382751, -92.67751312, 0.00000000, 0.00000000, 0.00000000, 113.10780334, -12.65039539, 64.85157776, 1.00000000, 0.00000000, 0.00000000, 0.00000000, -0.01382458, 0.59161669, 0.17330688, 0.00000000, 0.00000000, 0.00000000, 0.00000000
1, 2.3099, 231, -0.20219681, -1.46428204, 0.24470033, -18.01064301, -24.74659729, -96.57367706, 0.00000000, 0.00000000, 0.00000000, 112.89603424, -11.66463470, 65.00453949, 1.00000000, 0.00000000, 0.00000000, 0.00000000, -0.00608486, 0.56381673, 0.13708210, 0.00000000, 0.00000000, 0.00000000, 0.00000000
1, 2.3199, 232, -0.06265114, -1.39290094, 0.24786538, -16.79851151, 9.28691196, -98.09468079, 0.00000000, 0.00000000, 0.00000000, 112.63613892, -10.79594707, 65.47882843, 1.00000000, 0.00000000, 0.00000000, 0.00000000, -0.13012114, 0.48791039, 0.13136005, 0.00000000, 0.00000000, 0.00000000, 0.00000000
1, 2.3299, 233, 0.21417271, -1.19682109, 0.40600657, 0.86811787, 59.52454758, -110.17803955, 0.00000000, 0.00000000, 0.00000000, 112.46713257, -10.00626945, 66.46698761, 1.00000000, 0.00000000, 0.00000000, 0.00000000, -0.39291829, 0.28791189, -0.02928508, 0.00000000, 0.00000000, 0.00000000, 0.00000000
1, 2.3399, 234, 0.13150190, -1.23262155, 0.44563276, 29.15289116, 84.43724060, -115.11279297, 0.00000000, 0.00000000, 0.00000000, 112.54366302, -9.25130272, 67.70221710, 1.00000000, 0.00000000, 0.00000000, 0.00000000, -0.29723275, 0.32148269, -0.06834579, 0.00000000, 0.00000000, 0.00000000, 0.00000000
1, 2.3499, 235, 0.04648253, -1.22770369, 0.26838365, 17.25602531, 66.45725250, -110.31439209, 0.00000000, 0.00000000, 0.00000000, 112.55416870, -8.48790741, 68.75202179, 1.00000000, 0.00000000, 0.00000000, 0.00000000, -0.19904274, 0.31518626, 0.11112042, 0.00000000, 0.00000000, 0.00000000, 0.00000000
1, 2.3599, 236, 0.16629115, -0.98596638, 0.18875074, -12.54206753, 58.34285355, -102.04823303, 0.00000000, 0.00000000, 0.00000000, 112.29613495, -7.76722193, 69.69008636, 1.00000000, 0.00000000, 0.00000000, 0.00000000, -0.30599099, 0.07045597, 0.18849050, 0.00000000, 0.00000000, 0.00000000, 0.00000000
1, 2.3699, 237, 0.24506430, -0.83505839, 0.34329984, -8.79833984, 46.76713943, -86.60377502, 0.00000000, 0.00000000, 0.00000000, 112.10855103, -7.14211035, 70.45680237, 1.00000000, 0.00000000, 0.00000000, 0.00000000, -0.37335581, -0.08332802, 0.03099671, 0.00000000, 0.00000000, 0.00000000, 0.00000000
1, 2.3799, 238, 0.34741530, -0.75054914, 0.41197562, -10.30855942, 15.96802902, -70.84916687, 0.00000000, 0.00000000, 0.00000000, 111.95542145, -6.54534006, 70.87358093, 1.00000000, 0.00000000, 0.00000000, 0.00000000, -0.46532136, -0.17009692, -0.03981978, 0.00000000, 0.00000000, 0.00000000, 0.00000000
1, 2.3899, 239, 0.42933398, -0.77696824, 0.45015207, -10.50297451, -26.15671158, -60.21394348, 0.00000000, 0.00000000, 0.00000000, 111.88022614, -5.77387285, 70.76983643, 1.00000000, 0.00000000, 0.00000000, 0.00000000, -0.53579873, -0.14563748, -0.07941197, 0.00000000, 0.00000000, 0.00000000, 0.00000000
1, 2.3999, 240, 0.43255293, -0.85779870, 0.40287459, -8.86636543, -55.57690430, -49.48635864, 0.00000000, 0.00000000, 0.00000000, 111.82286835, -5.10772038, 70.43672943, 1.00000000, 0.00000000, 0.00000000, 0.00000000, -0.52587831, -0.06633744, -0.03239889, 0.00000000, 0.00000000, 0.00000000, 0.00000000
1, 2.4099, 241, 0.38820720, -0.89681596, 0.30608591, -10.93236446, -77.59718323, -35.73885345, 0.00000000, 0.00000000, 0.00000000, 111.76266479, -4.48784542, 69.84680939, 1.00000000, 0.00000000, 0.00000000, 0.00000000, -0.47042382, -0.02863893, 0.06373107, 0.00000000, 0.00000000, 0.00000000, 0.00000000
1, 2.4199, 242, 0.19021977, -0.97457314, 0.33094418, -6.56789732, -89.58606720, -24.75165558, 0.00000000, 0.00000000, 0.00000000, 111.75132751, -3.92591691, 69.10450745, 1.00000000, 0.00000000, 0.00000000, 0.00000000, -0.26227066, 0.04820335, 0.03870502, 0.00000000, 0.00000000, 0.00000000, 0.00000000
1, 2.4299, 243, 0.01365122, -1.02498806, 0.28987432, -7.20203543, -87.71578979, -18.66713715, 0.00000000, 0.00000000, 0.00000000, 111.72720337, -3.42761230, 68.35736084, 1.00000000, 0.00000000, 0.00000000, 0.00000000, -0.07664102, 0.09794976, 0.07975605, 0.00000000, 0.00000000, 0.00000000, 0.00000000
1, 2.4399, 244, -0.08687274, -1.06332624, 0.29977572, -5.63813400, -76.73123932, -19.11675453, 0.00000000, 0.00000000, 0.00000000, 111.68592834, -2.97878957, 67.73309326, 1.00000000, 0.00000000, 0.00000000, 0.00000000, 0.03210478, 0.13563535, 0.06952811, 0.00000000, 0.00000000, 0.00000000, 0.00000000
1, 2.4499, 245, -0.19036087, -1.09103251, 0.34432948, -1.29256535, -55.55373383, -22.91007996, 0.00000000, 0.00000000, 0.00000000, 111.69400024, -2.56060123, 67.30103302, 1.00000000, 0.00000000, 0.00000000, 0.00000000, 0.14301915, 0.16288064, 0.02484370, 0.00000000, 0.00000000, 0.00000000, 0.00000000
1, 2.4599, 246, -0.23424931, -1.02946877, 0.31325278, -1.49060905, -30.47697067, -27.33678627, 0.00000000, 0.00000000, 0.00000000, 111.68676758, -2.19393921, 67.11873627, 1.00000000, 0.00000000, 0.00000000, 0.00000000, 0.19363326, 0.10105567, 0.05606595, 0.00000000, 0.00000000, 0.00000000, 0.00000000
1, 2.4699, 247, -0.17292978, -0.92405659, 0.30569470, -0.30889583, -8.34621239, -32.88256454, 0.00000000, 0.00000000, 0.00000000, 111.68222046, -1.85753787, 67.16267395, 1.00000000, 0.00000000, 0.00000000, 0.00000000, 0.13832624, -0.00465290, 0.06349172, 0.00000000, 0.00000000, 0.00000000, 0.00000000
1, 2.4799, 248, -0.12990715, -0.87871116, 0.36651272, 6.72938251, 8.92549515, -39.11727905, 0.00000000, 0.00000000, 0.00000000, 111.74285889, -1.52713811, 67.39038849, 1.00000000, 0.00000000, 0.00000000, 0.00000000, 0.10110600, -0.04992585, 0.00335363, 0.00000000, 0.00000000, 0.00000000, 0.00000000
1, 2.4899, 249, -0.07573588, -0.85784048, 0.37327746, 5.98616838, 17.46570587, -43.01480484, 0.00000000, 0.00000000, 0.00000000, 111.80864716, -1.20331705, 67.71117401, 1.00000000, 0.00000000, 0.00000000, 0.00000000, 0.05265403, -0.07051603, -0.00230749, 0.00000000, 0.00000000, 0.00000000, 0.00000000
1, 2.4999, 250, 0.00349238, -0.87329525, 0.43011773, 5.01989841, 16.85793877, -44.81255722, 0.00000000, 0.00000000, 0.00000000, 111.85305023, -0.85001779, 68.03437042, 1.00000000, 0.00000000, 0.00000000, 0.00000000, -0.02065147, -0.05481727, -0.05821755, 0.00000000, 0.00000000, 0.00000000, 0.00000000
1, 2.5099, 251, 0.04347814, -0.87758768, 0.48141968, 3.47622061, 11.27375317, -43.93204117, 0.00000000, 0.00000000, 0.00000000, 111.88460541, -0.48430213, 68.30267334, 1.00000000, 0.00000000, 0.00000000, 0.00000000, -0.05436322, -0.05035503, -0.10886005, 0.00000000, 0.00000000, 0.00000000, 0.00000000
1, 2.5199, 252, 0.09907326, -0.87741327, 0.50244039, -1.87155700, -8.04229736, -40.64697647, 0.00000000, 0.00000000, 0.00000000, 111.86537933, -0.07714874, 68.37951660, 1.00000000, 0.00000000, 0.00000000, 0.00000000, -0.10315128, -0.05055273, -0.12980318, 0.00000000, 0.00000000, 0.00000000, 0.00000000
1, 2.5299, 253, 0.18556727, -0.87037903, 0.49073508, -6.47475290, -27.85216904, -36.48439026, 0.00000000, 0.00000000, 0.00000000, 111.80023193, 0.36508983, 68.25666046, 1.00000000, 0.00000000, 0.00000000, 0.00000000, -0.18210788, -0.05794308, -0.11898082, 0.00000000, 0.00000000, 0.00000000, 0.00000000
1, 2.5399, 254, 0.21026200, -0.86919373, 0.46698153, -8.44830418, -43.45817184, -31.04449463, 0.00000000, 0.00000000, 0.00000000, 111.73706818, 0.87121415, 67.92294312, 1.00000000, 0.00000000, 0.00000000, 0.00000000, -0.19876504, -0.05950567, -0.09633507, 0.00000000, 0.00000000, 0.00000000, 0.00000000
1, 2.5499, 255, 0.21787716, -0.87838745, 0.42526686, -12.48133469, -59.75634766, -28.24741745, 0.00000000, 0.00000000, 0.00000000, 111.60340118, 1.35433972, 67.47180939, 1.00000000, 0.00000000, 0.00000000, 0.00000000, -0.19746336, -0.05085793, -0.05637658, 0.00000000, 0.00000000, 0.00000000, 0.00000000
1, 2.5599, 256, 0.04192985, -0.93832541, 0.44689614, -6.83323383, -73.81823730, -26.43492699, 0.00000000, 0.00000000, 0.00000000, 111.51841736, 1.87144303, 66.88217926, 1.00000000, 0.00000000, 0.00000000, 0.00000000, -0.01268184, 0.00862303, -0.07975660, 0.00000000, 0.00000000, 0.00000000, 0.00000000
1, 2.5699, 257, -0.09684949, -0.94764930, 0.40556675, -11.67208385, -82.16432953, -24.65418434, 0.00000000, 0.00000000, 0.00000000, 111.37648773, 2.40139747, 66.20715332, 1.00000000, 0.00000000, 0.00000000, 0.00000000, 0.13525638, 0.01751007, -0.04038393, 0.00000000, 0.00000000, 0.00000000, 0.00000000
1, 2.5799, 258, -0.08226822, -0.94048345, 0.41321799, -12.77104092, -87.02896118, -24.45309639, 0.00000000, 0.00000000, 0.00000000, 111.21507263, 2.94531250, 65.48432159, 1.00000000, 0.00000000, 0.00000000, 0.00000000, 0.13008903, 0.00971098, -0.05077068, 0.00000000, 0.00000000, 0.00000000, 0.00000000
1, 2.5899, 259, -0.00210661, -0.95975822, 0.38209769, -14.91008186, -80.85379791, -28.11643219, 0.00000000, 0.00000000, 0.00000000, 111.02536774, 3.49004269, 64.83739471, 1.00000000, 0.00000000, 0.00000000, 0.00000000, 0.05949869, 0.02833673, -0.02272020, 0.00000000, 0.00000000, 0.00000000, 0.00000000
1, 2.5999, 260, 0.02925726, -1.00934970, 0.31012064, -17.19047546, -60.43809891, -32.99258423, 0.00000000, 0.00000000, 0.00000000, 110.82428741, 4.01413345, 64.38978577, 1.00000000, 0.00000000, 0.00000000, 0.00000000, 0.03735821, 0.07723676, 0.04585741, 0.00000000, 0.00000000, 0.00000000, 0.00000000
1, 2.6099, 261, 0.00570670, -1.03214002, 0.21475062, -18.29837608, -44.87231827, -38.08025742, 0.00000000, 0.00000000, 0.00000000, 110.62010956, 4.52909184, 64.10401917, 1.00000000, 0.00000000, 0.00000000, 0.00000000, 0.06986612, 0.09934363, 0.13763013, 0.00000000, 0.00000000, 0.00000000, 0.00000000
1, 2.6199, 262, -0.08690149, -1.05717254, 0.27995014, -17.85601616, -43.02770233, -44.38111877, 0.00000000, 0.00000000, 0.00000000, 110.42073822, 5.09558105, 63.85573196, 1.00000000, 0.00000000, 0.00000000, 0.00000000, 0.17195463, 0.12388255, 0.06894402, 0.00000000, 0.00000000, 0.00000000, 0.00000000
1, 2.6299, 263, -0.10048988, -1.02777886, 0.38655415, -20.67943764, -42.55236435, -46.65084457, 0.00000000, 0.00000000, 0.00000000, 110.19157410, 5.68077850, 63.61750412, 1.00000000, 0.00000000, 0.00000000, 0.00000000, 0.19567004, 0.09402290, -0.04154512, 0.00000000, 0.00000000, 0.00000000, 0.00000000
1, 2.6399, 264, 0.01083793, -1.00745833, 0.42325360, -22.11250305, -42.50035477, -45.02277374, 0.00000000, 0.00000000, 0.00000000, 109.96175385, 6.23701000, 63.37374878, 1.00000000, 0.00000000, 0.00000000, 0.00000000, 0.09429691, 0.07324168, -0.08240542, 0.00000000, 0.00000000, 0.00000000, 0.00000000
1, 2.6499, 265, 0.04875029, -1.00676990, 0.52000034, -22.92727852, -26.21499062, -44.55831528, 0.00000000, 0.00000000, 0.00000000, 109.72180176, 6.74518251, 63.27780533, 1.00000000, 0.00000000, 0.00000000, 0.00000000, 0.06553097, 0.07210170, -0.18335827, 0.00000000, 0.00000000, 0.00000000, 0.00000000
1, 2.6599, 266, -0.01515638, -1.01199937, 0.44319299, -17.51173019, -8.34858990, -44.36146927, 0.00000000, 0.00000000, 0.00000000, 109.55531311, 7.19106483, 63.34874344, 1.00000000, 0.00000000, 0.00000000, 0.00000000, 0.13742244, 0.07708079, -0.11006693, 0.00000000, 0.00000000, 0.00000000, 0.00000000
1, 2.6699, 267, 0.02522608, -0.98598188, 0.37808937, -20.06082344, -25.62664604, -46.77385330, 0.00000000, 0.00000000, 0.00000000, 109.34328461, 7.71737623, 63.26213455, 1.00000000, 0.00000000, 0.00000000, 0.00000000, 0.10548577, 0.05103743, -0.04826341, 0.00000000, 0.00000000, 0.00000000, 0.00000000
1, 2.6799, 268, 0.00208054, -1.00388372, 0.45967495, -21.48250580, -31.47760773, -50.88524246, 0.00000000, 0.00000000, 0.00000000, 109.11030579, 8.30154228, 63.13120651, 1.00000000, 0.00000000, 0.00000000, 0.00000000, 0.13847652, 0.06887336, -0.13411424, 0.00000000, 0.00000000, 0.00000000, 0.00000000
1, 2.6899, 269, -0.06993485, -0.97320789, 0.48742425, -29.26091194, -21.40618706, -55.53606796, 0.00000000, 0.00000000, 0.00000000, 108.85060883, 8.84795284, 63.12921143, 1.00000000, 0.00000000, 0.00000000, 0.00000000, 0.22053833, 0.03812824, -0.16658771, 0.00000000, 0.00000000, 0.00000000, 0.00000000
1, 2.6999, 270, -0.09233219, -0.92876440, 0.47797433, -31.17290878, -8.51798534, -60.54047394, 0.00000000, 0.00000000, 0.00000000, 108.55718231, 9.44870949, 63.24411774, 1.00000000, 0.00000000, 0.00000000, 0.00000000, 0.25254732, -0.00638610, -0.16204077, 0.00000000, 0.00000000, 0.00000000, 0.00000000
1, 2.7099, 271, -0.17986448, -0.96768767, 0.50820583, -35.09311295, -9.00426483, -67.09539795, 0.00000000, 0.00000000, 0.00000000, 108.22800446, 10.11377621, 63.37228775, 1.00000000, 0.00000000, 0.00000000, 0.00000000, 0.35107917, 0.03260121, -0.19790690, 0.00000000, 0.00000000, 0.00000000, 0.00000000
1, 2.7199, 272, 0.04745499, -0.98437697, 0.54692197, -41.27442551, -4.07821989, -73.92633057, 0.00000000, 0.00000000, 0.00000000, 107.85054016, 10.82942390, 63.56562805, 1.00000000, 0.00000000, 0.00000000, 0.00000000, 0.13577805, 0.04937246, -0.24331561, 0.00000000, 0.00000000, 0.00000000, 0.00000000
1, 2.7299, 273, 0.06552712, -1.13221979, 0.49928033, -42.92793274, 0.22267322, -83.02495575, 0.00000000, 0.00000000, 0.00000000, 107.47153473, 11.61979103, 63.82462311, 1.00000000, 0.00000000, 0.00000000, 0.00000000, 0.13065538, 0.19767664, -0.20242569, 0.00000000, 0.00000000, 0.00000000, 0.00000000
1, 2.7399, 274, 0.00815556, -1.16587853, 0.53963345, -52.60692596, -14.35497761, -88.83555603, 0.00000000, 0.00000000, 0.00000000, 106.99162292, 12.48979473, 63.96184921, 1.00000000, 0.00000000, 0.00000000, 0.00000000, 0.20258296, 0.23191622, -0.25105003, 0.00000000, 0.00000000, 0.00000000, 0.00000000
1, 2.7499, 275, 0.15653263, -1.15693355, 0.55628806, -56.22032166, -21.84177780, -91.03199768, 0.00000000, 0.00000000, 0.00000000, 106.44156647, 13.42449760, 64.01585388, 1.00000000, 0.00000000, 0.00000000, 0.00000000, 0.06967828, 0.22368987, -0.27725962, 0.00000000, 0.00000000, 0.00000000, 0.00000000
1, 2.7599, 276, 0.12426659, -1.26858139, 0.36926180, -56.53676987, -33.35573196, -92.16131592, 0.00000000, 0.00000000, 0.00000000, 105.86000824, 14.40232754, 63.94985962, 1.00000000, 0.00000000, 0.00000000, 0.00000000, 0.11814424, 0.33640534, -0.10046108, 0.00000000, 0.00000000, 0.00000000, 0.00000000
1, 2.7699, 277, 0.10170039, -1.34436131, 0.28029847, -61.20978546, -50.30358887, -96.69621277, 0.00000000, 0.00000000, 0.00000000, 105.18754578, 15.46859264, 63.71604919, 1.00000000, 0.00000000, 0.00000000, 0.00000000, 0.15817100, 0.41360745, -0.02314813, 0.00000000, 0.00000000, 0.00000000, 0.00000000
1, 2.7799, 278, 0.02762349, -1.36338687, 0.20669581, -63.73728180, -57.95852661, -102.54774475, 0.00000000, 0.00000000, 0.00000000, 104.46447754, 16.60822678, 63.40613556, 1.00000000, 0.00000000, 0.00000000, 0.00000000, 0.25094736, 0.43460947, 0.03769664, 0.00000000, 0.00000000, 0.00000000, 0.00000000
1, 2.7899, 279, -0.08349372, -1.32185543, 0.20599240, -69.36997986, -58.93666840, -109.55998993, 0.00000000, 0.00000000, 0.00000000, 103.67005920, 17.78447914, 63.10694122, 1.00000000, 0.00000000, 0.00000000, 0.00000000, 0.38168594, 0.39561233, 0.02445972, 0.00000000, 0.00000000, 0.00000000, 0.00000000
1, 2.7999, 280, -0.11490888, -1.32762337, 0.22178191, -70.56388092, -52.04202652, -118.52865601, 0.00000000, 0.00000000, 0.00000000, 102.88655090, 19.05769539, 62.85995865, 1.00000000, 0.00000000, 0.00000000, 0.00000000, 0.43345103, 0.40470827, -0.00566532, 0.00000000, 0.00000000, 0.00000000, 0.00000000
1, 2.8099, 281, -0.20151564, -1.36355221, 0.25242522, -71.30421448, -44.23636627, -126.56468201, 0.00000000, 0.00000000, 0.00000000, 102.11708832, 20.38918877, 62.69225311, 1.00000000, 0.00000000, 0.00000000, 0.00000000, 0.54165626, 0.44516790, -0.05038702, 0.00000000, 0.00000000, 0.00000000, 0.00000000
1, 2.8199, 282, -0.12360028, -1.36658001, 0.27531040, -75.34446716, -33.30624390, -134.08598328, 0.00000000, 0.00000000, 0.00000000, 101.34321594, 21.76986122, 62.63490677, 1.00000000, 0.00000000, 0.00000000, 0.00000000, 0.48600304, 0.45373321, -0.08738253, 0.00000000, 0.00000000, 0.00000000, 0.00000000
1, 2.8299, 283, -0.16764864, -1.42127097, 0.30007207, -75.46342468, -30.35818672, -140.76947021, 0.00000000, 0.00000000, 0.00000000, 100.57582855, 23.20954132, 62.60188675, 1.00000000, 0.00000000, 0.00000000, 0.00000000, 0.55297667, 0.51506650, -0.12613498, 0.00000000, 0.00000000, 0.00000000, 0.00000000
1, 2.8399, 284, -0.33566606, -1.46398234, 0.37529969, -76.91910553, -38.10599899, -142.99539185, 0.00000000, 0.00000000, 0.00000000, 99.75709534, 24.65064240, 62.48908234, 1.00000000, 0.00000000, 0.00000000, 0.00000000, 0.74433959, 0.56538689, -0.21577096, 0.00000000, 0.00000000, 0.00000000, 0.00000000
1, 2.8499, 285, -0.17407911, -1.48804736, 0.43975550, -79.15098572, -33.96788788, -144.30171204, 0.00000000, 0.00000000, 0.00000000, 98.91762543, 26.12966347, 62.37723541, 1.00000000, 0.00000000, 0.00000000, 0.00000000, 0.60575187, 0.59774375, -0.29500625, 0.00000000, 0.00000000, 0.00000000, 0.00000000
1, 2.8599, 286, -0.27392754, -1.47942865, 0.39271542, -77.45454407, -51.16181946, -143.54522705, 0.00000000, 0.00000000, 0.00000000, 97.99305725, 27.62448883, 62.04654694, 1.00000000, 0.00000000, 0.00000000, 0.00000000, 0.72888023, 0.59839785, -0.26336044, 0.00000000, 0.00000000, 0.00000000, 0.00000000
1, 2.8699, 287, -0.32837147, -1.36563122, 0.40220293, -81.85071564, -76.88411713, -142.21974182, 0.00000000, 0.00000000, 0.00000000, 96.86138153, 29.13383293, 61.38895035, 1.00000000, 0.00000000, 0.00000000, 0.00000000, 0.80653244, 0.49452555, -0.29058787, 0.00000000, 0.00000000, 0.00000000, 0.00000000
1, 2.8799, 288, -0.32953256, -1.34712017, 0.41679481, -82.04714966, -108.20906067, -142.67413330, 0.00000000, 0.00000000, 0.00000000, 95.50997925, 30.66857719, 60.32541275, 1.00000000, 0.00000000, 0.00000000, 0.00000000, 0.83089238, 0.48673967, -0.32572725, 0.00000000, 0.00000000, 0.00000000, 0.00000000
1, 2.8899, 289, -0.25397709, -1.42716718, 0.46001464, -90.52263641, -139.11090088, -142.81219482, 0.00000000, 0.00000000, 0.00000000, 93.84016418, 32.17810822, 58.85648346, 1.00000000, 0.00000000, 0.00000000, 0.00000000, 0.77830499, 0.57832360, -0.39337388, 0.00000000, 0.00000000, 0.00000000, 0.00000000
1, 2.8999, 290, -0.20731807, -1.56459200, 0.55879807, -97.62750244, -158.83958435, -141.20794678, 0.00000000, 0.00000000, 0.00000000, 91.88190460, 33.66775131, 57.05072403, 1.00000000, 0.00000000, 0.00000000, 0.00000000, 0.75362849, 0.72796524, -0.52029228, 0.00000000, 0.00000000, 0.00000000, 0.00000000
1, 2.9099, 291, -0.31394118, -1.66241872, 0.71092457, -103.53340912, -162.80027771, -137.00004578, 0.00000000, 0.00000000, 0.00000000, 89.74674988, 35.06120682, 55.10263443, 1.00000000, 0.00000000, 0.00000000, 0.00000000, 0.88100755, 0.83885902, -0.70286769, 0.00000000, 0.00000000, 0.00000000, 0.00000000
1, 2.9199, 292, -0.33507314, -1.63215744, 0.81975496, -113.15055847, -136.79899597, -134.33590698, 0.00000000, 0.00000000, 0.00000000, 87.61016846, 36.37339401, 53.38013458, 1.00000000, 0.00000000, 0.00000000, 0.00000000, 0.92120433, 0.82232428, -0.84232700, 0.00000000, 0.00000000, 0.00000000, 0.00000000
1, 2.9299, 293, -0.28826562, -1.47537243, 0.81418395, -107.79398346, -97.99057770, -139.19367981, 0.00000000, 0.00000000, 0.00000000, 85.73352051, 37.70657730, 52.05286789, 1.00000000, 0.00000000, 0.00000000, 0.00000000, 0.89292002, 0.68051189, -0.86415309, 0.00000000, 0.00000000, 0.00000000, 0.00000000
1, 2.9399, 294, -0.28370440, -1.39498556, 0.59790820, -99.44441986, -82.11652374, -139.47622681, 0.00000000, 0.00000000, 0.00000000, 84.02314758, 38.98590088, 50.88652039, 1.00000000, 0.00000000, 0.00000000, 0.00000000, 0.90654004, 0.61606932, -0.67059946, 0.00000000, 0.00000000, 0.00000000, 0.00000000
1, 2.9499, 295, -0.05928770, -1.27498531, 0.47079825, -107.66354370, -83.16460419, -137.16557312, 0.00000000, 0.00000000, 0.00000000, 82.12648010, 40.24764633, 49.60041428, 1.00000000, 0.00000000, 0.00000000, 0.00000000, 0.69908619, 0.51248050, -0.56648195, 0.00000000, 0.00000000, 0.00000000, 0.00000000
1, 2.9599, 296, 0.39194459, -1.09195042, 0.34112266, -110.06737518, -69.91635895, -135.63253784, 0.00000000, 0.00000000, 0.00000000, 80.24813843, 41.48083878, 48.41178131, 1.00000000, 0.00000000, 0.00000000, 0.00000000, 0.26437366, 0.34692544, -0.45987135, 0.00000000, 0.00000000, 0.00000000, 0.00000000
1, 2.9699, 297, 0.89958066, -0.89784044, 0.24874815, -73.22008514, -80.56772614, -133.56672668, 0.00000000, 0.00000000, 0.00000000, 78.57836914, 42.64467239, 47.01340103, 1.00000000, 0.00000000, 0.00000000, 0.00000000, -0.22764935, 0.17041628, -0.38765687, 0.00000000, 0.00000000, 0.00000000, 0.00000000
1, 2.9799, 298, 0.78477335, -0.79875505, 0.63222045, -9.08394527, -99.42462921, -118.05484772, 0.00000000, 0.00000000, 0.00000000, 77.34547424, 43.59108734, 45.34304428, 1.00000000, 0.00000000, 0.00000000, 0.00000000, -0.09943163, 0.08712071, -0.78664517, 0.00000000, 0.00000000, 0.00000000, 0.00000000
1, 2.9899, 299, 0.17341436, -0.59297186, 0.74772906, -7.62633371, -49.85592270, -76.24279785, 0.00000000, 0.00000000, 0.00000000, 76.93859100, 44.15271759, 44.61046982, 1.00000000, 0.00000000, 0.00000000, 0.00000000, 0.52108264, -0.10791241, -0.91029000, 0.00000000, 0.00000000, 0.00000000, 0.00000000
1, 2.9999, 300, -0.44303554, -0.32724914, 0.67945647, -12.25948906, 28.65128136, -29.41275024, 0.00000000, 0.00000000, 0.00000000, 77.02434540, 44.50402832, 44.90800095, 1.00000000, 0.00000000, 0.00000000, 0.00000000, 1.14272571, -0.36866012, -0.84113818, 0.00000000, 0.00000000, 0.00000000, 0.00000000
1, 3.0099, 301, -0.71530592, -0.22285706, 0.49783373, 7.81126690, 42.39261627, 18.29377937, 0.00000000, 0.00000000, 0.00000000, 77.54806519, 44.41890335, 45.54374695, 1.00000000, 0.00000000, 0.00000000, 0.00000000, 1.41606188, -0.47323993, -0.65399408, 0.00000000, 0.00000000, 0.00000000, 0.00000000
1, 3.0199, 302, -0.52534091, -0.24275059, 0.22193313, 1.88551879, 38.82227325, 49.12273026, 0.00000000, 0.00000000, 0.00000000, 78.03714752, 44.02078247, 46.21803284, 1.00000000, 0.00000000, 0.00000000, 0.00000000, 1.22229409, -0.45828384, -0.37292898, 0.00000000, 0.00000000, 0.00000000, 0.00000000
1, 3.0299, 303, -0.22672388, -0.27155206, -0.02357737, 3.11966920, 64.02355194, 66.64139557, 0.00000000, 0.00000000, 0.00000000, 78.79710388, 43.49658585, 47.27177811, 1.00000000, 0.00000000, 0.00000000, 0.00000000, 0.91763890, -0.43683207, -0.12069181, 0.00000000, 0.00000000, 0.00000000, 0.00000000
1, 3.0399, 304, 0.05445682, -0.27384871, -0.02698239, 14.97503757, 77.29266357, 80.98454285, 0.00000000, 0.00000000, 0.00000000, 79.81304932, 42.83404541, 48.53346252, 1.00000000, 0.00000000, 0.00000000, 0.00000000, 0.62877554, -0.44390607, -0.10717022, 0.00000000, 0.00000000, 0.00000000, 0.00000000
1, 3.0499, 305, 0.25304246, -0.22446711, 0.11484296, 31.50392532, 83.63080597, 98.37360382, 0.00000000, 0.00000000, 0.00000000, 81.03155518, 42.00340271, 49.87247467, 1.00000000, 0.00000000, 0.00000000, 0.00000000, 0.42038149, -0.50474358, -0.23614535, 0.00000000, 0.00000000, 0.00000000, 0.00000000
1, 3.0599, 306, 0.29926866, -0.21010672, 0.25359532, 57.47791290, 86.55243683, 124.21637726, 0.00000000, 0.00000000, 0.00000000, 82.52042389, 40.89810944, 51.25262833, 1.00000000, 0.00000000, 0.00000000, 0.00000000, 0.36122301, -0.53328007, -0.35878399, 0.00000000, 0.00000000, 0.00000000, 0.00000000
1, 3.0699, 307, 0.21108969, -0.24531913, 0.32464346, 75.68961334, 87.14972687, 157.12640381, 0.00000000, 0.00000000, 0.00000000, 84.16223907, 39.43855667, 52.62356186, 1.00000000, 0.00000000, 0.00000000, 0.00000000, 0.43189716, -0.51564479, -0.41072387, 0.00000000, 0.00000000, 0.00000000, 0.00000000
1, 3.0799, 308, 0.10805399, -0.31648776, 0.30585945, 82.70927429, 70.59485626, 193.17355347, 0.00000000, 0.00000000, 0.00000000, 85.68575287, 37.57712936, 53.74018097, 1.00000000, 0.00000000, 0.00000000, 0.00000000, 0.51176548, -0.46535248, -0.37241915, 0.00000000, 0.00000000, 0.00000000, 0.00000000
1, 3.0899, 309, 0.00806571, -0.39184749, 0.27330992, 85.74652863, 46.90527725, 226.28050232, 0.00000000, 0.00000000, 0.00000000, 87.02743530, 35.32561874, 54.52520370, 1.00000000, 0.00000000, 0.00000000, 0.00000000, 0.58265358, -0.41346312, -0.32201970, 0.00000000, 0.00000000, 0.00000000, 0.00000000
1, 3.0999, 310, 0.00430455, -0.46437097, 0.11761302, 91.32212067, 4.81927109, 253.71472168, 0.00000000, 0.00000000, 0.00000000, 88.04921722, 32.79372406, 54.71480560, 1.00000000, 0.00000000, 0.00000000, 0.00000000, 0.55146778, -0.36618781, -0.15102358, 0.00000000, 0.00000000, 0.00000000, 0.00000000
1, 3.1099, 311, -0.02245973, -0.55347747, -0.17279139, 82.87954712, -17.86428070, 274.63708496, 0.00000000, 0.00000000, 0.00000000, 88.81385040, 30.04336548, 54.59288025, 1.00000000, 0.00000000, 0.00000000, 0.00000000, 0.53871530, -0.30256382, 0.15084857, 0.00000000, 0.00000000, 0.00000000, 0.00000000
1, 3.1199, 312, 0.04448386, -0.57570654, -0.22670694, 111.37786102, 5.08668518, 285.00592041, 0.00000000, 0.00000000, 0.00000000, 89.97271729, 27.19395256, 54.68758774, 1.00000000, 0.00000000, 0.00000000, 0.00000000, 0.42909536, -0.30488342, 0.21890925, 0.00000000, 0.00000000, 0.00000000, 0.00000000
1, 3.1299, 313, 0.17282730, -0.72347635, 0.00812750, 149.30136108, -13.98402691, 292.45401001, 0.00000000, 0.00000000, 0.00000000, 91.38415527, 24.27239227, 54.49452209, 1.00000000, 0.00000000, 0.00000000, 0.00000000, 0.25561094, -0.17985745, 0.00552965, 0.00000000, 0.00000000, 0.00000000, 0.00000000
1, 3.1399, 314, 0.14393103, -0.92193609, 0.24039982, 151.24598694, -55.56320572, 296.69976807, 0.00000000, 0.00000000, 0.00000000, 92.63168335, 21.31353760, 53.78980255, 1.00000000, 0.00000000, 0.00000000, 0.00000000, 0.23760056, -0.00162590, -0.20537108, 0.00000000, 0.00000000, 0.00000000, 0.00000000
1, 3.1499, 315, -0.03199333, -1.08269858, 0.17588490, 139.78808594, -33.49994659, 304.11730957, 0.00000000, 0.00000000, 0.00000000, 93.84535980, 18.29545593, 53.25112915, 1.00000000, 0.00000000, 0.00000000, 0.00000000, 0.36467713, 0.14143959, -0.12017757, 0.00000000, 0.00000000, 0.00000000, 0.00000000
1, 3.1599, 316, -0.02398106, -1.22323668, 0.02692125, 141.83380127, 2.82244110, 307.98526001, 0.00000000, 0.00000000, 0.00000000, 95.19848633, 15.22256088, 53.02764511, 1.00000000, 0.00000000, 0.00000000, 0.00000000, 0.30589679, 0.26712728, 0.05125396, 0.00000000, 0.00000000, 0.00000000, 0.00000000
1, 3.1699, 317, 0.25945258, -1.39872980, 0.01088138, 163.06167603, 27.09250641, 304.56427002, 0.00000000, 0.00000000, 0.00000000, 96.81649017, 12.16482449, 52.97782135, 1.00000000, 0.00000000, 0.00000000, 0.00000000, -0.02928805, 0.43140048, 0.09407084, 0.00000000, 0.00000000, 0.00000000, 0.00000000
1, 3.1799, 318, 0.47288612, -1.49484956, 0.03890179, 178.59564209, 51.82324600, 299.99340820, 0.00000000, 0.00000000, 0.00000000, 98.62288666, 9.12217617, 53.09103394, 1.00000000, 0.00000000, 0.00000000, 0.00000000, -0.29470113, 0.52041435, 0.09685205, 0.00000000, 0.00000000, 0.00000000, 0.00000000
1, 3.1899, 319, 0.36014673, -1.51715791, 0.06158902, 195.92321777, 68.89302063, 297.23519897, 0.00000000, 0.00000000, 0.00000000, 100.60177612, 6.07946730, 53.27501297, 1.00000000, 0.00000000, 0.00000000, 0.00000000, -0.23456001, 0.53987348, 0.10820724, 0.00000000, 0.00000000, 0.00000000, 0.00000000
1, 3.1999, 320, 0.21244651, -1.51147866, 0.08368330, 204.64762878, 93.28319550, 282.45416260, 0.00000000, 0.00000000, 0.00000000, 102.67481232, 3.12401199, 53.62076950, 1.00000000, 0.00000000, 0.00000000, 0.00000000, -0.13881290, 0.53573519, 0.12172786, 0.00000000, 0.00000000, 0.00000000, 0.00000000
1, 3.2099, 321, 0.06076626, -1.56644368, 0.13009582, 219.01713562, 130.47344971, 257.99041748, 0.00000000, 0.00000000, 0.00000000, 104.88319397, 0.30664632, 54.27464294, 1.00000000, 0.00000000, 0.00000000, 0.00000000, -0.03718371, 0.59676570, 0.11252490, 0.00000000, 0.00000000, 0.00000000, 0.00000000
1, 3.2199, 322, -0.03705041, -1.65439868, 0.20909527, 220.22164917, 166.81535339, 230.28300476, 0.00000000, 0.00000000, 0.00000000, 107.06658173, -2.36759806, 55.24475098, 1.00000000, 0.00000000, 0.00000000, 0.00000000, 0.01308106, 0.69479853, 0.07074910, 0.00000000, 0.00000000, 0.00000000, 0.00000000
1, 3.2299, 323, 0.05608010, -1.68136346, 0.26968187, 206.44630432, 205.91671753, 209.65113831, 0.00000000, 0.00000000, 0.00000000, 109.04568481, -5.00051832, 56.55464172, 1.00000000, 0.00000000, 0.00000000, 0.00000000, -0.12601759, 0.73450696, 0.04387281, 0.00000000, 0.00000000, 0.00000000, 0.00000000
1, 3.2399, 324, 0.27003890, -1.68403172, 0.35649344, 193.25236511, 247.55319214, 199.96150208, 0.00000000, 0.00000000, 0.00000000, 110.79046631, -7.71717453, 58.20562363, 1.00000000, 0.00000000, 0.00000000, 0.00000000, -0.38653407, 0.75175864, -0.01436960, 0.00000000, 0.00000000, 0.00000000, 0.00000000
1, 3.2499, 325, 0.47116506, -1.78415132, 0.44096324, 186.23844910, 286.29202271, 197.89666748, 0.00000000, 0.00000000, 0.00000000, 112.34040070, -10.61099052, 60.16471863, 1.00000000, 0.00000000, 0.00000000, 0.00000000, -0.63639712, 0.86839390, -0.07513518, 0.00000000, 0.00000000, 0.00000000, 0.00000000
1, 3.2599, 326, 0.64426589, -1.92613351, 0.46765730, 172.56478882, 306.70953369, 200.35212708, 0.00000000, 0.00000000, 0.00000000, 113.62767029, -13.65379715, 62.25151825, 1.00000000, 0.00000000, 0.00000000, 0.00000000, -0.86076826, 1.02867877, -0.08367325, 0.00000000, 0.00000000, 0.00000000, 0.00000000
1, 3.2699, 327, 0.77805543, -1.97819901, 0.26124975, 147.84695435, 298.19570923, 197.21197510, 0.00000000, 0.00000000, 0.00000000, 114.58760834, -16.67225838, 64.23606873, 1.00000000, 0.00000000, 0.00000000, 0.00000000, -1.04616630, 1.09991813, 0.13435800, 0.00000000, 0.00000000, 0.00000000, 0.00000000
1, 3.2799, 328, 0.98777479, -1.92374158, 0.14837205, 117.74938202, 263.74743652, 181.25000000, 0.00000000, 0.00000000, 0.00000000, 115.23482513, -19.42749786, 65.94814301, 1.00000000, 0.00000000, 0.00000000, 0.00000000, -1.30374360, 1.06406331, 0.25279385, 0.00000000, 0.00000000, 0.00000000, 0.00000000
1, 3.2899, 329, 1.16783440, -1.68208706, 0.21879265, 90.91226196, 227.30348206, 156.73750305, 0.00000000, 0.00000000, 0.00000000, 115.61906433, -21.79878044, 67.41175079, 1.00000000, 0.00000000, 0.00000000, 0.00000000, -1.52529073, 0.83914363, 0.18312827, 0.00000000, 0.00000000, 0.00000000, 0.00000000
1, 3.2999, 330, 1.38867128, -1.40031767, 0.26374424, 72.90646362, 189.62600708, 134.04479980, 0.00000000, 0.00000000, 0.00000000, 115.87489319, -23.82987785, 68.63285828, 1.00000000, 0.00000000, 0.00000000, 0.00000000, -1.78095603, 0.57210445, 0.13635638, 0.00000000, 0.00000000, 0.00000000, 0.00000000
1, 3.3099, 331, 1.66221261, -1.20407391, 0.27453625, 55.88850403, 134.23541260, 109.64371490, 0.00000000, 0.00000000, 0.00000000, 116.10147858, -25.40347862, 69.43167114, 1.00000000, 0.00000000, 0.00000000, 0.00000000, -2.08254004, 0.38866252, 0.12342576, 0.00000000, 0.00000000, 0.00000000, 0.00000000
1, 3.3199, 332, 1.82370496, -1.15899408, 0.17136943, 39.65448761, 63.51280594, 75.23526001, 0.00000000, 0.00000000, 0.00000000, 116.38339996, -26.35891151, 69.69524384, 1.00000000, 0.00000000, 0.00000000, 0.00000000, -2.26291156, 0.35341918, 0.22628216, 0.00000000, 0.00000000, 0.00000000, 0.00000000
1, 3.3299, 333, 1.68604696, -1.20079315, 0.03856508, 22.49009132, -5.50875664, 34.94355011, 0.00000000, 0.00000000, 0.00000000, 116.71102142, -26.64671898, 69.46579742, 1.00000000, 0.00000000, 0.00000000, 0.00000000, -2.13362980, 0.40112495, 0.36168146, 0.00000000, 0.00000000, 0.00000000, 0.00000000
1, 3.3399, 334, 1.37862349, -1.24850249, -0.00627756, 0.13249311, -52.44861603, -5.56675100, 0.00000000, 0.00000000, 0.00000000, 116.91258240, -26.30894089, 68.95402527, 1.00000000, 0.00000000, 0.00000000, 0.00000000, -1.82473421, 0.45009011, 0.41065133, 0.00000000, 0.00000000, 0.00000000, 0.00000000
1, 3.3499, 335, 1.15359366, -1.30252576, -0.02318587, -28.58088875, -76.46371460, -43.48909760, 0.00000000, 0.00000000, 0.00000000, 116.86309814, -25.57501602, 68.41455078, 1.00000000, 0.00000000, 0.00000000, 0.00000000, -1.59020078, 0.50030434, 0.43037087, 0.00000000, 0.00000000, 0.00000000, 0.00000000
1, 3.3599, 336, 0.99228460, -1.33012843, 0.10728372, -59.29570770, -90.72068024, -86.25916290, 0.00000000, 0.00000000, 0.00000000, 116.46790314, -24.39682770, 67.94725800, 1.00000000, 0.00000000, 0.00000000, 0.00000000, -1.41270769, 0.51909542, 0.29944870, 0.00000000, 0.00000000, 0.00000000, 0.00000000
1, 3.3699, 337, 0.96643448, -1.23437011, 0.26179606, -73.41288757, -87.56427002, -116.97016144, 0.00000000, 0.00000000, 0.00000000, 115.85261536, -22.96071243, 67.65217590, 1.00000000, 0.00000000, 0.00000000, 0.00000000, -1.36545491, 0.41093749, 0.14154255, 0.00000000, 0.00000000, 0.00000000, 0.00000000
1, 3.3799, 338, 0.43838689, -1.06508362, 1.03251159, -57.79050064, -81.84689331, -138.26794434, 0.00000000, 0.00000000, 0.00000000, 115.33316803, -21.36007500, 67.49858093, 1.00000000, 0.00000000, 0.00000000, 0.00000000, -0.81234872, 0.22793193, -0.63343370, 0.00000000, 0.00000000, 0.00000000, 0.00000000
1, 3.3899, 339, -0.76937956, -1.02731299, 1.27655089, -5.70926666, -50.52818680, -122.31447601, 0.00000000, 0.00000000, 0.00000000, 115.26219940, -20.05219460, 67.56733704, 1.00000000, 0.00000000, 0.00000000, 0.00000000, 0.41907847, 0.18034834, -0.87667286, 0.00000000, 0.00000000, 0.00000000, 0.00000000
1, 3.3999, 340, -1.46482956, -0.79245746, 0.76877135, -33.82367325, -93.22315979, -61.50664520, 0.00000000, 0.00000000, 0.00000000, 115.12962341, -19.09877014, 66.95058441, 1.00000000, 0.00000000, 0.00000000, 0.00000000, 1.13217437, -0.06089357, -0.36738354, 0.00000000, 0.00000000, 0.00000000, 0.00000000
1, 3.4099, 341, -0.65591145, -0.81567252, 0.13177375, -47.52202988, -136.99053955, -32.63138199, 0.00000000, 0.00000000, 0.00000000, 115.02642059, -18.22272491, 65.78696442, 1.00000000, 0.00000000, 0.00000000, 0.00000000, 0.33741841, -0.04299819, 0.26975760, 0.00000000, 0.00000000, 0.00000000, 0.00000000
1, 3.4199, 342, 0.07689514, -1.24542129, -0.10783583, -86.80416107, -190.12959290, -62.05314636, 0.00000000, 0.00000000, 0.00000000, 114.62268829, -16.86028290, 64.25061035, 1.00000000, 0.00000000, 0.00000000, 0.00000000, -0.37618893, 0.37936527, 0.50823063, 0.00000000, 0.00000000, 0.00000000, 0.00000000
1, 3.4299, 343, -0.11518441, -1.28441000, 0.34972376, -79.83661652, -154.40565491, -106.46260071, 0.00000000, 0.00000000, 0.00000000, 114.10424042, -15.25334072, 63.24314880, 1.00000000, 0.00000000, 0.00000000, 0.00000000, -0.15791193, 0.40755996, 0.04586031, 0.00000000, 0.00000000, 0.00000000, 0.00000000
1, 3.4399, 344, -0.28341800, -0.98133624, 0.36803827, -32.30347824, -67.09783936, -98.89293671, 0.00000000, 0.00000000, 0.00000000, 113.82913971, -14.07595444, 63.03065491, 1.00000000, 0.00000000, 0.00000000, 0.00000000, 0.03313082, 0.09647098, 0.02481940, 0.00000000, 0.00000000, 0.00000000, 0.00000000
1, 3.4499, 345, -0.18050492, -0.97538358, 0.20993240, -23.84494209, -6.48305750, -93.48708344, 0.00000000, 0.00000000, 0.00000000, 113.51473236, -13.19352818, 63.35581207, 1.00000000, 0.00000000, 0.00000000, 0.00000000, -0.05299472, 0.08460908, 0.17991292, 0.00000000, 0.00000000, 0.00000000, 0.00000000
1, 3.4599, 346, -0.24244246, -1.22838032, -0.11019799, -26.97249794, 6.05925369, -92.54846954, 0.00000000, 0.00000000, 0.00000000, 113.14907837, -12.36776924, 63.78871536, 1.00000000, 0.00000000, 0.00000000, 0.00000000, 0.02279910, 0.33228660, 0.49588305, 0.00000000, 0.00000000, 0.00000000, 0.00000000
1, 3.4699, 347, -0.24941918, -1.34209514, 0.02614175, -28.12545013, 22.90374565, -107.21006012, 0.00000000, 0.00000000, 0.00000000, 112.73564911, -11.46959114, 64.43144226, 1.00000000, 0.00000000, 0.00000000, 0.00000000, 0.04486877, 0.44039014, 0.35473078, 0.00000000, 0.00000000, 0.00000000, 0.00000000
1, 3.4799, 348, -0.13412881, -1.23151338, 0.28303027, -17.47850990, 65.55207062, -113.39976501, 0.00000000, 0.00000000, 0.00000000, 112.35793304, -10.67313957, 65.49113464, 1.00000000, 0.00000000, 0.00000000, 0.00000000, -0.05600984, 0.32438192, 0.09239291, 0.00000000, 0.00000000, 0.00000000, 0.00000000
1, 3.4899, 349, 0.07849659, -1.19372082, 0.39144415, 3.20199227, 85.20491791, -110.14884186, 0.00000000, 0.00000000, 0.00000000, 112.16384888, -9.94572353, 66.69952393, 1.00000000, 0.00000000, 0.00000000, 0.00000000, -0.25602734, 0.28276819, -0.01910697, 0.00000000, 0.00000000, 0.00000000, 0.00000000
1, 3.4999, 350, 0.22232404, -1.19582164, 0.41009906, 7.46175480, 76.11349487, -107.96327209, 0.00000000, 0.00000000, 0.00000000, 112.05042267, -9.23176384, 67.82667542, 1.00000000, 0.00000000, 0.00000000, 0.00000000, -0.38745183, 0.28191537, -0.03929526, 0.00000000, 0.00000000, 0.00000000, 0.00000000
1, 3.5099, 351, 0.28478360, -1.15456891, 0.50656092, 10.84147644, 61.79200363, -109.13593292, 0.00000000, 0.00000000, 0.00000000, 112.00589752, -8.45186710, 68.82067108, 1.00000000, 0.00000000, 0.00000000, 0.00000000, -0.43688384, 0.23833469, -0.13593233, 0.00000000, 0.00000000, 0.00000000, 0.00000000
1, 3.5199, 352, 0.16774401, -1.06705093, 0.63940632, 8.22826672, 56.93545532, -106.06386566, 0.00000000, 0.00000000, 0.00000000, 111.95717621, -7.68135548, 69.75480652, 1.00000000, 0.00000000, 0.00000000, 0.00000000, -0.30629462, 0.14862095, -0.26889831, 0.00000000, 0.00000000, 0.00000000, 0.00000000
1, 3.5299, 353, 0.10194295, -0.98544329, 0.44822252, 1.98400307, 46.41841888, -94.64946747, 0.00000000, 0.00000000, 0.00000000, 111.87591553, -6.97672176, 70.54536438, 1.00000000, 0.00000000, 0.00000000, 0.00000000, -0.22794239, 0.06512511, -0.07791646, 0.00000000, 0.00000000, 0.00000000, 0.00000000
1, 3.5399, 354, 0.24978290, -0.87372887, 0.36370829, -11.11042118, 16.32521248, -81.77211761, 0.00000000, 0.00000000, 0.00000000, 111.72424316, -6.17023706, 70.91973114, 1.00000000, 0.00000000, 0.00000000, 0.00000000, -0.36321267, -0.04893066, 0.00482382, 0.00000000, 0.00000000, 0.00000000, 0.00000000
1, 3.5499, 355, 0.36924198, -0.86658430, 0.38211223, -8.36820602, -11.28659821, -71.84169769, 0.00000000, 0.00000000, 0.00000000, 111.62386322, -5.46096516, 71.08102417, 1.00000000, 0.00000000, 0.00000000, 0.00000000, -0.46907365, -0.05815631, -0.01485733, 0.00000000, 0.00000000, 0.00000000, 0.00000000
1, 3.5599, 356, 0.42034224, -0.87275779, 0.40570346, -11.20353794, -49.00995636, -62.81968689, 0.00000000, 0.00000000, 0.00000000, 111.53144073, -4.69662809, 70.85538483, 1.00000000, 0.00000000, 0.00000000, 0.00000000, -0.50727266, -0.05373490, -0.03958856, 0.00000000, 0.00000000, 0.00000000, 0.00000000
1, 3.5699, 357, 0.32552242, -0.90421969, 0.42654765, -9.38244915, -73.13002777, -52.13686752, 0.00000000, 0.00000000, 0.00000000, 111.47436523, -3.94348407, 70.36473083, 1.00000000, 0.00000000, 0.00000000, 0.00000000, -0.39910930, -0.02368379, -0.06107944, 0.00000000, 0.00000000, 0.00000000, 0.00000000
1, 3.5799, 358, 0.25158286, -0.89394259, 0.30726621, -15.17694187, -82.68991089, -39.17677689, 0.00000000, 0.00000000, 0.00000000, 111.36195374, -3.27679420, 69.73680115, 1.00000000, 0.00000000, 0.00000000, 0.00000000, -0.31300092, -0.03530350, 0.05703989, 0.00000000, 0.00000000, 0.00000000, 0.00000000
1, 3.5899, 359, 0.18678778, -0.93864053, 0.30531949, -14.07655048, -88.55360413, -30.66728973, 0.00000000, 0.00000000, 0.00000000, 111.24929047, -2.63377166, 69.00318909, 1.00000000, 0.00000000, 0.00000000, 0.00000000, -0.23709047, 0.00807673, 0.05732430, 0.00000000, 0.00000000, 0.00000000, 0.00000000
1, 3.5999, 360, 0.07651186, -1.02149844, 0.26052999, -11.25691223, -82.77474976, -25.76890945, 0.00000000, 0.00000000, 0.00000000, 111.16471100, -2.09405828, 68.32417297, 1.00000000, 0.00000000, 0.00000000, 0.00000000, -0.11650614, 0.08992068, 0.10079603, 0.00000000, 0.00000000, 0.00000000, 0.00000000
1, 3.6099, 361, 0.02316688, -1.06545377, 0.22601300, -10.87558174, -75.27928162, -24.77525330, 0.00000000, 0.00000000, 0.00000000, 111.07571411, -1.59173298, 67.71086884, 1.00000000, 0.00000000, 0.00000000, 0.00000000, -0.05418892, 0.13297795, 0.13387606, 0.00000000, 0.00000000, 0.00000000, 0.00000000
1, 3.6199, 362, -0.06846604, -1.09147584, 0.22559471, -7.94889402, -60.55406570, -26.29989433, 0.00000000, 0.00000000, 0.00000000, 111.00749969, -1.12881672, 67.24002838, 1.00000000, 0.00000000, 0.00000000, 0.00000000, 0.04579046, 0.15836298, 0.13326590, 0.00000000, 0.00000000, 0.00000000, 0.00000000
1, 3.6299, 363, -0.09985252, -1.04001534, 0.18846492, -4.94462919, -44.65378571, -29.35155678, 0.00000000, 0.00000000, 0.00000000, 110.96309662, -0.69488645, 66.92811584, 1.00000000, 0.00000000, 0.00000000, 0.00000000, 0.08491036, 0.10636060, 0.16939119, 0.00000000, 0.00000000, 0.00000000, 0.00000000
1, 3.6399, 364, -0.10124402, -0.98682177, 0.23235747, 5.52968550, -32.11315536, -32.34176636, 0.00000000, 0.00000000, 0.00000000, 110.98072052, -0.31289092, 66.79133606, 1.00000000, 0.00000000, 0.00000000, 0.00000000, 0.09352928, 0.05317101, 0.12573951, 0.00000000, 0.00000000, 0.00000000, 0.00000000
1, 3.6499, 365, -0.07669539, -0.96821278, 0.25823724, 8.47600746, -22.04149628, -33.67651749, 0.00000000, 0.00000000, 0.00000000, 111.06570435, 0.08052968, 66.70641327, 1.00000000, 0.00000000, 0.00000000, 0.00000000, 0.07556298, 0.03484599, 0.10067985, 0.00000000, 0.00000000, 0.00000000, 0.00000000
1, 3.6599, 366, 0.03179956, -0.95513755, 0.25658104, 6.31945276, -20.08669090, -33.73207474, 0.00000000, 0.00000000, 0.00000000, 111.12857819, 0.46754378, 66.64043427, 1.00000000, 0.00000000, 0.00000000, 0.00000000, -0.02617392, 0.02224050, 0.10351314, 0.00000000, 0.00000000, 0.00000000, 0.00000000
1, 3.6699, 367, 0.08154497, -0.96570832, 0.32126164, 8.13396358, -21.32919884, -32.56148911, 0.00000000, 0.00000000, 0.00000000, 111.20898438, 0.84821773, 66.55912018, 1.00000000, 0.00000000, 0.00000000, 0.00000000, -0.06922932, 0.03331491, 0.03996871, 0.00000000, 0.00000000, 0.00000000, 0.00000000
1, 3.6799, 368, 0.12520193, -0.93872762, 0.42725214, 2.43590879, -29.22664261, -28.21006775, 0.00000000, 0.00000000, 0.00000000, 111.23020935, 1.21700454, 66.38878632, 1.00000000, 0.00000000, 0.00000000, 0.00000000, -0.10632723, 0.00676446, -0.06519523, 0.00000000, 0.00000000, 0.00000000, 0.00000000
1, 3.6899, 369, 0.23537122, -0.88276571, 0.44895932, 1.67920387, -40.80590820, -23.12256622, 0.00000000, 0.00000000, 0.00000000, 111.27736664, 1.65253758, 66.02127075, 1.00000000, 0.00000000, 0.00000000, 0.00000000, -0.20987888, -0.04900421, -0.08681351, 0.00000000, 0.00000000, 0.00000000, 0.00000000
1, 3.6999, 370, 0.19347808, -0.91270739, 0.46049842, 8.58947468, -45.08267593, -19.11026573, 0.00000000, 0.00000000, 0.00000000, 111.35207367, 1.99443960, 65.67057037, 1.00000000, 0.00000000, 0.00000000, 0.00000000, -0.16085561, -0.01833366, -0.09704893, 0.00000000, 0.00000000, 0.00000000, 0.00000000
1, 3.7099, 371, 0.23595703, -0.85912830, 0.38399062, 2.35959792, -53.67842102, -14.46308041, 0.00000000, 0.00000000, 0.00000000, 111.35874939, 2.32465768, 65.22302246, 1.00000000, 0.00000000, 0.00000000, 0.00000000, -0.19758244, -0.07148054, -0.01999609, 0.00000000, 0.00000000, 0.00000000, 0.00000000
1, 3.7199, 372, 0.27947131, -0.85039145, 0.43332908, 3.49607444, -65.06600952, -12.05636692, 0.00000000, 0.00000000, 0.00000000, 111.36916351, 2.67390776, 64.66042328, 1.00000000, 0.00000000, 0.00000000, 0.00000000, -0.23509949, -0.08000155, -0.06946508, 0.00000000, 0.00000000, 0.00000000, 0.00000000
1, 3.7299, 373, 0.19743264, -0.90607417, 0.48053512, 8.15172482, -63.20923615, -10.69152927, 0.00000000, 0.00000000, 0.00000000, 111.42341614, 3.00405240, 64.11022949, 1.00000000, 0.00000000, 0.00000000, 0.00000000, -0.14715099, -0.02378267, -0.11606923, 0.00000000, 0.00000000, 0.00000000, 0.00000000
1, 3.7399, 374, 0.10079753, -0.92038429, 0.45641437, 7.20351648, -67.75131989, -8.37108421, 0.00000000, 0.00000000, 0.00000000, 111.48366547, 3.33221626, 63.49822235, 1.00000000, 0.00000000, 0.00000000, 0.00000000, -0.04485475, -0.00886901, -0.09123497, 0.00000000, 0.00000000, 0.00000000, 0.00000000
1, 3.7499, 375, 0.00511229, -0.93280512, 0.44863012, 6.93927383, -71.36750793, -7.15054369, 0.00000000, 0.00000000, 0.00000000, 111.51407623, 3.66029143, 62.85921478, 1.00000000, 0.00000000, 0.00000000, 0.00000000, 0.05661232, 0.00418058, -0.08278321, 0.00000000, 0.00000000, 0.00000000, 0.00000000
1, 3.7599, 376, -0.04698788, -0.94155598, 0.43128788, 7.64963484, -68.55840302, -6.49615145, 0.00000000, 0.00000000, 0.00000000, 111.54962921, 3.97235966, 62.24395752, 1.00000000, 0.00000000, 0.00000000, 0.00000000, 0.11422467, 0.01348338, -0.06501187, 0.00000000, 0.00000000, 0.00000000, 0.00000000
1, 3.7699, 377, -0.07226128, -0.97232550, 0.40508252, 4.82405329, -63.88138199, -12.16364861, 0.00000000, 0.00000000, 0.00000000, 111.55813599, 4.32016420, 61.69306183, 1.00000000, 0.00000000, 0.00000000, 0.00000000, 0.14526466, 0.04473525, -0.03868970, 0.00000000, 0.00000000, 0.00000000, 0.00000000
1, 3.7799, 378, -0.17826922, -0.99320185, 0.40171877, 6.37494373, -47.36073303, -20.08997345, 0.00000000, 0.00000000, 0.00000000, 111.59313202, 4.68113947, 61.32539368, 1.00000000, 0.00000000, 0.00000000, 0.00000000, 0.25752446, 0.06622286, -0.03507806, 0.00000000, 0.00000000, 0.00000000, 0.00000000
1, 3.7899, 379, -0.20296864, -0.94085556, 0.39600295, 0.85666490, -32.20613480, -25.88097572, 0.00000000, 0.00000000, 0.00000000, 111.60599518, 4.92515802, 61.20217133, 1.00000000, 0.00000000, 0.00000000, 0.00000000, 0.28796411, 0.01442929, -0.02924878, 0.00000000, 0.00000000, 0.00000000, 0.00000000
1, 3.7999, 380, -0.15852971, -0.93854868, 0.48621222, -1.73860168, -25.55653763, -30.49558640, 0.00000000, 0.00000000, 0.00000000, 111.57742310, 5.30277205, 61.07627487, 1.00000000, 0.00000000, 0.00000000, 0.00000000, 0.24847233, 0.01248546, -0.11972380, 0.00000000, 0.00000000, 0.00000000, 0.00000000
1, 3.8099, 381, -0.07891332, -0.97613811, 0.46791425, -8.31528282, -13.38813591, -33.78896332, 0.00000000, 0.00000000, 0.00000000, 111.49434662, 5.66624212, 61.07581329, 1.00000000, 0.00000000, 0.00000000, 0.00000000, 0.17533699, 0.05023035, -0.10268260, 0.00000000, 0.00000000, 0.00000000, 0.00000000
1, 3.8199, 382, 0.04502875, -0.99056751, 0.34542060, -15.28547382, -4.61444569, -37.62501907, 0.00000000, 0.00000000, 0.00000000, 111.35111237, 6.03331757, 61.17079163, 1.00000000, 0.00000000, 0.00000000, 0.00000000, 0.05758863, 0.06450030, 0.01771210, 0.00000000, 0.00000000, 0.00000000, 0.00000000
1, 3.8299, 383, 0.05426871, -1.00900590, 0.40975347, -17.82373810, -15.09313774, -41.21731567, 0.00000000, 0.00000000, 0.00000000, 111.17381287, 6.47217226, 61.17965698, 1.00000000, 0.00000000, 0.00000000, 0.00000000, 0.05553597, 0.08258748, -0.04963332, 0.00000000, 0.00000000, 0.00000000, 0.00000000
1, 3.8399, 384, 0.02911448, -0.99029315, 0.47242820, -21.77601242, -15.24148750, -45.23049927, 0.00000000, 0.00000000, 0.00000000, 110.97998810, 6.92650604, 61.20908356, 1.00000000, 0.00000000, 0.00000000, 0.00000000, 0.08860099, 0.06349480, -0.11580231, 0.00000000, 0.00000000, 0.00000000, 0.00000000
1, 3.8499, 385, -0.01904237, -1.04597676, 0.46623948, -22.21636963, -20.75374031, -50.11985779, 0.00000000, 0.00000000, 0.00000000, 110.75583649, 7.46875048, 61.19354248, 1.00000000, 0.00000000, 0.00000000, 0.00000000, 0.14543360, 0.11889805, -0.11333466, 0.00000000, 0.00000000, 0.00000000, 0.00000000
1, 3.8599, 386, -0.08853552, -1.08798730, 0.46438715, -28.79996109, -22.70666313, -53.98211670, 0.00000000, 0.00000000, 0.00000000, 110.46480560, 8.05396271, 61.17087555, 1.00000000, 0.00000000, 0.00000000, 0.00000000, 0.22485398, 0.16053954, -0.11618111, 0.00000000, 0.00000000, 0.00000000, 0.00000000
1, 3.8699, 387, 0.08443151, -1.07129192, 0.46540135, -31.53924942, -24.03288269, -55.66164398, 0.00000000, 0.00000000, 0.00000000, 110.14463806, 8.65936852, 61.13828659, 1.00000000, 0.00000000, 0.00000000, 0.00000000, 0.06214132, 0.14334366, -0.12273961, 0.00000000, 0.00000000, 0.00000000, 0.00000000
1, 3.8799, 388, 0.08351666, -1.06685078, 0.42997524, -36.49340439, -29.54473495, -61.26572037, 0.00000000, 0.00000000, 0.00000000, 109.76884460, 9.33606625, 61.06883621, 1.00000000, 0.00000000, 0.00000000, 0.00000000, 0.07423282, 0.13842015, -0.09364682, 0.00000000, 0.00000000, 0.00000000, 0.00000000
1, 3.8899, 389, -0.03840629, -0.99970716, 0.46335766, -42.21069717, -32.16196823, -66.47634888, 0.00000000, 0.00000000, 0.00000000, 109.35089111, 10.03687477, 61.00720215, 1.00000000, 0.00000000, 0.00000000, 0.00000000, 0.20831946, 0.07081462, -0.13430974, 0.00000000, 0.00000000, 0.00000000, 0.00000000
1, 3.8999, 390, 0.00570641, -0.96636236, 0.52661085, -46.59604263, -33.45486069, -72.14263153, 0.00000000, 0.00000000, 0.00000000, 108.87021637, 10.82807541, 60.92596436, 1.00000000, 0.00000000, 0.00000000, 0.00000000, 0.17697644, 0.03707723, -0.20561944, 0.00000000, 0.00000000, 0.00000000, 0.00000000
1, 3.9099, 391, -0.04827801, -1.04414618, 0.56510890, -50.16142654, -29.59945297, -78.86071014, 0.00000000, 0.00000000, 0.00000000, 108.36296844, 11.66995239, 60.89662933, 1.00000000, 0.00000000, 0.00000000, 0.00000000, 0.24510509, 0.11467133, -0.25315911, 0.00000000, 0.00000000, 0.00000000, 0.00000000
1, 3.9199, 392, 0.03090816, -1.07921731, 0.62533230, -56.15118790, -26.97085571, -83.21868896, 0.00000000, 0.00000000, 0.00000000, 107.80188751, 12.54476070, 60.89864349, 1.00000000, 0.00000000, 0.00000000, 0.00000000, 0.18066524, 0.14979663, -0.32302761, 0.00000000, 0.00000000, 0.00000000, 0.00000000
1, 3.9299, 393, 0.08264851, -1.20047796, 0.44837093, -58.27759171, -30.56850243, -85.99993896, 0.00000000, 0.00000000, 0.00000000, 107.21144867, 13.45682335, 60.86496353, 1.00000000, 0.00000000, 0.00000000, 0.00000000, 0.14417896, 0.27131519, -0.15651831, 0.00000000, 0.00000000, 0.00000000, 0.00000000
