SensorId,TimeStamp (s),FrameNumber,AccX (g),AccY (g),AccZ (g),GyroX (deg/s),GyroY (deg/s),GyroZ (deg/s),MagX (uT),MagY (uT),MagZ (uT),EulerX (deg),EulerY (deg),EulerZ (deg),QuatW,QuatX,QuatY,QuatZ,LinAccX (g),LinAccY (g),LinAccZ (g),Pressure (kPa),Altitude (m),Temperature (degC),HeaveMotion (m)
1,133.39,13339,-0.36925763,-1.36334264,0.45954615,31.65491676,-86.64746857,-151.97660828,0,0,0,95.43682861,11.70344162,147.55447388,1,0,0,0,0.56197917,0.3864255,-0.36772609,0,0,0,0
1,133.4,13340,-0.42424542,-1.30597734,0.36486992,35.18133545,-76.74732208,-143.85343933,0,0,0,95.65323639,13.19774818,146.91293335,1,0,0,0,0.64321077,0.33487183,-0.27023938,0,0,0,0
1,133.41,13341,-0.46704704,-1.32707953,0.23096727,30.33143234,-63.06383133,-134.2532196,0,0,0,95.83460236,14.59673405,146.40518188,1,0,0,0,0.7103622,0.36208266,-0.13333154,0,0,0,0
1,133.42,13342,-0.50066209,-1.29004109,0.18492304,19.34438705,-57.04085541,-121.50083923,0,0,0,95.90736389,15.8637495,145.94602966,1,0,0,0,0.76622194,0.33104926,-0.08605157,0,0,0,0
1,133.43,13343,-0.51203275,-1.2210691,0.23520207,14.5266571,-58.47291946,-104.16958618,0,0,0,95.91274261,16.96013451,145.45152283,1,0,0,0,0.79707092,0.26766777,-0.13645223,0,0,0,0
1,133.44,13344,-0.56027353,-1.13171744,0.33797178,13.11938477,-61.32754517,-82.46957397,0,0,0,95.8791275,17.84346771,144.90097046,1,0,0,0,0.86145663,0.18319839,-0.24007833,0,0,0,0
1,133.45,13345,-0.58914924,-1.09301293,0.34475362,14.71990967,-56.10305786,-61.14859772,0,0,0,95.87193298,18.47522163,144.37628174,1,0,0,0,0.90261614,0.14840141,-0.24759892,0,0,0,0
1,133.46,13346,-0.62626892,-1.06870186,0.2753714,12.34393501,-50.39741898,-39.38829422,0,0,0,95.83916473,18.91847038,143.88938904,1,0,0,0,0.9480238,0.12681365,-0.17884994,0,0,0,0
1,133.47,13347,-0.64530528,-1.07933986,0.21035375,10.2076416,-46.51486206,-18.71986961,0,0,0,95.78800964,19.15186119,143.41990662,1,0,0,0,0.97220063,0.13913582,-0.11467232,0,0,0,0
1,133.48,13348,-0.60824198,-1.03844821,0.16766568,3.40431452,-41.045578,-0.11051179,0,0,0,95.68000793,19.19400597,142.98764038,1,0,0,0,0.93697596,0.09873557,-0.07346416,0,0,0,0
1,133.49,13349,-0.52771252,-1.0057224,0.1607087,-0.90029836,-38.95212173,16.31106567,0,0,0,95.53091431,19.0697403,142.56045532,1,0,0,0,0.85540211,0.06542887,-0.06869501,0,0,0,0
1,133.5,13350,-0.44007143,-1.00128317,0.17420588,-3.71329951,-38.1256752,31.12452316,0,0,0,95.36051941,18.73679733,142.12194824,1,0,0,0,0.76390147,0.05940561,-0.0847796,0,0,0,0
1,133.51,13351,-0.33618405,-0.9861443,0.18633464,-4.92493391,-40.5108223,43.60563278,0,0,0,95.16255188,18.33972931,141.65431213,1,0,0,0,0.65343434,0.04176554,-0.09975446,0,0,0,0
1,133.52,13352,-0.2649875,-0.95343512,0.18705004,-3.84465075,-46.14053726,52.78308868,0,0,0,94.95869446,17.85462952,141.12182617,1,0,0,0,0.57474416,0.00629157,-0.10360509,0,0,0,0
1,133.53,13353,-0.21957882,-0.91152465,0.17191966,-1.36135483,-51.74733353,59.5987587,0,0,0,94.76570129,17.30461884,140.52798462,1,0,0,0,0.52051795,-0.03871821,-0.09150798,0,0,0,0
1,133.54,13354,-0.19232126,-0.87328464,0.18195353,0.19836199,-56.61635208,63.19709015,0,0,0,94.57930756,16.72084808,139.88406372,1,0,0,0,0.48372155,-0.08016504,-0.10442536,0,0,0,0
1,133.55,13355,-0.15389229,-0.83662808,0.2201217,2.10924411,-61.42734528,65.58437347,0,0,0,94.41591644,16.09203529,139.19064331,1,0,0,0,0.43518853,-0.12006669,-0.14530528,0,0,0,0
1,133.56,13356,-0.1295305,-0.79984933,0.24962714,5.41091728,-65.01007843,66.67415619,0,0,0,94.2725296,15.47639465,138.46458435,1,0,0,0,0.40025759,-0.16006367,-0.17707068,0,0,0,0
1,133.57,13357,-0.11794225,-0.77354652,0.28026295,10.74993038,-67.35600281,66.7036438,0,0,0,94.18460846,14.86078453,137.71768188,1,0,0,0,0.37829655,-0.18935281,-0.20933034,0,0,0,0
1,133.58,13358,-0.13260159,-0.7519992,0.31827736,15.81968784,-67.24170685,65.33050537,0,0,0,94.15631104,14.25804901,136.97576904,1,0,0,0,0.38268775,-0.21366648,-0.24800605,0,0,0,0
1,133.59,13359,-0.16453297,-0.72655773,0.36369014,20.64582062,-63.79763031,62.8271637,0,0,0,94.19309998,13.6778326,136.27301025,1,0,0,0,0.40464872,-0.24160641,-0.2930173,0,0,0,0
1,133.6,13360,-0.20370999,-0.68855971,0.43285015,24.48307991,-58.05433273,58.59561157,0,0,0,94.31429291,13.11446762,135.63204956,1,0,0,0,0.43427795,-0.2818132,-0.36069068,0,0,0,0
1,133.61,13361,-0.09149081,-0.77908891,0.38863575,30.69870758,-45.15309525,52.44192886,0,0,0,94.50914001,12.6262455,135.12892151,1,0,0,0,0.31306139,-0.1931363,-0.31328124,0,0,0,0
1,133.62,13362,-0.0031057,-0.83636016,0.21729405,24.70378876,-39.09514999,49.05189514,0,0,0,94.66184235,12.16854572,134.68974304,1,0,0,0,0.21684912,-0.13737303,-0.1388607,0,0,0,0
1,133.63,13363,0.36125681,-0.95346648,-0.16045062,14.93162537,-30.6034317,51.56400299,0,0,0,94.73757935,11.67970943,134.33474731,1,0,0,0,-0.15561163,-0.02184749,0.24086615,0,0,0,0
1,133.64,13364,0.85765517,-1.45832992,-0.91142595,-6.43052387,-14.90375233,46.77831268,0,0,0,94.63548279,11.22573757,134.14398193,1,0,0,0,-0.66025931,0.48130399,0.99173939,0,0,0,0
1,133.65,13365,0.98430419,-1.78986728,-1.18378186,-39.75858307,-28.15663528,42.02523804,0,0,0,94.17254639,10.83006001,133.82516479,1,0,0,0,-0.79382408,0.81103754,1.25861621,0,0,0,0
1,133.66,13366,0.25072876,-1.64279389,-0.27735347,-29.24258423,-83.99515533,41.65820694,0,0,0,93.71749878,10.47154808,132.94354248,1,0,0,0,-0.0668413,0.66207659,0.34347808,0,0,0,0
1,133.67,13367,-0.0952042,-1.46991241,0.93474871,8.4928112,-86.71872711,47.58641434,0,0,0,93.64013672,10.05191517,132.03321838,1,0,0,0,0.27261299,0.48776728,-0.87219834,0,0,0,0
1,133.68,13368,-0.15092376,-1.14480686,0.83709741,37.11109924,-63.94787216,50.8119278,0,0,0,93.89471436,9.5865202,131.35185242,1,0,0,0,0.32060876,0.16145158,-0.77219748,0,0,0,0
1,133.69,13369,-0.4510608,-1.28689921,0.10773612,51.95207977,-30.55503082,66.24822998,0,0,0,94.35623932,8.94743252,130.99459839,1,0,0,0,0.61111683,0.30241674,-0.03590529,0,0,0,0
1,133.7,13370,-0.53376991,-1.37949061,-0.21384232,52.27932739,-34.07777023,86.01173401,0,0,0,94.8117218,8.10407257,130.58120728,1,0,0,0,0.68038154,0.39355108,0.29387906,0,0,0,0
1,133.71,13371,-0.34424371,-1.18806362,-0.12485846,59.62659454,-48.01802444,89.60726166,0,0,0,95.3327179,7.25386047,130.01867676,1,0,0,0,0.47605711,0.20077524,0.21353263,0,0,0,0
1,133.72,13372,0.00059672,-1.13606274,-0.09607638,63.14882278,-27.62739754,78.74508667,0,0,0,95.92154694,6.49707556,129.66407776,1,0,0,0,0.11722583,0.14795069,0.19472377,0,0,0,0
1,133.73,13373,0.01967123,-0.93987566,-0.09902683,53.72498703,-7.78300524,56.97545624,0,0,0,96.44358826,5.93891287,129.52456665,1,0,0,0,0.08717725,-0.04847366,0.20736012,0,0,0,0
1,133.74,13374,-0.2800571,-0.66620624,0.24076778,44.45151138,-3.00942636,41.55348969,0,0,0,96.88035583,5.52975464,129.44615173,1,0,0,0,0.37892535,-0.32205892,-0.12436717,0,0,0,0
1,133.75,13375,-0.29267532,-0.63790053,0.4987874,51.19251251,-7.45263815,41.1911087,0,0,0,97.42069244,5.10198116,129.31369019,1,0,0,0,0.38464284,-0.35000655,-0.37400883,0,0,0,0
1,133.76,13376,-0.07092962,-0.8929401,0.43183821,45.55989456,16.38924408,39.63372803,0,0,0,97.88548279,4.6871171,129.4236908,1,0,0,0,0.15533197,-0.09445642,-0.29799038,0,0,0,0
1,133.77,13377,-0.03437359,-1.07082629,0.17617321,28.15044975,37.0711441,33.51095963,0,0,0,98.19210052,4.30336285,129.74481201,1,0,0,0,0.11181344,0.08375888,-0.03583184,0,0,0,0
1,133.78,13378,-0.07073433,-1.10055685,0.11751233,26.29884911,31.97432327,27.69881058,0,0,0,98.4751358,3.98301244,130.02178955,1,0,0,0,0.14225832,0.113728,0.02756974,0,0,0,0
1,133.79,13379,0.06280146,-1.09509349,0.13715963,33.2957077,17.7330761,26.86780739,0,0,0,98.81719971,3.6908226,130.15705872,1,0,0,0,0.00341628,0.10873415,0.01352447,0,0,0,0
1,133.8,13380,0.08613711,-1.02080441,0.19735409,34.9563446,2.27058172,25.16025925,0,0,0,99.17256165,3.43924618,130.13905334,1,0,0,0,-0.0245399,0.03509888,-0.04055529,0,0,0,0
1,133.81,13381,0.01908785,-0.95139664,0.23047446,33.2427597,-6.56648636,24.63957024,0,0,0,99.49891663,3.20678544,130.03413391,1,0,0,0,0.03834801,-0.03360471,-0.06777957,0,0,0,0
1,133.82,13382,-0.00530063,-0.95821112,0.18617049,31.09954834,-9.20051479,23.19981766,0,0,0,99.80289459,2.99350762,129.90434265,1,0,0,0,0.05889313,-0.02610332,-0.01809418,0,0,0,0
1,133.83,13383,-0.00169779,-1.02933288,0.12603603,31.49845695,-11.45047474,21.83847427,0,0,0,100.11026001,2.79821062,129.75361633,1,0,0,0,0.0517773,0.04574092,0.04727308,0,0,0,0
1,133.84,13384,0.00540344,-1.06265378,0.11341719,33.90693283,-13.5092144,21.74972343,0,0,0,100.44123077,2.60829878,129.58171082,1,0,0,0,0.04133357,0.07989442,0.06545728,0,0,0,0
1,133.85,13385,0.01940507,-1.0235374,0.12462592,35.98493195,-12.04783154,20.37658501,0,0,0,100.78699493,2.42803121,129.42678833,1,0,0,0,0.02415373,0.04172614,0.06015958,0,0,0,0
1,133.86,13386,0.01944648,-0.96068925,0.16929476,38.18647003,-12.50246716,18.92684937,0,0,0,101.16234589,2.26601481,129.2678833,1,0,0,0,0.02114702,-0.02005665,0.0217174,0,0,0,0
1,133.87,13387,-0.01199302,-0.93540263,0.22046675,37.67939377,-9.92627716,18.24596024,0,0,0,101.53404999,2.10663414,129.134552,1,0,0,0,0.04979184,-0.04418202,-0.0230299,0,0,0,0
1,133.88,13388,-0.01834113,-0.95690715,0.25189087,36.82509995,-2.95066118,17.48119926,0,0,0,101.90001678,1.94142985,129.07009888,1,0,0,0,0.0533208,-0.02148591,-0.04812727,0,0,0,0
1,133.89,13389,-0.01378633,-0.98538727,0.25821799,34.89144897,2.68187404,17.06379318,0,0,0,102.24861145,1.76892841,129.06062317,1,0,0,0,0.04580111,0.00817822,-0.04837536,0,0,0,0
1,133.9,13390,0.00534785,-1.00344801,0.25018433,33.66644287,6.09486055,17.38151169,0,0,0,102.58974457,1.5845809,129.08198547,1,0,0,0,0.02352443,0.02741337,-0.03450118,0,0,0,0
1,133.91,13391,0.03225763,-1.00034404,0.25695264,33.47921371,7.32484007,17.76578522,0,0,0,102.92537689,1.39513445,129.11421204,1,0,0,0,-0.00665954,0.02551459,-0.03548365,0,0,0,0
1,133.92,13392,0.06869552,-0.9782328,0.26966453,32.34163666,7.75409651,18.9222126,0,0,0,103.24952698,1.19327962,129.1468811,1,0,0,0,-0.04652246,0.00461413,-0.04257066,0,0,0,0
1,133.93,13393,0.11105872,-0.95636725,0.28535727,30.51635361,8.320961,20.80615044,0,0,0,103.55531311,0.97160202,129.17959595,1,0,0,0,-0.09262344,-0.01607202,-0.05293847,0,0,0,0
1,133.94,13394,0.08512878,-0.96070933,0.30689049,28.62677383,4.41117096,22.28811264,0,0,0,103.84144592,0.74464154,129.16967773,1,0,0,0,-0.07063995,-0.01058511,-0.06945826,0,0,0,0
1,133.95,13395,0.02548572,-0.97491616,0.32302549,26.01491165,1.9958868,23.84902763,0,0,0,104.11366272,0.50892764,129.12884521,1,0,0,0,-0.01504837,0.00471455,-0.08095729,0,0,0,0
1,133.96,13396,-0.00124558,-0.97864026,0.31974715,23.13037491,4.13422108,25.20448112,0,0,0,104.34480286,0.25444427,129.10694885,1,0,0,0,0.00736889,0.00947312,-0.07342475,0,0,0,0
1,133.97,13397,-0.01494913,-0.98096913,0.29343075,20.89174843,6.80820465,25.14091301,0,0,0,104.55373383,-0.00599008,129.11013794,1,0,0,0,0.01656568,0.01272568,-0.04343211,0,0,0,0
1,133.98,13398,-0.0300381,-0.96788496,0.2716459,19.34455681,8.51735592,25.09250259,0,0,0,104.74712372,-0.27030581,129.12908936,1,0,0,0,0.02705494,0.00051318,-0.01830725,0,0,0,0
1,133.99,13399,-0.03035997,-0.96556097,0.24445264,19.06731224,9.51194668,25.10762215,0,0,0,104.93758392,-0.53737146,129.15672302,1,0,0,0,0.02273134,-0.0009356,0.01210841,0,0,0,0
1,134,13400,-0.02996444,-0.97376204,0.24295019,19.02404594,9.11551857,25.52345848,0,0,0,105.12467194,-0.80956686,129.17913818,1,0,0,0,0.01763598,0.00816076,0.01677987,0,0,0,0
1,134.01,13401,-0.01070359,-0.9815008,0.25174478,18.25329399,8.43062401,26.53977013,0,0,0,105.30700684,-1.08778,129.19082642,1,0,0,0,-0.00644842,0.0168115,0.0110814,0,0,0,0
1,134.02,13402,-0.00389742,-0.96488971,0.27819803,17.05885887,4.86462641,26.98482132,0,0,0,105.47814941,-1.36084044,129.16610718,1,0,0,0,-0.01808858,0.00109126,-0.01247884,0,0,0,0
1,134.03,13403,-0.04545353,-0.95532757,0.29283628,17.24150658,0.00810727,26.71534538,0,0,0,105.65241241,-1.61822248,129.09446716,1,0,0,0,0.01889506,-0.00755122,-0.02421637,0,0,0,0
1,134.04,13404,-0.07038979,-0.94668269,0.2726399,16.00371742,0.21141678,26.40040779,0,0,0,105.81456757,-1.87290895,129.02487183,1,0,0,0,0.03937301,-0.01528515,-0.00124754,0,0,0,0
1,134.05,13405,-0.07887496,-0.94712681,0.26245308,15.96045303,-0.38754812,26.49886703,0,0,0,105.97330475,-2.13477492,128.94908142,1,0,0,0,0.04338809,-0.01393571,0.01158593,0,0,0,0
1,134.06,13406,-0.07500304,-0.95702201,0.24900317,15.73703384,-1.18739247,26.29968452,0,0,0,106.13398743,-2.38423371,128.86488342,1,0,0,0,0.03502448,-0.00311077,0.02766409,0,0,0,0
1,134.07,13407,-0.07636151,-0.95773017,0.2513873,15.25474739,-2.76918125,25.8494606,0,0,0,106.29086304,-2.6247139,128.76602173,1,0,0,0,0.03212605,-0.00146617,0.02786814,0,0,0,0
1,134.08,13408,-0.07815761,-0.95659363,0.25772971,15.61102104,-4.97601032,25.50409889,0,0,0,106.45271301,-2.85538101,128.64625549,1,0,0,0,0.02984009,-0.00163747,0.02415124,0,0,0,0
1,134.09,13409,-0.07489932,-0.95143414,0.26902893,15.36792755,-7.67259979,25.14279747,0,0,0,106.61392212,-3.0745728,128.50097656,1,0,0,0,0.0226748,-0.00581163,0.01549067,0,0,0,0
1,134.1,13410,-0.08594285,-0.94586813,0.29062793,14.96274185,-10.58705235,24.44842911,0,0,0,106.77545929,-3.28505349,128.32817078,1,0,0,0,0.03003157,-0.01038314,-0.00347697,0,0,0,0
1,134.11,13411,-0.10715403,-0.94288814,0.30377465,14.46908569,-12.14391804,23.08868408,0,0,0,106.93095398,-3.47081971,128.14468384,1,0,0,0,0.04780877,-0.01237693,-0.01404117,0,0,0,0
1,134.12,13412,-0.12272283,-0.94308716,0.31198671,13.85877419,-11.1183691,21.86580276,0,0,0,107.08013153,-3.64740562,127.97407532,1,0,0,0,0.06024697,-0.01122186,-0.01977118,0,0,0,0
1,134.13,13413,-0.12874797,-0.94385833,0.31911048,13.31444836,-9.0833807,20.51402092,0,0,0,107.22288513,-3.81664228,127.82647705,1,0,0,0,0.0632907,-0.00952446,-0.02453363,0,0,0,0
1,134.14,13414,-0.12403687,-0.94574142,0.32817858,12.65788555,-7.35611057,19.28248405,0,0,0,107.3581543,-3.97889638,127.69862366,1,0,0,0,0.05569783,-0.00674471,-0.03136404,0,0,0,0
1,134.15,13415,-0.1159196,-0.95285952,0.32917529,11.93613815,-5.14745283,17.82992744,0,0,0,107.49020386,-4.14283323,127.59397125,1,0,0,0,0.04480234,0.00124104,-0.03023794,0,0,0,0
1,134.16,13416,-0.11388061,-0.95680863,0.32073906,11.27089119,-4.00432062,16.92409134,0,0,0,107.60948181,-4.29211521,127.50452423,1,0,0,0,0.03999623,0.00604162,-0.01977,0,0,0,0
1,134.17,13417,-0.11999043,-0.9585613,0.29869631,11.07712841,-2.54115152,16.03375816,0,0,0,107.72581482,-4.43717575,127.43145752,1,0,0,0,0.04356749,0.00859396,0.00415802,0,0,0,0
1,134.18,13418,-0.11342178,-0.95041728,0.28483307,10.86393642,-1.19763768,15.15974998,0,0,0,107.83901215,-4.57786989,127.37358093,1,0,0,0,0.03451654,0.00123891,0.01985311,0,0,0,0
1,134.19,13419,-0.10052686,-0.93784434,0.29575002,11.11950874,-1.24660456,14.57857132,0,0,0,107.9548111,-4.71276045,127.31673431,1,0,0,0,0.01924271,-0.01054153,0.01077286,0,0,0,0
1,134.2,13420,-0.09352666,-0.92804694,0.31418121,11.28594398,-2.66536713,14.29732037,0,0,0,108.07957458,-4.84530735,127.24494934,1,0,0,0,0.00994473,-0.01951735,-0.00574119,0,0,0,0
1,134.21,13421,-0.11005339,-0.93425041,0.32818782,11.06382656,-3.4130342,13.99374008,0,0,0,108.1967392,-4.96765661,127.16867065,1,0,0,0,0.02425963,-0.01247135,-0.01777405,0,0,0,0
1,134.22,13422,-0.12365624,-0.94726318,0.32590634,10.54682446,-1.59123051,13.5490675,0,0,0,108.30725861,-5.09135199,127.11090088,1,0,0,0,0.03572696,0.00133303,-0.01368213,0,0,0,0
1,134.23,13423,-0.13312933,-0.95083708,0.31671619,10.73410416,0.58055311,13.34489059,0,0,0,108.41790009,-5.21983671,127.07422638,1,0,0,0,0.04299652,0.00569105,-0.00275081,0,0,0,0
1,134.24,13424,-0.12809604,-0.94820344,0.30938366,11.221035,3.75899291,13.06141758,0,0,0,108.53064728,-5.35563707,127.06847382,1,0,0,0,0.03565388,0.00387725,0.00637209,0,0,0,0
1,134.25,13425,-0.10116611,-0.94304591,0.30709291,11.17484188,6.1869483,13.17810249,0,0,0,108.63809204,-5.49940872,127.08605194,1,0,0,0,0.00627139,-0.0004482,0.01041788,0,0,0,0
1,134.26,13426,-0.08092746,-0.94586819,0.31453037,11.17124844,6.35146379,13.9500494,0,0,0,108.74829102,-5.65190744,127.10158539,1,0,0,0,-0.01655279,0.00320861,0.00467142,0,0,0,0
1,134.27,13427,-0.06263512,-0.94194812,0.32750526,10.59213638,5.43760586,15.52128601,0,0,0,108.85407257,-5.81635427,127.10305786,1,0,0,0,-0.03760917,0.00014944,-0.00662287,0,0,0,0
1,134.28,13428,-0.06065158,-0.94621485,0.34283876,9.78738499,2.51831007,17.894104,0,0,0,108.95549011,-5.99379492,127.06873322,1,0,0,0,-0.04260267,0.0052847,-0.02036694,0,0,0,0
1,134.29,13429,-0.08010381,-0.95537126,0.34573939,9.27134991,0.88427591,19.61357307,0,0,0,109.05413818,-6.18210936,127.01291656,1,0,0,0,-0.02633553,0.01532128,-0.02173997,0,0,0,0
1,134.3,13430,-0.10138878,-0.96017528,0.32405594,8.88995171,1.49169469,21.04283142,0,0,0,109.14505005,-6.38343811,126.95920563,1,0,0,0,-0.00847935,0.02101748,0.00138269,0,0,0,0
1,134.31,13431,-0.12002682,-0.95444202,0.31819519,8.32442665,1.48846078,22.0996685,0,0,0,109.23495483,-6.59704828,126.90024567,1,0,0,0,0.00654245,0.01617759,0.00857688,0,0,0,0
1,134.32,13432,-0.1229647,-0.94580531,0.32340151,7.86411572,2.49812841,22.57217979,0,0,0,109.31958008,-6.81836748,126.84895325,1,0,0,0,0.00568634,0.00845097,0.00463991,0,0,0,0
1,134.33,13433,-0.11668863,-0.9426071,0.33543339,7.26382637,2.59799218,23.61315727,0,0,0,109.39875793,-7.04975796,126.7947998,1,0,0,0,-0.00453207,0.00616141,-0.00623206,0,0,0,0
1,134.34,13434,-0.11788996,-0.94603574,0.34880412,6.40411377,1.99963892,24.61407471,0,0,0,109.47074127,-7.28852129,126.73126984,1,0,0,0,-0.0074125,0.01050414,-0.01853406,0,0,0,0
1,134.35,13435,-0.12572025,-0.95146948,0.3545889,4.97327662,1.95302474,25.76848412,0,0,0,109.53325653,-7.53670645,126.66175079,1,0,0,0,-0.00382593,0.01682305,-0.02345093,0,0,0,0
1,134.36,13436,-0.13302042,-0.95082992,0.35776442,3.93576837,1.39287591,26.50954628,0,0,0,109.58277893,-7.79116726,126.58544159,1,0,0,0,-0.00088741,0.01705556,-0.02590231,0,0,0,0
1,134.37,13437,-0.14614761,-0.94665903,0.35500106,2.71114874,1.72529507,27.0884285,0,0,0,109.6202774,-8.05214405,126.51010895,1,0,0,0,0.00777898,0.01370429,-0.02266391,0,0,0,0
1,134.38,13438,-0.15518224,-0.95189345,0.3386369,0.98679167,4.24976873,27.90925789,0,0,0,109.63787079,-8.32929039,126.45581818,1,0,0,0,0.01213617,0.01971325,-0.00610701,0,0,0,0
1,134.39,13439,-0.16399175,-0.95187753,0.34848529,-0.11373913,5.93349504,28.31005669,0,0,0,109.64257812,-8.61586666,126.41612244,1,0,0,0,0.01606087,0.02042395,-0.01605679,0,0,0,0
1,134.4,13440,-0.15455195,-0.95892084,0.35233349,-1.57910657,9.07128239,29.09994888,0,0,0,109.63034821,-8.91821957,126.40306091,1,0,0,0,0.00150011,0.02817202,-0.02024964,0,0,0,0
1,134.41,13441,-0.14140159,-0.9582383,0.349051,-3.83932137,10.33570194,29.91248512,0,0,0,109.59243011,-9.23468494,126.39998627,1,0,0,0,-0.01700839,0.02812158,-0.0177102,0,0,0,0
1,134.42,13442,-0.12665923,-0.96377653,0.36032769,-6.48950052,11.18472481,31.77484322,0,0,0,109.5276947,-9.57154655,126.39896393,1,0,0,0,-0.03741957,0.03423138,-0.03014426,0,0,0,0
1,134.43,13443,-0.11739745,-0.95686954,0.35887054,-10.94852734,10.89392853,33.06843567,0,0,0,109.41951752,-9.91963959,126.39131165,1,0,0,0,-0.05261888,0.0277364,-0.03053739,0,0,0,0
1,134.44,13444,-0.13746202,-0.955751,0.37507516,-12.70066166,8.58292103,35.4250145,0,0,0,109.29901123,-10.28231907,126.35427094,1,0,0,0,-0.03867632,0.02696611,-0.04899186,0,0,0,0
1,134.45,13445,-0.16460025,-0.95435303,0.35763356,-14.5160656,8.51549435,37.47634125,0,0,0,109.16400146,-10.66180992,126.3097229,1,0,0,0,-0.01797125,0.02593151,-0.03406414,0,0,0,0
1,134.46,13446,-0.18583798,-0.96051836,0.33998829,-14.35018444,9.56485939,38.57163239,0,0,0,109.02735138,-11.05759811,126.27327728,1,0,0,0,-0.00338182,0.03252494,-0.01902116,0,0,0,0
1,134.47,13447,-0.19511768,-0.9657675,0.32558417,-14.16499519,10.86875343,39.87967682,0,0,0,108.8910141,-11.47007942,126.24597168,1,0,0,0,-0.00106972,0.03830366,-0.00728109,0,0,0,0
1,134.48,13448,-0.18045218,-0.97492838,0.32673743,-14.05423546,12.05235672,41.34470367,0,0,0,108.75444794,-11.90030193,126.22624207,1,0,0,0,-0.02296952,0.04811385,-0.0110959,0,0,0,0
1,134.49,13449,-0.18301117,-0.98063785,0.31390557,-14.52458477,11.23956585,42.96829987,0,0,0,108.61591339,-12.34335423,126.19435883,1,0,0,0,-0.02790596,0.05455269,-0.00105543,0,0,0,0
1,134.5,13450,-0.20367976,-0.99098253,0.30479118,-13.42117882,9.40270329,44.49055862,0,0,0,108.4901886,-12.79227352,126.14208221,1,0,0,0,-0.01488219,0.06579493,0.00545605,0,0,0,0
1,134.51,13451,-0.22196345,-0.98904943,0.29704729,-13.21356869,7.91755104,45.94044113,0,0,0,108.37429047,-13.25314426,126.07010651,1,0,0,0,-0.00433804,0.06487879,0.01067189,0,0,0,0
1,134.52,13452,-0.22327557,-0.99595416,0.28819513,-12.44054604,7.17811298,47.51468658,0,0,0,108.26937866,-13.72676086,125.98655701,1,0,0,0,-0.01098793,0.07300577,0.01722457,0,0,0,0
1,134.53,13453,-0.22598509,-0.99919826,0.28793234,-13.46730995,6.32225943,48.82960129,0,0,0,108.15775299,-14.21035099,125.89116669,1,0,0,0,-0.01640679,0.07755479,0.0150755,0,0,0,0
1,134.54,13454,-0.21242836,-1.01922834,0.28940779,-14.04164028,6.03854227,50.70569229,0,0,0,108.04315948,-14.71107864,125.78774261,1,0,0,0,-0.03832338,0.09901339,0.01112774,0,0,0,0
1,134.55,13455,-0.2054411,-1.06055248,0.30055851,-16.09107208,4.46671009,52.96963501,0,0,0,107.91111755,-15.22015953,125.66430664,1,0,0,0,-0.0538991,0.14184868,-0.0027003,0,0,0,0
1,134.56,13456,-0.19399133,-1.12641346,0.35612857,-19.58978271,2.59476209,56.05274582,0,0,0,107.75597382,-15.76168823,125.51176453,1,0,0,0,-0.07420602,0.20926382,-0.06134196,0,0,0,0
1,134.57,13457,-0.18513714,-1.15361214,0.40152526,-22.62024307,1.87066245,58.33869171,0,0,0,107.57555389,-16.32323456,125.34611511,1,0,0,0,-0.09234367,0.23807791,-0.11033312,0,0,0,0
1,134.58,13458,-0.19537911,-1.14797771,0.35322174,-21.48070526,4.29604483,61.38068771,0,0,0,107.40355682,-16.92157936,125.19638824,1,0,0,0,-0.09189328,0.23429994,-0.06571817,0,0,0,0
1,134.59,13459,-0.22384132,-1.16359282,0.28424659,-21.36094284,6.89116955,63.77220535,0,0,0,107.22838593,-17.55090523,125.06652832,1,0,0,0,-0.07373337,0.25206864,-0.00041115,0,0,0,0
1,134.6,13460,-0.18968076,-1.2068615,0.2636098,-24.14676476,10.62541199,66.38771057,0,0,0,107.01265717,-18.2055645,124.97040558,1,0,0,0,-0.11869991,0.29764956,0.01607503,0,0,0,0
1,134.61,13461,-0.16695939,-1.25327551,0.29541439,-26.10897255,11.11309242,69.70730591,0,0,0,106.78388977,-18.90484047,124.86883545,1,0,0,0,-0.15266021,0.34651619,-0.02042731,0,0,0,0
1,134.62,13462,-0.16031367,-1.29565477,0.3275438,-27.37669754,13.58090782,74.65168762,0,0,0,106.53943634,-19.6589489,124.77993774,1,0,0,0,-0.1713807,0.39174533,-0.05752197,0,0,0,0
1,134.63,13463,-0.14010796,-1.30633557,0.32729161,-28.04624176,16.21640778,79.27573395,0,0,0,106.28395081,-20.4652195,124.70709991,1,0,0,0,-0.20450905,0.40570235,-0.062562,0,0,0,0
1,134.64,13464,-0.12932153,-1.31309068,0.31153828,-29.05442047,19.21380997,83.9781723,0,0,0,106.01206207,-21.32529449,124.65465546,1,0,0,0,-0.22901569,0.41620052,-0.05237973,0,0,0,0
1,134.65,13465,-0.11658599,-1.3084265,0.30732134,-31.02450943,23.26262283,88.86229706,0,0,0,105.70733643,-22.23089409,124.63559723,1,0,0,0,-0.25625917,0.41570306,-0.05431953,0,0,0,0
1,134.66,13466,-0.08251867,-1.31993353,0.28344166,-30.68943977,29.08299255,93.84408569,0,0,0,105.38839722,-23.21294403,124.66666412,1,0,0,0,-0.30562913,0.43191117,-0.03700255,0,0,0,0
1,134.67,13467,-0.06841218,-1.33433747,0.26787806,-31.44229317,32.50371552,98.74088287,0,0,0,105.04997253,-24.25102043,124.72614288,1,0,0,0,-0.33603072,0.45169604,-0.02841676,0,0,0,0
1,134.68,13468,-0.04483561,-1.35228372,0.23069015,-31.41830635,39.30473709,103.4055481,0,0,0,104.68276215,-25.35128212,124.85237885,1,0,0,0,-0.37673259,0.47568876,0.0013217,0,0,0,0
1,134.69,13469,0.01477658,-1.36247969,0.15551996,-32.86362839,42.67173767,109.41265106,0,0,0,104.28630066,-26.51737022,125.00750732,1,0,0,0,-0.45431948,0.49263665,0.06839812,0,0,0,0
1,134.7,13470,0.00453379,-1.39446282,0.12183118,-33.19194794,42.0990181,116.84706116,0,0,0,103.8852005,-27.73845482,125.1506958,1,0,0,0,-0.46287495,0.53226537,0.09380724,0,0,0,0
1,134.71,13471,0.01751342,-1.39683878,0.08808709,-36.12551117,38.15683746,123.39865875,0,0,0,103.48152161,-29.02772331,125.24033356,1,0,0,0,-0.49529588,0.5431183,0.11889692,0,0,0,0
1,134.72,13472,-0.03321325,-1.41031456,0.10938703,-37.39784622,31.08918762,129.49064636,0,0,0,103.1049881,-30.35946274,125.24581146,1,0,0,0,-0.46458474,0.56612265,0.08933904,0,0,0,0
1,134.73,13473,-0.11917379,-1.38923872,0.17741692,-40.24811172,17.81067467,137.80354309,0,0,0,102.78413391,-31.74246407,125.08811188,1,0,0,0,-0.39914387,0.55565172,0.01345422,0,0,0,0
1,134.74,13474,-0.14263792,-1.37609637,0.2507326,-45.24930573,7.30840969,143.97065735,0,0,0,102.48683167,-33.16342163,124.7995224,1,0,0,0,-0.39656103,0.55418533,-0.06721851,0,0,0,0
1,134.75,13475,-0.14596778,-1.3345418,0.31583443,-40.39022064,-5.65411615,152.21044922,0,0,0,102.34078217,-34.62400055,124.33876038,1,0,0,0,-0.41447914,0.52566147,-0.13817918,0,0,0,0
1,134.76,13476,-0.20025395,-1.32825804,0.30859599,-44.95545959,-21.98817635,153.82366943,0,0,0,102.27642822,-36.08005142,123.67330933,1,0,0,0,-0.38088071,0.53314936,-0.13529333,0,0,0,0
1,134.77,13477,-0.22891462,-1.32073557,0.2995083,-48.41627121,-31.56080818,157.42800903,0,0,0,102.27378845,-37.55126953,122.86994171,1,0,0,0,-0.37285948,0.54035187,-0.12975025,0,0,0,0
1,134.78,13478,-0.17867625,-1.30504119,0.29788265,-52.78446579,-39.07686234,157.56787109,0,0,0,102.31237793,-39.00766373,121.9560318,1,0,0,0,-0.44334692,0.54002684,-0.13117868,0,0,0,0
1,134.79,13479,-0.05243495,-1.27611518,0.28734559,-55.96341324,-44.91874313,152.46311951,0,0,0,102.38820648,-40.40100479,120.96172333,1,0,0,0,-0.58878654,0.52655649,-0.12317858,0,0,0,0
1,134.8,13480,-0.04773659,-1.23097348,0.28192842,-54.43412781,-57.07656479,146.40388489,0,0,0,102.60565186,-41.68769455,119.80265045,1,0,0,0,-0.61119372,0.49665946,-0.11897288,0,0,0,0
1,134.81,13481,-0.15712541,-1.15685284,0.2784175,-54.17690659,-65.57633972,140.05329895,0,0,0,102.92763519,-42.90879822,118.51950836,1,0,0,0,-0.51791406,0.43742806,-0.11497433,0,0,0,0
1,134.82,13482,-0.10614697,-1.04356062,0.36794826,-54.12249374,-52.00162125,130.3956604,0,0,0,103.14559174,-44.06158447,117.41570282,1,0,0,0,-0.58391207,0.33863235,-0.20404923,0,0,0,0
1,134.83,13483,0.08614439,-0.89210993,0.31742838,-64.13009644,-24.14199257,112.00000763,0,0,0,102.98566437,-45.09774399,116.72962952,1,0,0,0,-0.78978229,0.19998099,-0.15672293,0,0,0,0
1,134.84,13484,0.17564838,-0.68678141,0.23428833,-76.07758331,-29.83293724,99.54975128,0,0,0,102.74793243,-46.00201035,115.99746704,1,0,0,0,-0.89101636,0.0054712,-0.07922152,0,0,0,0
1,134.85,13485,0.03042063,-0.71846056,0.30420876,-67.7689209,-46.73065186,89.74679565,0,0,0,102.76793671,-46.74039841,115.03977966,1,0,0,0,-0.75560981,0.0468848,-0.15230606,0,0,0,0
1,134.86,13486,0.12018029,-0.84703815,0.33806983,-66.64874268,-34.32513809,67.44541931,0,0,0,102.6205368,-47.32263184,114.33044434,1,0,0,0,-0.85302299,0.18331049,-0.18840484,0,0,0,0
1,134.87,13487,0.27916056,-0.68839777,0.3308962,-82.05267334,-25.29560661,39.44428635,0,0,0,102.16214752,-47.65346909,113.83921814,1,0,0,0,-1.01697302,0.02900501,-0.18657282,0,0,0,0
1,134.88,13488,0.28354406,-0.59008449,0.29882586,-85.48653412,-23.89734459,17.78634834,0,0,0,101.60506439,-47.77827835,113.43682098,1,0,0,0,-1.02373266,-0.0680573,-0.16110697,0,0,0,0
1,134.89,13489,0.23109016,-0.54414946,0.26699769,-90.75587463,-26.81902504,-0.47021997,0,0,0,100.98628235,-47.7211113,113.04676056,1,0,0,0,-0.97136748,-0.11529423,-0.13615808,0,0,0,0
1,134.9,13490,0.17547798,-0.52516031,0.26118615,-93.60003662,-30.23152924,-16.17238235,0,0,0,100.35935211,-47.47281647,112.63601685,1,0,0,0,-0.91383046,-0.13776514,-0.13725269,0,0,0,0
1,134.91,13491,0.12839791,-0.51308227,0.28884372,-96.70593262,-34.9694519,-32.5694313,0,0,0,99.70404816,-47.09119797,112.21176147,1,0,0,0,-0.86268628,-0.1555372,-0.17154074,0,0,0,0
1,134.92,13492,0.10174225,-0.49074557,0.33183336,-99.5949173,-38.57307053,-49.88322067,0,0,0,99.02740479,-46.53623581,111.77394867,1,0,0,0,-0.83020866,-0.18535531,-0.22132868,0,0,0,0
1,134.93,13493,0.08683423,-0.47216186,0.37152031,-102.2000885,-39.57614517,-67.65979767,0,0,0,98.30708313,-45.80768204,111.35588837,1,0,0,0,-0.80731499,-0.21353662,-0.26805249,0,0,0,0
1,134.94,13494,0.07477684,-0.46668589,0.39458752,-104.83718109,-39.39255142,-84.1620636,0,0,0,97.53658295,-44.91979218,110.9654541,1,0,0,0,-0.78509748,-0.23061687,-0.29873878,0,0,0,0
1,134.95,13495,0.06029725,-0.48955914,0.40577421,-106.07847595,-41.45620346,-105.55516052,0,0,0,96.77103424,-43.80277634,110.5559845,1,0,0,0,-0.75798029,-0.22140686,-0.31786662,0,0,0,0
1,134.96,13496,0.04132592,-0.52962309,0.43459007,-105.17936707,-45.93728638,-122.73317719,0,0,0,96.01944733,-42.53199768,110.11714935,1,0,0,0,-0.72358394,-0.19704863,-0.35443002,0,0,0,0
1,134.97,13497,0.04171435,-0.56925154,0.48212779,-102.00045776,-51.71950531,-138.43197632,0,0,0,95.33755493,-41.10338211,109.61000824,1,0,0,0,-0.70627612,-0.17439623,-0.40939665,0,0,0,0
1,134.98,13498,0.03781821,-0.60492897,0.52875477,-97.6662674,-55.99056625,-152.20222473,0,0,0,94.7212677,-39.5381813,109.05313873,1,0,0,0,-0.68240047,-0.15671462,-0.46281585,0,0,0,0
1,134.99,13499,0.01757528,-0.65388775,0.55422449,-93.80504608,-57.26613998,-165.72137451,0,0,0,94.13817596,-37.8417244,108.48538208,1,0,0,0,-0.63989663,-0.12656775,-0.49480522,0,0,0,0
1,135,13500,-0.00368926,-0.69278812,0.57446378,-89.68086243,-59.82324219,-177.66642761,0,0,0,93.6204834,-36.01578522,107.87342072,1,0,0,0,-0.59410155,-0.10704841,-0.52133268,0,0,0,0
1,135.01,13501,-0.02323633,-0.72137445,0.59676909,-82.47480774,-64.37426758,-188.06277466,0,0,0,93.16867828,-34.10046387,107.22403717,1,0,0,0,-0.54783243,-0.09808697,-0.54910386,0,0,0,0
1,135.02,13502,-0.03991147,-0.76189595,0.62135988,-74.39529419,-68.87689972,-197.139328,0,0,0,92.80622101,-32.09595108,106.52531433,1,0,0,0,-0.50256133,-0.07701676,-0.57834768,0,0,0,0
1,135.03,13503,-0.04989251,-0.8055256,0.65765172,-66.24680328,-74.9412384,-205.65765381,0,0,0,92.53677368,-30.00685501,105.76300812,1,0,0,0,-0.46204931,-0.05253027,-0.61828214,0,0,0,0
1,135.04,13504,-0.08486729,-0.87785792,0.69237584,-53.67495728,-84.50854492,-213.74642944,0,0,0,92.4154892,-27.83504677,104.90353394,1,0,0,0,-0.39464664,0.00119062,-0.65485924,0,0,0,0
1,135.05,13505,-0.12158991,-0.96298933,0.72128677,-41.49630737,-91.65036774,-221.01435852,0,0,0,92.42961884,-25.58218193,103.97361755,1,0,0,0,-0.32356817,0.06839864,-0.68360788,0,0,0,0
1,135.06,13506,-0.17804451,-1.04058301,0.7213369,-32.03889084,-91.98178101,-227.50370789,0,0,0,92.4825592,-23.26987267,103.07117462,1,0,0,0,-0.23091626,0.12894264,-0.6821605,0,0,0,0
1,135.07,13507,-0.21783961,-1.08190739,0.70425373,-24.95185852,-89.81817627,-230.94232178,0,0,0,92.55621338,-20.92326546,102.21209717,1,0,0,0,-0.15357576,0.15441313,-0.66334343,0,0,0,0
1,135.08,13508,-0.24117038,-1.11263669,0.69640112,-15.75002289,-92.10613251,-232.27183533,0,0,0,92.69085693,-18.5609169,101.34720612,1,0,0,0,-0.09175944,0.17075278,-0.65305328,0,0,0,0
1,135.09,13509,-0.26047945,-1.16775525,0.70205903,-5.33813572,-97.11131287,-233.26322937,0,0,0,92.90516663,-16.18378448,100.44987488,1,0,0,0,-0.03313702,0.21305752,-0.65508997,0,0,0,0
1,135.1,13510,-0.29334342,-1.26332486,0.70030218,7.72098589,-104.76732635,-233.37335205,0,0,0,93.23716736,-13.7973175,99.49278259,1,0,0,0,0.03972562,0.2975103,-0.64793646,0,0,0,0
1,135.11,13511,-0.39507714,-1.34686601,0.68716872,17.06406593,-103.98365021,-232.0610199,0,0,0,93.60913086,-11.41882229,98.57099152,1,0,0,0,0.1819011,0.37171194,-0.62806797,0,0,0,0
1,135.12,13512,-0.47350067,-1.34233212,0.65546644,23.59490204,-92.93750763,-229.56085205,0,0,0,93.98561096,-9.06677246,97.78304291,1,0,0,0,0.30078202,0.35964683,-0.58941126,0,0,0,0
1,135.13,13513,-0.49314603,-1.30105448,0.63164192,26.69986153,-79.28878021,-227.37306213,0,0,0,94.33996582,-6.74154997,97.15129089,1,0,0,0,0.36069947,0.31260425,-0.55889153,0,0,0,0
1,135.14,13514,-0.45424595,-1.25377393,0.61878842,31.56011772,-68.73251343,-223.5982666,0,0,0,94.70571136,-4.45840645,96.6397934,1,0,0,0,0.36168849,0.2612893,-0.53953654,0,0,0,0
1,135.15,13515,-0.39595988,-1.24237514,0.59308231,38.44316864,-65.79003906,-219.81552124,0,0,0,95.12470245,-2.21718264,96.17060852,1,0,0,0,0.3427054,0.24759576,-0.50674176,0,0,0,0
1,135.16,13516,-0.35589209,-1.25988424,0.5437333,45.82628632,-70.01519012,-216.40335083,0,0,0,95.59234619,0.0027594,95.67531586,1,0,0,0,0.34142882,0.26450825,-0.44942063,0,0,0,0
1,135.17,13517,-0.34790102,-1.30809128,0.50109756,53.82796097,-79.13039398,-213.86138916,0,0,0,96.11938477,2.21095419,95.1060257,1,0,0,0,0.37204266,0.31377044,-0.39804137,0,0,0,0
1,135.18,13518,-0.37994909,-1.37362266,0.4398506,60.08319092,-89.71821594,-211.03543091,0,0,0,96.68191528,4.40823317,94.44849396,1,0,0,0,0.44249484,0.38199824,-0.32739303,0,0,0,0
1,135.19,13519,-0.43493414,-1.39167726,0.39054665,62.6690979,-102.26625824,-206.61273193,0,0,0,97.23471069,6.5831213,93.68013763,1,0,0,0,0.53544992,0.40427962,-0.26879692,0,0,0,0
1,135.2,13520,-0.4637188,-1.38923192,0.37240177,64.30683899,-114.95423126,-200.69265747,0,0,0,97.76124573,8.71486473,92.79499054,1,0,0,0,0.60156381,0.40745446,-0.242024,0,0,0,0
1,135.21,13521,-0.52781868,-1.437482,0.29352298,67.06538391,-125.31877899,-191.78405762,0,0,0,98.26446533,10.78874111,91.80713654,1,0,0,0,0.7017287,0.46254942,-0.15512449,0,0,0,0
1,135.22,13522,-0.6283704,-1.52090752,0.16288438,57.48542023,-123.90180206,-184.0904541,0,0,0,98.63996887,12.79198265,90.83200836,1,0,0,0,0.83706772,0.5537529,-0.01810823,0,0,0,0
1,135.23,13523,-0.71260053,-1.50144494,0.15203124,45.80239487,-126.44007874,-175.35029602,0,0,0,98.8571701,14.71755981,89.82019043,1,0,0,0,0.95454907,0.54258323,-0.00385224,0,0,0,0
1,135.24,13524,-0.77768093,-1.46615076,0.26114142,40.95355988,-130.54486084,-165.48731995,0,0,0,98.97727203,16.5548954,88.74739075,1,0,0,0,1.05118036,0.51600021,-0.11170137,0,0,0,0
1,135.25,13525,-0.89589185,-1.42363822,0.45991066,38.59220886,-127.82145691,-153.07191467,0,0,0,99.04515076,18.25533295,87.67721558,1,0,0,0,1.19882464,0.48245025,-0.31047893,0,0,0,0
1,135.26,13526,-1.05572188,-1.36015785,0.57016146,37.49625778,-110.67531586,-136.79211426,0,0,0,99.1178894,19.78071022,86.7494812,1,0,0,0,1.38500142,0.42780182,-0.42105213,0,0,0,0
1,135.27,13527,-1.23187637,-1.31521428,0.56212795,37.71142197,-86.15653229,-116.22418976,0,0,0,99.24752045,21.06548691,86.03980255,1,0,0,0,1.58375466,0.39122263,-0.41251761,0,0,0,0
1,135.28,13528,-1.44211209,-1.22443449,0.46960965,32.89328766,-63.62698746,-86.99099731,0,0,0,99.38405609,22.02687645,85.5160141,1,0,0,0,1.81180072,0.30758366,-0.31896341,0,0,0,0
1,135.29,13529,-1.56041729,-1.16811395,0.41951123,29.51905441,-39.39528275,-50.45827484,0,0,0,99.55379486,22.58934593,85.18560791,1,0,0,0,1.94161475,0.2562744,-0.26709747,0,0,0,0
1,135.3,13530,-1.54733348,-1.11976933,0.40269554,22.60686874,-16.65374565,-17.50463676,0,0,0,99.72561646,22.77136612,85.04180908,1,0,0,0,1.93383491,0.2105666,-0.24788566,0,0,0,0
1,135.31,13531,-1.46064413,-1.03003883,0.3980602,13.73708344,1.3779763,12.53007412,0,0,0,99.85969543,22.64553261,85.03334808,1,0,0,0,1.84681702,0.12110586,-0.24086481,0,0,0,0
1,135.32,13532,-1.24448586,-1.16930413,0.42900696,15.36009407,14.43588829,37.77544022,0,0,0,100.04502869,22.24848747,85.11653137,1,0,0,0,1.62574244,0.25880155,-0.26893395,0,0,0,0
1,135.33,13533,-1.1243639,-1.03523111,0.34174567,-4.18937492,16.86713409,56.74997711,0,0,0,100.0303421,21.6602726,85.18903351,1,0,0,0,1.49741149,0.12161456,-0.18009461,0,0,0,0
1,135.34,13534,-1.04933584,-1.05780756,0.31725052,2.20377278,4.65917826,81.07911682,0,0,0,100.01542664,20.85376167,85.08670807,1,0,0,0,1.41050053,0.13957924,-0.15476894,0,0,0,0
1,135.35,13535,-0.42734322,-1.17553353,0.19981505,-9.39260769,16.39154243,104.96572876,0,0,0,99.91056824,19.78038025,85.06552887,1,0,0,0,0.77282387,0.25123191,-0.03770359,0,0,0,0
1,135.36,13536,1.91443872,-1.51335299,-0.24343045,-33.71728516,88.57652283,118.13639069,0,0,0,99.8048172,18.46479607,85.77464294,1,0,0,0,-1.58952093,0.5815798,0.40524846,0,0,0,0
1,135.37,13537,2.37578082,-1.62818861,-0.46332815,-41.03611755,-20.53761864,66.75200653,0,0,0,99.29376221,17.83935547,85.44470215,1,0,0,0,-2.06669641,0.69024301,0.62052578,0,0,0,0
1,135.38,13538,-0.37447387,-1.62600768,-0.11229461,0.47099429,-114.51361847,41.5121994,0,0,0,98.91523743,17.60950279,84.18889618,1,0,0,0,0.67905748,0.68522525,0.26113468,0,0,0,0
1,135.39,13539,-0.87332106,-1.71879768,0.42574883,26.7701931,-47.23967743,93.48343658,0,0,0,98.99247742,16.75969124,83.54753876,1,0,0,0,1.1674403,0.77475393,-0.27656621,0,0,0,0
1,135.4,13540,-0.46770912,-1.16617155,0.35297641,1.54991794,-10.23117542,107.45779419,0,0,0,98.93244171,15.67701244,83.27233124,1,0,0,0,0.74508476,0.21709463,-0.20368922,0,0,0,0
1,135.41,13541,-0.15794314,-1.09142303,0.02427154,15.94434929,-23.35469055,111.20418549,0,0,0,98.98307037,14.61496162,82.85398102,1,0,0,0,0.41694874,0.13737136,0.12631065,0,0,0,0
1,135.42,13542,-0.17239676,-1.12319791,-0.02425013,10.25666523,-31.6832962,115.97037506,0,0,0,98.9617157,13.51887703,82.34481812,1,0,0,0,0.41312146,0.16449109,0.17559096,0,0,0,0
1,135.43,13543,0.06424877,-1.13150299,0.12902153,17.52362061,-30.59713364,108.28211212,0,0,0,99.02835083,12.49713612,81.86115265,1,0,0,0,0.15850329,0.16862258,0.02335384,0,0,0,0
1,135.44,13544,0.14585282,-0.9202373,0.46243697,30.22140884,-44.11981964,96.57531738,0,0,0,99.20503235,11.61344624,81.25938416,1,0,0,0,0.06095157,-0.04573286,-0.30714715,0,0,0,0
1,135.45,13545,0.04342068,-0.70133394,0.44377145,31.89649582,-31.82664871,84.85282135,0,0,0,99.45090485,10.81283665,80.80174255,1,0,0,0,0.14934589,-0.26686937,-0.2843765,0,0,0,0
1,135.46,13546,-0.1899052,-0.81749874,0.15062882,27.3525753,-7.72765446,79.90779877,0,0,0,99.68583679,10.03769207,80.5891571,1,0,0,0,0.36922735,-0.15251093,0.01341097,0,0,0,0
1,135.47,13547,-0.33846924,-0.98076254,0.0769928,23.29361343,4.02416706,76.35121155,0,0,0,99.90328217,9.27841568,80.49756622,1,0,0,0,0.50455672,0.00912249,0.09128068,0,0,0,0
1,135.48,13548,-0.38707823,-1.08850253,0.14307268,18.06229591,17.71382713,73.56678009,0,0,0,100.09105682,8.52311516,80.54484558,1,0,0,0,0.54020727,0.11537561,0.02886037,0,0,0,0
1,135.49,13549,-0.2132308,-1.23541999,0.18313491,16.39265442,41.991436,72.36851501,0,0,0,100.29541016,7.73643827,80.83287811,1,0,0,0,0.35299963,0.26095629,-0.00743872,0,0,0,0
1,135.5,13550,0.04904573,-1.13961172,0.20529948,10.96874428,58.06167984,67.3921051,0,0,0,100.46495056,6.96715498,81.28651428,1,0,0,0,0.07712299,0.16390638,-0.02622984,0,0,0,0
1,135.51,13551,0.10941212,-0.93759471,0.23133175,17.90259933,48.60235214,57.32619476,0,0,0,100.68740082,6.31447744,81.66165161,1,0,0,0,0.00469191,-0.03891563,-0.04858351,0,0,0,0
1,135.52,13552,-0.01575784,-0.89512074,0.15837508,22.90640259,35.13459778,54.37630463,0,0,0,100.94213867,5.714468,81.90608978,1,0,0,0,0.11922954,-0.08174422,0.02875702,0,0,0,0
1,135.53,13553,0.01724087,-0.9876669,-0.02901153,18.08943367,37.60561752,57.12425995,0,0,0,101.14756012,5.08172798,82.16679382,1,0,0,0,0.07549983,0.0105352,0.22032878,0,0,0,0
1,135.54,13554,0.22957352,-0.99806631,0.05553011,28.04660034,0.18579827,57.43619919,0,0,0,101.41908264,4.51824379,82.05602264,1,0,0,0,-0.14724997,0.02080466,0.13985008,0,0,0,0
1,135.55,13555,0.21747138,-1.03799963,0.2076865,41.34904099,-30.6367588,58.27493668,0,0,0,101.80377197,4.01533461,81.63674927,1,0,0,0,-0.14423682,0.06124747,-0.00623576,0,0,0,0
1,135.56,13556,0.04803361,-0.97984856,0.25436658,40.88698578,-36.47854233,55.97182083,0,0,0,102.18148041,3.54365683,81.16264343,1,0,0,0,0.01670682,0.00390433,-0.04620016,0,0,0,0
1,135.57,13557,-0.07567063,-0.93535638,0.25438803,40.51795578,-36.17248535,52.58511353,0,0,0,102.55953979,3.10749435,80.69585419,1,0,0,0,0.132779,-0.03964511,-0.03967223,0,0,0,0
1,135.58,13558,-0.175679,-0.93762678,0.27598304,35.79081345,-26.4510746,51.28765488,0,0,0,102.89868927,2.66547894,80.32436371,1,0,0,0,0.225036,-0.03642936,-0.05514101,0,0,0,0
1,135.59,13559,-0.21838577,-0.94827819,0.30368,31.92903519,-11.38027477,45.335392,0,0,0,103.2087326,2.2494781,80.11090088,1,0,0,0,0.26032323,-0.02485631,-0.07730849,0,0,0,0
1,135.6,13560,-0.16019069,-0.94317293,0.30943921,28.24567795,3.95685959,40.03155518,0,0,0,103.50126648,1.82876825,80.05823517,1,0,0,0,0.19497898,-0.0290567,-0.07802387,0,0,0,0
1,135.61,13561,-0.06946942,-0.97949475,0.30087647,26.12338448,13.04261208,35.96485138,0,0,0,103.76367188,1.44849277,80.10024261,1,0,0,0,0.09721951,0.00818269,-0.06470311,0,0,0,0
1,135.62,13562,-0.00828254,-1.01510096,0.29241773,24.34413147,13.94632053,34.3698616,0,0,0,104.00831604,1.08137727,80.15317535,1,0,0,0,0.02953514,0.04468325,-0.05193203,0,0,0,0
1,135.63,13563,0.02445092,-1.01546466,0.2952002,22.83551979,9.78303242,35.03921127,0,0,0,104.23684692,0.7177164,80.16255188,1,0,0,0,-0.00954249,0.0459246,-0.05072994,0,0,0,0
1,135.64,13564,0.0264807,-0.97833961,0.29988578,21.42166138,3.48858118,36.83722305,0,0,0,104.45056152,0.35220957,80.10508728,1,0,0,0,-0.01794438,0.00966936,-0.05169093,0,0,0,0
1,135.65,13565,-0.01545608,-0.95898634,0.30721059,20.14211655,-1.52682376,36.88124847,0,0,0,104.66171265,-0.00676701,79.99700165,1,0,0,0,0.01771839,-0.00880629,-0.05548006,0,0,0,0
1,135.66,13566,-0.06481553,-0.95704329,0.30523232,18.18712234,-1.97108841,35.13252258,0,0,0,104.84390259,-0.34149107,79.88848114,1,0,0,0,0.06100709,-0.00987403,-0.05017733,0,0,0,0
1,135.67,13567,-0.10440554,-0.97309583,0.2975935,16.70044136,1.30262399,34.03437424,0,0,0,105.0115509,-0.67372185,79.81337738,1,0,0,0,0.09483108,0.00698876,-0.03963589,0,0,0,0
1,135.68,13568,-0.11211614,-0.98363286,0.29021657,15.74538517,6.66302538,32.27184677,0,0,0,105.16926575,-1.00267029,79.79369354,1,0,0,0,0.0967727,0.0183275,-0.02955005,0,0,0,0
1,135.69,13569,-0.08661771,-0.96945912,0.28627452,14.4179821,12.57406616,30.55537033,0,0,0,105.31258392,-1.33054352,79.83469391,1,0,0,0,0.0655373,0.00492965,-0.02314828,0,0,0,0
1,135.7,13570,-0.06405947,-0.94452137,0.29661456,14.00513172,14.68177414,28.53787231,0,0,0,105.45726776,-1.65123403,79.90032959,1,0,0,0,0.03736643,-0.01922235,-0.031129,0,0,0,0
1,135.71,13571,-0.06177223,-0.94045877,0.29234621,13.34466076,16.11748886,27.40793991,0,0,0,105.58812714,-1.95845199,79.98230743,1,0,0,0,0.02960322,-0.02248804,-0.02458542,0,0,0,0
1,135.72,13572,-0.05086344,-0.94229448,0.2860477,12.57047653,15.93950939,27.1353302,0,0,0,105.71087646,-2.26274562,80.06265259,1,0,0,0,0.01336615,-0.01988526,-0.01622988,0,0,0,0
1,135.73,13573,-0.05237867,-0.95141858,0.29427946,11.78437996,14.90352058,27.22023201,0,0,0,105.82579803,-2.56521463,80.13217926,1,0,0,0,0.00960016,-0.00999655,-0.02252854,0,0,0,0
1,135.74,13574,-0.05566671,-0.9590407,0.28012148,10.75263977,14.63713264,27.59720039,0,0,0,105.93022919,-2.87070131,80.19752502,1,0,0,0,0.00758267,-0.00162798,-0.00662343,0,0,0,0
1,135.75,13575,-0.07467949,-0.96422231,0.26845747,10.65276718,12.29258156,27.90326691,0,0,0,106.03417969,-3.17814612,80.23960876,1,0,0,0,0.02127685,0.00431037,0.00670571,0,0,0,0
1,135.76,13576,-0.08454979,-0.96051347,0.28294429,9.88200665,11.10135078,28.12614822,0,0,0,106.1313324,-3.47916055,80.2684021,1,0,0,0,0.02583777,0.00137173,-0.00618146,0,0,0,0
1,135.77,13577,-0.08150979,-0.95268255,0.28527838,9.51997566,9.62961102,28.6731987,0,0,0,106.22574615,-3.78136253,80.28102112,1,0,0,0,0.0175261,-0.00568955,-0.00702205,0,0,0,0
1,135.78,13578,-0.10336581,-0.95472473,0.2909295,9.82323742,7.79581213,28.77036095,0,0,0,106.3243866,-4.07938194,80.27521515,1,0,0,0,0.03416769,-0.00284064,-0.01114754,0,0,0,0
1,135.79,13579,-0.11488333,-0.96001095,0.28739595,9.26899719,8.07600117,28.65795708,0,0,0,106.41732025,-4.37710762,80.27192688,1,0,0,0,0.04051304,0.00326477,-0.00614237,0,0,0,0
1,135.8,13580,-0.13443568,-0.96643275,0.26803723,10.19197655,8.30883408,28.33441544,0,0,0,106.51409912,-4.6845417,80.27375031,1,0,0,0,0.05484722,0.01055522,0.01473725,0,0,0,0
1,135.81,13581,-0.12769122,-0.9700312,0.26656431,9.61246586,9.4291172,28.00473404,0,0,0,106.60932159,-4.97984791,80.28434753,1,0,0,0,0.04280593,0.01504141,0.01766597,0,0,0,0
1,135.82,13582,-0.11494093,-0.96193182,0.2761153,9.30114365,8.86896133,27.87944794,0,0,0,106.70188141,-5.2723608,80.28943634,1,0,0,0,0.02495449,0.00782703,0.00951442,0,0,0,0
1,135.83,13583,-0.10219863,-0.96000201,0.29106361,9.05190372,7.62121248,28.09527779,0,0,0,106.79315186,-5.56334591,80.28142548,1,0,0,0,0.00714656,0.00681348,-0.00401933,0,0,0,0
1,135.84,13584,-0.09897787,-0.95572037,0.31066078,7.88185692,6.2951026,28.56643867,0,0,0,106.8742218,-5.85499191,80.25883484,1,0,0,0,-0.00112431,0.00343327,-0.02234383,0,0,0,0
1,135.85,13585,-0.09857129,-0.95793402,0.31644225,7.63622427,5.86175299,29.54429436,0,0,0,106.95944977,-6.15403652,80.22736359,1,0,0,0,-0.00668013,0.00656153,-0.02694249,0,0,0,0
1,135.86,13586,-0.10978607,-0.96367764,0.31523556,6.91128111,6.0995183,30.60591888,0,0,0,107.03199005,-6.46455622,80.19602966,1,0,0,0,-0.00076506,0.01326519,-0.0245605,0,0,0,0
1,135.87,13587,-0.11271064,-0.96196461,0.32427391,5.03738832,6.79146242,31.91444778,0,0,0,107.0856781,-6.78957462,80.16714478,1,0,0,0,-0.00338006,0.01246847,-0.03276513,0,0,0,0
1,135.88,13588,-0.11640588,-0.95242107,0.32914558,3.9120369,8.56855202,33.43659973,0,0,0,107.12677765,-7.13434219,80.15057373,1,0,0,0,-0.00552512,0.00382204,-0.03710126,0,0,0,0
1,135.89,13589,-0.11795744,-0.95444608,0.34745321,2.69046021,11.37336063,34.884552,0,0,0,107.15290833,-7.50121164,80.15650177,1,0,0,0,-0.01017174,0.00676113,-0.05509566,0,0,0,0
1,135.9,13590,-0.10994184,-0.96512347,0.35110056,1.63326919,14.61816406,36.68566132,0,0,0,107.17323303,-7.88853407,80.18531036,1,0,0,0,-0.02479909,0.01837064,-0.05869609,0,0,0,0
1,135.91,13591,-0.11044335,-0.97939759,0.35603583,0.98499626,15.65398216,38.33322906,0,0,0,107.17790222,-8.30100346,80.22203064,1,0,0,0,-0.03122943,0.03363746,-0.06369592,0,0,0,0
1,135.92,13592,-0.10379483,-0.99113923,0.35103807,-0.25655648,17.18615723,40.64138031,0,0,0,107.1687088,-8.74003983,80.26670837,1,0,0,0,-0.04527428,0.04640287,-0.05906741,0,0,0,0
1,135.93,13593,-0.09335913,-0.99630564,0.33369759,-2.38719296,18.34762383,43.35852051,0,0,0,107.13736725,-9.20845985,80.31472778,1,0,0,0,-0.06360303,0.05261324,-0.04248958,0,0,0,0
1,135.94,13594,-0.10829701,-1.00488639,0.32025048,-1.37149119,17.71270752,46.43594742,0,0,0,107.11825562,-9.70439529,80.34767914,1,0,0,0,-0.05702698,0.06237349,-0.02985182,0,0,0,0
1,135.95,13595,-0.10526941,-1.00572741,0.31308436,-1.85976458,18.23352432,50.14038849,0,0,0,107.0954361,-10.22628784,80.37348938,1,0,0,0,-0.06891704,0.064574,-0.02345888,0,0,0,0
1,135.96,13596,-0.10985704,-1.01260126,0.32906979,-2.21673417,17.84330177,54.23496246,0,0,0,107.07118225,-10.79712391,80.38492584,1,0,0,0,-0.07374617,0.07296211,-0.04034795,0,0,0,0
1,135.97,13597,-0.10872638,-1.02680409,0.34316742,-2.34966731,18.01737022,58.07095718,0,0,0,107.04734802,-11.40514469,80.38683319,1,0,0,0,-0.08504848,0.08891538,-0.05540508,0,0,0,0
1,135.98,13598,-0.10523935,-1.05375707,0.32327703,-4.02611065,17.51590919,62.74033737,0,0,0,107.01049042,-12.05634785,80.37023163,1,0,0,0,-0.09941521,0.1178174,-0.03670508,0,0,0,0
1,135.99,13599,-0.12696253,-1.08040595,0.30073974,-4.5614996,16.89310837,66.23938751,0,0,0,106.97192383,-12.73919582,80.33743286,1,0,0,0,-0.08914685,0.14664492,-0.01547509,0,0,0,0
1,136,13600,-0.1533158,-1.11371815,0.25923654,-9.32239723,18.51750183,69.93912506,0,0,0,106.86458588,-13.45235729,80.31624603,1,0,0,0,-0.07478813,0.18224065,0.02414604,0,0,0,0
1,136.01,13601,-0.12800546,-1.07553947,0.24022681,-10.42058468,19.87403488,74.64083099,0,0,0,106.76660919,-14.2243309,80.28985596,1,0,0,0,-0.11271963,0.14638235,0.04031474,0,0,0,0
1,136.02,13602,-0.1338077,-1.09545684,0.284861,-9.43067169,14.70979023,79.45009613,0,0,0,106.69522095,-15.02754307,80.19902802,1,0,0,0,-0.1203479,0.16921657,-0.00652967,0,0,0,0
1,136.03,13603,-0.1541122,-1.11805737,0.31267217,-13.84204197,12.89951611,84.41751099,0,0,0,106.58946991,-15.87329865,80.07639313,1,0,0,0,-0.11399152,0.19497788,-0.03694227,0,0,0,0
1,136.04,13604,-0.16731976,-1.13759112,0.33588248,-17.00563431,11.42098141,89.11106873,0,0,0,106.46159363,-16.76007843,79.92634583,1,0,0,0,-0.11542903,0.21796066,-0.06327748,0,0,0,0
1,136.05,13605,-0.19024202,-1.1601907,0.34537059,-20.67803192,10.84105015,93.31398773,0,0,0,106.30399323,-17.6760807,79.75868225,1,0,0,0,-0.10768397,0.24428794,-0.07640685,0,0,0,0
1,136.06,13606,-0.17973144,-1.18618035,0.35141182,-24.41736221,11.90963936,96.80219269,0,0,0,106.11091614,-18.63885498,79.59465027,1,0,0,0,-0.13384467,0.27426934,-0.0867135,0,0,0,0
1,136.07,13607,-0.16804218,-1.23177993,0.34196845,-26.81951523,12.00411701,100.63002014,0,0,0,105.89896393,-19.63924408,79.42305756,1,0,0,0,-0.16182794,0.32425135,-0.08205971,0,0,0,0
1,136.08,13608,-0.13732959,-1.31088257,0.34167576,-30.84141731,12.41920185,104.88393402,0,0,0,105.65141296,-20.68233299,79.24653625,1,0,0,0,-0.20940959,0.40814394,-0.08710307,0,0,0,0
1,136.09,13609,-0.08193242,-1.38795924,0.41988537,-37.59893036,11.57529831,109.61148071,0,0,0,105.34594727,-21.76952553,79.05187225,1,0,0,0,-0.28226775,0.49037749,-0.17154096,0,0,0,0
1,136.1,13610,-0.03083546,-1.4132067,0.45118114,-41.04602432,11.64089966,116.07662201,0,0,0,105.01579285,-22.9075489,78.84259796,1,0,0,0,-0.35153884,0.52128673,-0.20986088,0,0,0,0
1,136.11,13611,-0.01778952,-1.44905305,0.40321234,-40.2027359,12.4467535,122.90047455,0,0,0,104.69851685,-24.12737274,78.63013458,1,0,0,0,-0.38359779,0.56362969,-0.16895615,0,0,0,0
1,136.12,13612,0.03822931,-1.53607869,0.33051643,-43.26844025,17.97794724,129.74038696,0,0,0,104.33554077,-25.42836571,78.46354675,1,0,0,0,-0.45978546,0.65810174,-0.10379328,0,0,0,0
1,136.13,13613,0.088527,-1.61398578,0.35271686,-49.42030716,23.15952682,137.12142944,0,0,0,103.89503479,-26.81461143,78.34125519,1,0,0,0,-0.53142428,0.74432009,-0.13483275,0,0,0,0
1,136.14,13614,0.12847155,-1.66510236,0.35552362,-51.83680344,29.68596649,142.79266357,0,0,0,103.40175629,-28.27221298,78.28670502,1,0,0,0,-0.59359884,0.80466771,-0.14755043,0,0,0,0
1,136.15,13615,0.1393102,-1.68856466,0.34099025,-51.23865509,40.21818542,148.4392395,0,0,0,102.85826874,-29.79800797,78.34812927,1,0,0,0,-0.62755585,0.83850336,-0.14363179,0,0,0,0
1,136.16,13616,0.16262405,-1.6916151,0.28973967,-51.96383667,53.53927231,149.46264648,0,0,0,102.22119141,-31.37310219,78.57826996,1,0,0,0,-0.67435676,0.85277295,-0.10424931,0,0,0,0
1,136.17,13617,0.17518036,-1.65965915,0.27396032,-55.24761581,68.12469482,147.62738037,0,0,0,101.43955231,-32.95764923,79.00828552,1,0,0,0,-0.71045423,0.83270061,-0.10205613,0,0,0,0
1,136.18,13618,0.07347717,-1.60858071,0.26874733,-54.81008148,68.80195618,147.91000366,0,0,0,100.62949371,-34.54113007,79.48001862,1,0,0,0,-0.6318872,0.79410714,-0.11145568,0,0,0,0
1,136.19,13619,-0.10097458,-1.56470573,0.32488838,-54.80073166,57.07035446,153.91377258,0,0,0,99.87784576,-36.15741348,79.83263397,1,0,0,0,-0.48037973,0.7638427,-0.1814512,0,0,0,0
1,136.2,13620,-0.23164488,-1.52457368,0.46193159,-54.38338852,39.36323929,164.28691101,0,0,0,99.25164795,-37.83189774,79.97290039,1,0,0,0,-0.3729814,0.73898172,-0.33078456,0,0,0,0
1,136.21,13621,-0.21472815,-1.52023542,0.47848979,-55.70423508,15.3185997,173.85414124,0,0,0,98.79243469,-39.57313156,79.81736755,1,0,0,0,-0.41346139,0.75170004,-0.35742751,0,0,0,0
1,136.22,13622,-0.11657626,-1.4622736,0.49433297,-56.09727097,-3.16465259,177.89334106,0,0,0,98.4862442,-41.32721329,79.42510986,1,0,0,0,-0.53512406,0.71235782,-0.38102615,0,0,0,0
1,136.23,13623,0.02305475,-1.33189976,0.53366625,-50.20685959,-14.69793701,169.61813354,0,0,0,98.34067535,-42.98377991,78.8944397,1,0,0,0,-0.69699812,0.60104209,-0.42604047,0,0,0,0
1,136.24,13624,0.01058346,-1.23240185,0.4796685,-34.14009857,-28.06110954,155.24713135,0,0,0,98.48203278,-44.47863388,78.19637299,1,0,0,0,-0.70434791,0.51998281,-0.37432206,0,0,0,0
1,136.25,13625,-0.05022232,-1.11686993,0.42739588,-26.68530464,-23.45522499,141.66584778,0,0,0,98.67740631,-45.80727386,77.55067444,1,0,0,0,-0.6609661,0.42181239,-0.32220468,0,0,0,0
1,136.26,13626,-0.06403402,-0.98277438,0.39405808,-27.1961441,0.94322109,126.8404541,0,0,0,98.59540558,-47.06257248,77.2877121,1,0,0,0,-0.6624943,0.30349535,-0.29061952,0,0,0,0
1,136.27,13627,-0.01926151,-0.82950759,0.39327881,-27.45102692,34.08054352,109.7175827,0,0,0,98.12564087,-48.1975174,77.55121613,1,0,0,0,-0.72137558,0.1647182,-0.29591608,0,0,0,0
1,136.28,13628,0.08097025,-0.51967734,0.22131102,-30.63519859,47.81447601,87.15207672,0,0,0,97.41481781,-49.12573242,78.08992767,1,0,0,0,-0.83330595,-0.13318008,-0.13331325,0,0,0,0
1,136.29,13629,-0.07265852,-0.45548755,0.23051777,-16.77869987,31.76392746,75.69878387,0,0,0,96.98833466,-49.91643143,78.42985535,1,0,0,0,-0.6892218,-0.18721884,-0.15020022,0,0,0,0
1,136.3,13630,0.16407764,-0.69418889,0.31155574,-5.03638268,56.43845749,52.01211548,0,0,0,96.37376404,-50.42381668,79.17289734,1,0,0,0,-0.93329924,0.05948561,-0.23779774,0,0,0,0
1,136.31,13631,0.42224643,-0.60199761,0.30392349,-18.57146835,61.2211113,20.42070389,0,0,0,95.47329712,-50.69015884,80.0980835,1,0,0,0,-1.19515443,-0.02925213,-0.23967516,0,0,0,0
1,136.32,13632,0.47922128,-0.48897657,0.26979887,-18.08217239,50.16695404,-7.67925549,0,0,0,94.6741333,-50.65804291,80.89722443,1,0,0,0,-1.25293422,-0.14217646,-0.2149536,0,0,0,0
1,136.33,13633,0.45481968,-0.44279113,0.19054009,-19.6723671,39.77156448,-28.29135704,0,0,0,93.96977234,-50.40595245,81.55460358,1,0,0,0,-1.22662687,-0.19133237,-0.14369388,0,0,0,0
1,136.34,13634,0.39150554,-0.43136528,0.11364717,-19.44695663,24.71172905,-45.53334045,0,0,0,93.44405365,-49.96755981,81.98561859,1,0,0,0,-1.15917706,-0.20819175,-0.07315484,0,0,0,0
1,136.35,13635,0.30862913,-0.41850778,0.07091183,-17.907938,5.69160843,-61.17566681,0,0,0,93.16217804,-49.3128624,82.11830139,1,0,0,0,-1.07004178,-0.22870886,-0.03417481,0,0,0,0
1,136.36,13636,0.21357797,-0.4054254,0.0636901,-16.11297226,-13.34328365,-77.39876556,0,0,0,93.1053009,-48.53277588,81.97980499,1,0,0,0,-0.96643984,-0.25177294,-0.02799823,0,0,0,0
1,136.37,13637,0.14927228,-0.42515543,0.09939989,-13.09137249,-26.36049271,-94.82588959,0,0,0,93.20913696,-47.57144928,81.66411591,1,0,0,0,-0.89181387,-0.24360673,-0.06243749,0,0,0,0
1,136.38,13638,0.14264038,-0.42095053,0.133867,-13.26991653,-35.08559036,-116.45051575,0,0,0,93.38007355,-46.38871384,81.24874115,1,0,0,0,-0.87221086,-0.26178828,-0.09438516,0,0,0,0
1,136.39,13639,0.13366412,-0.4101598,0.18128335,-12.16725826,-45.68575287,-136.29302979,0,0,0,93.64012146,-45.00038528,80.715271,1,0,0,0,-0.84734249,-0.28894556,-0.13807958,0,0,0,0
1,136.4,13640,0.11067763,-0.41568282,0.2250565,-10.42537308,-54.84680557,-155.18145752,0,0,0,93.985466,-43.39369965,80.08014679,1,0,0,0,-0.80556017,-0.30177689,-0.176842,0,0,0,0
1,136.41,13641,0.06637172,-0.43030626,0.28511372,-7.75100231,-64.07218933,-173.64454651,0,0,0,94.37760162,-41.61517715,79.38499451,1,0,0,0,-0.73931569,-0.30732292,-0.23061366,0,0,0,0
1,136.42,13642,0.02070856,-0.48154825,0.31846356,-3.29678726,-68.17357635,-191.43907166,0,0,0,94.79678345,-39.65238953,78.69121552,1,0,0,0,-0.66881984,-0.27743277,-0.25679106,0,0,0,0
1,136.43,13643,-0.04546061,-0.5834043,0.30614653,-3.51716137,-61.86846161,-206.67379761,0,0,0,95.11138916,-37.53992462,78.13102722,1,0,0,0,-0.57487231,-0.19787788,-0.23776567,0,0,0,0
1,136.44,13644,-0.09775414,-0.64100522,0.30159712,-3.33554173,-58.44342422,-219.55001831,0,0,0,95.35982513,-35.30025482,77.65670776,1,0,0,0,-0.49209711,-0.16301787,-0.22743142,0,0,0,0
1,136.45,13645,-0.10050045,-0.66369849,0.31298894,-0.21230048,-60.34055328,-231.49253845,0,0,0,95.62817383,-32.92478561,77.18887329,1,0,0,0,-0.45622605,-0.16306284,-0.23309208,0,0,0,0
1,136.46,13646,-0.08952826,-0.7302292,0.34604034,5.37014389,-65.55444336,-242.45431519,0,0,0,95.93383026,-30.44659615,76.70915222,1,0,0,0,-0.43122667,-0.11899877,-0.2595737,0,0,0,0
1,136.47,13647,-0.1108098,-0.87119359,0.36841431,10.7478447,-67.99707794,-253.25845337,0,0,0,96.26851654,-27.85611916,76.24303436,1,0,0,0,-0.3714413,0.00028262,-0.27468705,0,0,0,0
1,136.48,13648,-0.17488068,-1.00732064,0.37737647,14.10899258,-65.54976654,-261.51281738,0,0,0,96.58882904,-25.18407059,75.84230804,1,0,0,0,-0.26645282,0.11579293,-0.27623272,0,0,0,0
1,136.49,13649,-0.24511686,-1.09218049,0.37571919,14.91767502,-61.30006027,-267.50982666,0,0,0,96.86868286,-22.45562172,75.5194397,1,0,0,0,-0.15330793,0.18146503,-0.26766419,0,0,0,0
1,136.5,13650,-0.28553984,-1.12727249,0.37354738,17.03490829,-53.46596527,-272.22064209,0,0,0,97.12232208,-19.68549919,75.30310822,1,0,0,0,-0.06835181,0.19911243,-0.2591126,0,0,0,0
1,136.51,13651,-0.26526967,-1.15093338,0.37376419,17.34517479,-43.40618134,-275.0632019,0,0,0,97.3241806,-16.90217018,75.21385956,1,0,0,0,-0.04283744,0.20728822,-0.25368676,0,0,0,0
1,136.52,13652,-0.22421399,-1.1847868,0.35054269,19.29254532,-41.35362625,-277.42523193,0,0,0,97.53121185,-14.09775925,75.1603241,1,0,0,0,-0.03715869,0.22779222,-0.22541523,0,0,0,0
1,136.53,13653,-0.21038482,-1.25807548,0.35235724,26.47672081,-53.31713486,-280.87405396,0,0,0,97.82989502,-11.24295044,75.00319672,1,0,0,0,-0.00291901,0.29002026,-0.22130947,0,0,0,0
1,136.54,13654,-0.24621189,-1.39353132,0.39531294,36.30584335,-65.12784576,-281.29107666,0,0,0,98.23644257,-8.36667252,74.74741364,1,0,0,0,0.08212392,0.41697744,-0.25668854,0,0,0,0
1,136.55,13655,-0.29559478,-1.43970227,0.42539877,36.19315338,-60.83145523,-281.60653687,0,0,0,98.62473297,-5.49416304,74.55708313,1,0,0,0,0.18116164,0.45723981,-0.27886313,0,0,0,0
1,136.56,13656,-0.31111133,-1.45997083,0.45537198,35.68472672,-51.38129807,-284.18377686,0,0,0,98.98712158,-2.60724592,74.48408508,1,0,0,0,0.24674278,0.47402424,-0.30186448,0,0,0,0
1,136.57,13657,-0.30724794,-1.55399215,0.48140863,40.65322113,-49.16046143,-285.79333496,0,0,0,99.39426422,0.29247519,74.45503235,1,0,0,0,0.2933543,0.567155,-0.32092488,0,0,0,0
1,136.58,13658,-0.32811201,-1.67514813,0.51188833,46.6941452,-52.54316711,-287.35955811,0,0,0,99.85993958,3.21346045,74.41728973,1,0,0,0,0.36502877,0.69016063,-0.34387654,0,0,0,0
1,136.59,13659,-0.37184802,-1.76719463,0.55874074,54.33766556,-61.47908783,-287.38348389,0,0,0,100.39464569,6.15065718,74.31672668,1,0,0,0,0.45986092,0.78688788,-0.3825596,0,0,0,0
1,136.6,13660,-0.48561579,-1.82480323,0.57068616,63.48681641,-82.17601776,-281.73724365,0,0,0,100.9916687,9.06699657,74.02976227,1,0,0,0,0.62439257,0.85200548,-0.38576683,0,0,0,0
1,136.61,13661,-0.65712416,-1.82301056,0.60813135,73.95844269,-106.42695618,-269.97192383,0,0,0,101.63504028,11.92317677,73.50660706,1,0,0,0,0.84550202,0.86035943,-0.41418743,0,0,0,0
1,136.62,13662,-0.86320931,-1.79127157,0.55165374,85.96463776,-124.68257141,-257.13970947,0,0,0,102.33188629,14.6974268,72.80142975,1,0,0,0,1.09938562,0.84112108,-0.34857339,0,0,0,0
1,136.63,13663,-1.15811646,-1.90338016,0.34890851,86.86381531,-117.00583649,-239.80606079,0,0,0,103.02511597,17.29365158,72.16192627,1,0,0,0,1.43941855,0.96760225,-0.13672546,0,0,0,0
1,136.64,13664,-1.45472336,-1.9045279,0.27489403,70.78373718,-87.56596375,-221.48303223,0,0,0,103.6194458,19.65045738,71.80168152,1,0,0,0,1.776703,0.98361301,-0.0555579,0,0,0,0
1,136.65,13665,-1.72064984,-1.80608952,0.30756617,62.86835098,-60.13457489,-199.90626526,0,0,0,104.20955658,21.72888756,71.69257355,1,0,0,0,2.07857943,0.90011108,-0.08177129,0,0,0,0
1,136.66,13666,-2.02450037,-1.59671533,0.42568228,51.44721603,-36.34804153,-171.87237549,0,0,0,104.75687408,23.48376083,71.77677155,1,0,0,0,2.41295838,0.70483691,-0.19421372,0,0,0,0
1,136.67,13667,-2.21819687,-1.49000728,0.45054993,46.76059341,-3.9782505,-125.41062927,0,0,0,105.35346222,24.70498848,72.09128571,1,0,0,0,2.62958813,0.61015785,-0.21267693,0,0,0,0
1,136.68,13668,-2.17274094,-1.28206837,0.26705086,28.01720238,25.65610886,-68.32707214,0,0,0,105.83489227,25.29402542,72.5664978,1,0,0,0,2.59736419,0.41034204,-0.02255549,0,0,0,0
1,136.69,13669,-1.86480367,-1.14475203,0.22550018,14.18971348,27.05304909,-6.77182531,0,0,0,106.10862732,25.28472137,72.87465668,1,0,0,0,2.29256487,0.27598357,0.02402072,0,0,0,0
1,136.7,13670,-1.54811561,-1.17918015,0.40190539,3.68326664,3.31252813,42.45949554,0,0,0,106.10738373,24.8490181,72.78278351,1,0,0,0,1.9715004,0.30890551,-0.15018792,0,0,0,0
1,136.71,13671,-1.22769475,-1.11506724,0.4491339,-6.02807426,-16.27876472,87.47770691,0,0,0,105.86646271,24.05307007,72.34576416,1,0,0,0,1.6402725,0.23943295,-0.19808382,0,0,0,0
1,136.72,13672,-1.09199023,-1.07696891,0.26343018,-4.32209778,-39.93703461,120.496315,0,0,0,105.51417542,23.00087547,71.57121277,1,0,0,0,1.4893477,0.19331469,-0.01597902,0,0,0,0
1,136.73,13673,-0.53726125,-1.14605176,0.09350475,-17.33143044,-39.88373566,147.90235901,0,0,0,105.0218277,21.6793251,70.7338562,1,0,0,0,0.91512638,0.25266477,0.14945193,0,0,0,0
1,136.74,13674,1.14777923,-1.2853179,-0.08672117,-36.9140892,2.2378993,159.22561646,0,0,0,104.50493622,20.13423347,70.32228088,1,0,0,0,-0.79409111,0.38060108,0.32405865,0,0,0,0
1,136.75,13675,3.39541483,-1.65391171,-0.53402311,-50.99834061,-23.48196602,127.42128754,0,0,0,103.80478668,18.95703316,69.74894714,1,0,0,0,-3.06426215,0.73878825,0.76390624,0,0,0,0
1,136.76,13676,1.22138989,-1.4702667,-0.69925272,-44.70778275,-211.08581543,68.90779114,0,0,0,102.60505676,18.76649094,67.41035461,1,0,0,0,-0.89975488,0.54796284,0.91343194,0,0,0,0
1,136.77,13677,-1.16713774,-1.87320399,-0.19303527,6.86656475,-190.8114624,91.10696411,0,0,0,101.97975159,18.28107262,65.23973083,1,0,0,0,1.48551202,0.94647765,0.39253491,0,0,0,0
1,136.78,13678,-1.21174788,-1.69905591,0.30083242,-7.70701408,-81.89669037,139.67710876,0,0,0,101.55506134,17.08117294,64.09873199,1,0,0,0,1.51319408,0.76548904,-0.10707261,0,0,0,0
1,136.79,13679,-0.53288841,-1.09828639,0.34590364,1.44556642,-54.95177841,139.76026917,0,0,0,101.32843781,15.82000446,63.24859619,1,0,0,0,0.81346387,0.15736175,-0.15643162,0,0,0,0
1,136.8,13680,-0.22613214,-1.08958197,-0.06142925,6.66442394,-32.46025848,139.29655457,0,0,0,101.21308899,14.49082375,62.63512421,1,0,0,0,0.48498258,0.14230549,0.25016296,0,0,0,0
1,136.81,13681,-0.17906591,-1.06876373,-0.00496009,5.16985941,-20.91777229,129.12644958,0,0,0,101.15223694,13.26460934,62.16588974,1,0,0,0,0.41605359,0.11567031,0.19314939,0,0,0,0
1,136.82,13682,-0.1026141,-0.9388625,0.40295729,22.65882492,-37.72600555,111.93254852,0,0,0,101.24666595,12.23974037,61.56405258,1,0,0,0,0.32088214,-0.01844901,-0.21351157,0,0,0,0
1,136.83,13683,-0.06965752,-0.82760108,0.71337247,53.07310867,-65.86703491,102.84641266,0,0,0,101.6000824,11.3618536,60.69669342,1,0,0,0,0.27218801,-0.13217016,-0.51895165,0,0,0,0
1,136.84,13684,-0.14918987,-0.93445909,0.60617268,45.23768234,-43.28596878,105.3784256,0,0,0,101.92888641,10.41844749,60.0459137,1,0,0,0,0.33627188,-0.02704076,-0.40494102,0,0,0,0
1,136.85,13685,-0.35192734,-1.13909805,0.19929682,22.69296455,2.07159781,107.69403839,0,0,0,102.11102295,9.331213,59.84120178,1,0,0,0,0.52138472,0.17529428,0.00646172,0,0,0,0
1,136.86,13686,-0.32769781,-1.1211344,0.13848244,14.72325802,18.36565971,101.54399109,0,0,0,102.25286865,8.29989529,59.80600357,1,0,0,0,0.47858328,0.15493034,0.07046278,0,0,0,0
1,136.87,13687,-0.12719125,-0.92776847,0.28961682,16.95268059,12.80399132,93.24401855,0,0,0,102.4121933,7.36161375,59.73130035,1,0,0,0,0.26135415,-0.04025373,-0.07769184,0,0,0,0
1,136.88,13688,-0.09202872,-0.95899165,0.27448255,19.13422585,19.34552574,87.60723114,0,0,0,102.60314941,6.4643755,59.73041916,1,0,0,0,0.21037832,-0.01031759,-0.05904498,0,0,0,0
1,136.89,13689,-0.11022256,-0.96876192,0.36882198,10.26400375,35.34435654,81.04473877,0,0,0,102.72329712,5.5961318,59.89847183,1,0,0,0,0.21338922,-0.00162835,-0.15046182,0,0,0,0
1,136.9,13690,-0.04064103,-0.87132728,0.36510631,5.65122414,48.56295395,76.60225677,0,0,0,102.81668854,4.72992706,60.20590591,1,0,0,0,0.12871671,-0.10009213,-0.14472228,0,0,0,0
1,136.91,13691,-0.14424546,-0.90652931,0.18637766,2.20770717,45.84970856,67.89783478,0,0,0,102.86126709,3.96601892,60.50287628,1,0,0,0,0.2182864,-0.06575048,0.03537964,0,0,0,0
1,136.92,13692,-0.15291172,-1.00246179,0.04013606,1.74537337,39.55654526,62.35206223,0,0,0,102.89437866,3.2700386,60.75006104,1,0,0,0,0.21444602,0.02946976,0.18232408,0,0,0,0
1,136.93,13693,0.05891701,-1.08653438,0.00678289,12.55552864,20.65630341,59.84454346,0,0,0,103.02363586,2.64057755,60.81739044,1,0,0,0,-0.00885546,0.11325379,0.21729065,0,0,0,0
1,136.94,13694,0.11835981,-1.10990918,0.11805261,24.76951218,-5.30279827,59.19651794,0,0,0,103.26385498,2.07623315,60.63105011,1,0,0,0,-0.07847972,0.13698158,0.10957114,0,0,0,0
1,136.95,13695,0.05867871,-1.04500997,0.19904707,27.43994904,-18.44432449,60.89880753,0,0,0,103.52065277,1.52475893,60.31069946,1,0,0,0,-0.02843231,0.07280077,0.0330856,0,0,0,0
1,136.96,13696,-0.04066284,-0.93682456,0.21759242,25.05449677,-25.32667923,56.5420723,0,0,0,103.76285553,1.03504026,59.93117905,1,0,0,0,0.06175373,-0.03462577,0.01869729,0,0,0,0
1,136.97,13697,-0.1551431,-0.94307768,0.25868982,25.90166283,-28.88286972,53.39242935,0,0,0,104.01605988,0.58604747,59.52257919,1,0,0,0,0.16830972,-0.02745715,-0.01810212,0,0,0,0
1,136.98,13698,-0.17842604,-0.92787176,0.34102011,20.20953941,-18.34532547,49.77151108,0,0,0,104.21614838,0.14808895,59.22325897,1,0,0,0,0.18386497,-0.04179424,-0.09665783,0,0,0,0
1,136.99,13699,-0.17940012,-0.91192871,0.36025828,18.83491325,-8.78306293,45.08880615,0,0,0,104.40466309,-0.26712286,59.02671432,1,0,0,0,0.17739704,-0.05694085,-0.11270464,0,0,0,0
1,137,13700,-0.18280472,-0.94504642,0.33417392,18.11010361,5.56506491,39.94708252,0,0,0,104.59528351,-0.69556963,58.98355484,1,0,0,0,0.17366731,-0.02296099,-0.08342934,0,0,0,0
1,137.01,13701,-0.17417498,-0.99571127,0.27091363,15.86462307,19.58077431,35.48503113,0,0,0,104.75230408,-1.08846498,59.08308792,1,0,0,0,0.15773381,0.02855033,-0.01728979,0,0,0,0
1,137.02,13702,-0.12931728,-1.01779985,0.27473336,14.28391266,27.25740242,31.5700779,0,0,0,104.89105225,-1.4633975,59.2658844,1,0,0,0,0.10619757,0.05141626,-0.01867744,0,0,0,0
1,137.03,13703,-0.0586004,-0.99359775,0.32047486,13.62020779,27.91291428,29.6785202,0,0,0,105.02170563,-1.82216191,59.45903778,1,0,0,0,0.02913476,0.02797477,-0.06221001,0,0,0,0
1,137.04,13704,-0.00475062,-0.95863312,0.34261179,11.60266399,24.3105278,29.34575844,0,0,0,105.13222504,-2.16874838,59.61752319,1,0,0,0,-0.03083619,-0.00626341,-0.08240935,0,0,0,0
1,137.05,13705,-0.02654842,-0.94798875,0.35581875,8.82971287,14.40259743,29.31539345,0,0,0,105.24113464,-2.49050331,59.67789841,1,0,0,0,-0.01483402,-0.01622507,-0.09394733,0,0,0,0
1,137.06,13706,-0.07890484,-0.94205207,0.34628484,5.83616781,10.16402245,28.53209686,0,0,0,105.2984314,-2.79251528,59.70081711,1,0,0,0,0.03214044,-0.02154689,-0.0830588,0,0,0,0
1,137.07,13707,-0.12666696,-0.93927038,0.32136869,4.45862913,10.01941013,27.05982399,0,0,0,105.34171295,-3.07996273,59.72598267,1,0,0,0,0.07479292,-0.02387142,-0.05742761,0,0,0,0
1,137.08,13708,-0.14975502,-0.94561052,0.28965899,5.37016106,13.17244625,25.23093033,0,0,0,105.39202118,-3.35815835,59.78623199,1,0,0,0,0.09299837,-0.01705645,-0.02499099,0,0,0,0
1,137.09,13709,-0.12610562,-0.94776803,0.28292212,7.68560457,16.73300552,24.08962059,0,0,0,105.46292114,-3.63488197,59.88363647,1,0,0,0,0.06451229,-0.01434276,-0.01731497,0,0,0,0
1,137.1,13710,-0.08830092,-0.96523434,0.25547177,8.18507481,19.3984623,23.78245163,0,0,0,105.53236389,-3.9173944,60.00796509,1,0,0,0,0.02183913,0.00376837,0.01129382,0,0,0,0
1,137.11,13711,-0.06946857,-0.99045998,0.23837224,9.74958611,19.7857914,24.64282227,0,0,0,105.62103271,-4.20789433,60.13269043,1,0,0,0,-0.00198647,0.02970131,0.02964789,0,0,0,0
1,137.12,13712,-0.06409483,-1.00143254,0.24838543,10.13157463,19.6132412,26.38602829,0,0,0,105.71339417,-4.51491499,60.25060654,1,0,0,0,-0.01260434,0.04147962,0.02106831,0,0,0,0
1,137.13,13713,-0.06214456,-0.98254144,0.27600327,10.51351929,16.71404457,29.00704765,0,0,0,105.81183624,-4.83947325,60.33293152,1,0,0,0,-0.02008432,0.0234628,-0.00507216,0,0,0,0
1,137.14,13714,-0.06536925,-0.95418841,0.29694122,9.97843647,13.52155685,31.00586128,0,0,0,105.90766907,-5.17467976,60.37842941,1,0,0,0,-0.02262131,-0.00395204,-0.02450474,0,0,0,0
1,137.15,13715,-0.08017219,-0.94163167,0.31393597,8.92194462,11.92624474,32.83739853,0,0,0,106.0069046,-5.52195454,60.40105057,1,0,0,0,-0.01379133,-0.0155407,-0.04009531,0,0,0,0
1,137.16,13716,-0.09863175,-0.93992245,0.33323967,7.56250763,10.37142467,34.28813171,0,0,0,106.08205414,-5.88015413,60.40597534,1,0,0,0,-0.00146802,-0.01624912,-0.05808011,0,0,0,0
1,137.17,13717,-0.10901652,-0.94550085,0.32943127,6.82472086,9.59818172,35.60047913,0,0,0,106.15101624,-6.24880695,60.39932251,1,0,0,0,0.00257741,-0.00969779,-0.05327393,0,0,0,0
1,137.18,13718,-0.12414407,-0.94929159,0.31695256,6.63787365,9.59189796,36.56515121,0,0,0,106.2184906,-6.62670279,60.3894577,1,0,0,0,0.0112198,-0.00488935,-0.03985448,0,0,0,0
1,137.19,13719,-0.1323006,-0.9583919,0.30474064,6.46567202,10.78441238,37.31628036,0,0,0,106.28325653,-7.01514006,60.38855743,1,0,0,0,0.01271187,0.00527999,-0.02676138,0,0,0,0
1,137.2,13720,-0.13991189,-0.96307355,0.29898021,6.45102787,11.73372269,38.32509995,0,0,0,106.3508606,-7.4183588,60.39320755,1,0,0,0,0.01344036,0.01109132,-0.02017803,0,0,0,0
1,137.21,13721,-0.15724027,-0.96949387,0.3112691,6.5992732,12.31112766,38.62757874,0,0,0,106.41561127,-7.82367516,60.40245819,1,0,0,0,0.02375286,0.01872541,-0.03159704,0,0,0,0
1,137.22,13722,-0.16116709,-0.97469819,0.31871584,6.59920883,14.30726051,39.19358444,0,0,0,106.47790527,-8.24008179,60.42896652,1,0,0,0,0.02056318,0.02518252,-0.0382764,0,0,0,0
1,137.23,13723,-0.16645102,-0.97788435,0.32959911,6.27236271,15.8983345,39.51383209,0,0,0,106.53465271,-8.66410637,60.46957779,1,0,0,0,0.01856679,0.02967431,-0.04848763,0,0,0,0
1,137.24,13724,-0.16331881,-0.98361427,0.34168169,6.15851164,17.3655014,40.07499695,0,0,0,106.5880661,-9.09773445,60.52241516,1,0,0,0,0.00802225,0.03677066,-0.0599624,0,0,0,0
1,137.25,13725,-0.16240789,-0.99031931,0.35657471,4.60251713,18.96294594,41.11032867,0,0,0,106.63293457,-9.54306889,60.58515167,1,0,0,0,-0.00049185,0.04486804,-0.07447383,0,0,0,0
1,137.26,13726,-0.14246407,-1.00744843,0.34943452,3.27236748,21.92007828,42.87638855,0,0,0,106.65061951,-10.01664925,60.67364883,1,0,0,0,-0.02838659,0.06344603,-0.06718583,0,0,0,0
1,137.27,13727,-0.12921724,-1.02192521,0.33650354,1.51518929,24.14024162,45.33895493,0,0,0,106.64741516,-10.5202055,60.77666473,1,0,0,0,-0.05007925,0.07937935,-0.0546277,0,0,0,0
1,137.28,13728,-0.09780202,-1.03436959,0.31218657,1.00288677,25.67139435,48.91560364,0,0,0,106.6372757,-11.0623951,60.8844223,1,0,0,0,-0.09053008,0.09340642,-0.03091767,0,0,0,0
1,137.29,13729,-0.07237798,-1.04206538,0.29645526,-0.60557801,24.91127205,53.75609589,0,0,0,106.61419678,-11.64875507,60.97100067,1,0,0,0,-0.12569258,0.10284989,-0.01603784,0,0,0,0
1,137.3,13730,-0.06155806,-1.04362392,0.29024959,-3.33249164,23.37860107,60.28108597,0,0,0,106.5674057,-12.27235985,61.02202225,1,0,0,0,-0.14704244,0.10633302,-0.01103217,0,0,0,0
1,137.31,13731,-0.05119916,-1.05309141,0.28238797,-6.43763733,20.73093033,67.65502167,0,0,0,106.50170898,-12.97994137,61.0283432,1,0,0,0,-0.16882226,0.11790618,-0.00488655,0,0,0,0
1,137.32,13732,-0.06344951,-1.06788862,0.25859749,-8.91088009,16.58921814,75.00362396,0,0,0,106.425354,-13.74624443,60.97337341,1,0,0,0,-0.16921619,0.13517107,0.01688463,0,0,0,0
1,137.33,13733,-0.08621633,-1.08958125,0.24683025,-12.08437157,12.49049187,82.15129852,0,0,0,106.33278656,-14.56964874,60.8580246,1,0,0,0,-0.16004112,0.15966803,0.02630376,0,0,0,0
1,137.34,13734,-0.10310443,-1.11425841,0.27715102,-16.24720955,8.31824493,89.06521606,0,0,0,106.21588135,-15.44791412,60.68223572,1,0,0,0,-0.15763952,0.1874873,-0.00680161,0,0,0,0
1,137.35,13735,-0.12373171,-1.14194798,0.33624807,-20.73187065,3.94935274,95.35079193,0,0,0,106.07436371,-16.36115456,60.44393158,1,0,0,0,-0.15225248,0.2186237,-0.06925631,0,0,0,0
1,137.36,13736,-0.1715682,-1.17162859,0.37553111,-23.42048836,0.1190307,100.51829529,0,0,0,105.92370605,-17.32772827,60.1556282,1,0,0,0,-0.12016781,0.2521109,-0.11217907,0,0,0,0
1,137.37,13737,-0.20977934,-1.18636298,0.39828777,-25.7234478,0.72982168,103.84352875,0,0,0,105.75531769,-18.32870674,59.86524963,1,0,0,0,-0.09843196,0.27109671,-0.13892549,0,0,0,0
1,137.38,13738,-0.21274203,-1.19259465,0.38931289,-28.15715408,3.74218178,106.46369934,0,0,0,105.5594635,-19.3639183,59.59972382,1,0,0,0,-0.11236964,0.28192258,-0.13445574,0,0,0,0
1,137.39,13739,-0.18952154,-1.24470937,0.37643284,-30.70453072,8.17129326,109.53945923,0,0,0,105.3294754,-20.4414978,59.37320328,1,0,0,0,-0.15305459,0.33905113,-0.12664202,0,0,0,0
1,137.4,13740,-0.14691918,-1.32789409,0.42975232,-36.31803131,10.29058838,112.36301422,0,0,0,105.0450592,-21.54015541,59.16109848,1,0,0,0,-0.21356013,0.42757976,-0.18591164,0,0,0,0
1,137.41,13741,-0.07330664,-1.38544631,0.49027425,-41.08668137,11.61886787,116.70681763,0,0,0,104.71034241,-22.69792938,58.9588623,1,0,0,0,-0.30549622,0.49084258,-0.25329745,0,0,0,0
1,137.42,13742,-0.0538094,-1.42398167,0.44913718,-39.85907364,12.54650879,122.82744598,0,0,0,104.39237213,-23.91834831,58.75514603,1,0,0,0,-0.34423292,0.53589255,-0.21930632,0,0,0,0
1,137.43,13743,-0.04043875,-1.50720978,0.36219841,-41.16361618,17.21247101,128.76065063,0,0,0,104.04897308,-25.20874214,58.59074783,1,0,0,0,-0.37774336,0.62656146,-0.13962325,0,0,0,0
1,137.44,13744,0.02242257,-1.56718874,0.33391774,-46.62656021,24.66380692,133.86759949,0,0,0,103.6217804,-26.56753349,58.50110245,1,0,0,0,-0.46160653,0.69469798,-0.11983961,0,0,0,0
1,137.45,13745,0.07229606,-1.63112414,0.34897453,-47.09750748,29.96931076,140.02563477,0,0,0,103.16673279,-27.9862957,58.46302414,1,0,0,0,-0.53329539,0.76770085,-0.14421235,0,0,0,0
1,137.46,13746,0.12766518,-1.68582702,0.39909124,-47.68144989,39.85776901,146.36157227,0,0,0,102.65597534,-29.50190163,58.53319168,1,0,0,0,-0.61136401,0.8325519,-0.20442015,0,0,0,0
1,137.47,13747,0.19723432,-1.71674562,0.40417513,-45.37299728,64.93417358,149.0788269,0,0,0,102.01720428,-31.09686089,58.898983,1,0,0,0,-0.7046839,0.87478721,-0.221057,0,0,0,0
1,137.48,13748,0.26152921,-1.72950768,0.43891361,-44.30791092,81.64857483,149.14035034,0,0,0,101.26320648,-32.72224808,59.48664474,1,0,0,0,-0.79306543,0.89967537,-0.26928282,0,0,0,0
1,137.49,13749,0.23109396,-1.72513843,0.46044308,-43.08885193,89.06278229,148.63534546,0,0,0,100.43790436,-34.34970093,60.20022964,1,0,0,0,-0.78650016,0.90821511,-0.30524704,0,0,0,0
1,137.5,13750,0.05464484,-1.67688882,0.46412399,-44.23449707,80.89761353,152.91040039,0,0,0,99.62498474,-35.98439026,60.84585953,1,0,0,0,-0.63352376,0.873712,-0.32365233,0,0,0,0
1,137.51,13751,-0.22988829,-1.64660227,0.56235176,-44.54861832,62.49226379,163.80921936,0,0,0,98.9156723,-37.70191193,61.28670883,1,0,0,0,-0.37259057,0.85873079,-0.435076,0,0,0,0
1,137.52,13752,-0.24332243,-1.59023249,0.58019787,-43.40304184,47.56015015,174.8011322,0,0,0,98.31482697,-39.50138092,61.55380249,1,0,0,0,-0.38367838,0.81989026,-0.46460894,0,0,0,0
1,137.53,13753,-0.16229112,-1.57541561,0.50614554,-42.05964661,36.38658142,183.99749756,0,0,0,97.80937958,-41.37465668,61.68768692,1,0,0,0,-0.48940182,0.82429588,-0.40113083,0,0,0,0
1,137.54,13754,-0.05754978,-1.37561917,0.59427851,-40.43618393,14.62306118,175.14649963,0,0,0,97.48479462,-43.12998199,61.56888199,1,0,0,0,-0.61771429,0.64457721,-0.49669787,0,0,0,0
1,137.55,13755,0.0842104,-1.19150603,0.55939239,-24.93629265,5.91499805,159.03488159,0,0,0,97.40175629,-44.6720314,61.34213638,1,0,0,0,-0.78042537,0.47968429,-0.4669801,0,0,0,0
1,137.56,13756,0.02772807,-1.10104167,0.52678543,-7.74493313,4.01398849,140.84790039,0,0,0,97.46802521,-46.0738678,61.13965225,1,0,0,0,-0.74167335,0.40678373,-0.43599629,0,0,0,0
1,137.57,13757,0.07148314,-1.00891614,0.4490248,-6.23787117,41.4730835,128.26921082,0,0,0,97.14112854,-47.39886093,61.50172806,1,0,0,0,-0.80171633,0.33129933,-0.36212373,0,0,0,0
1,137.58,13758,0.03950921,-0.75432998,0.34280136,-9.63994408,74.82392883,105.85012054,0,0,0,96.3578186,-48.53794861,62.42569733,1,0,0,0,-0.78421563,0.09148623,-0.26524949,0,0,0,0
1,137.59,13759,-0.08279254,-0.42841336,0.21326992,-2.35901976,81.27736664,76.26352692,0,0,0,95.49556732,-49.38031769,63.53725052,1,0,0,0,-0.67286408,-0.22317033,-0.14694642,0,0,0,0
1,137.6,13760,-0.14067602,-0.32648867,0.18383084,12.32936478,77.70365143,60.67734909,0,0,0,94.79712677,-50.03071594,64.62586212,1,0,0,0,-0.62320679,-0.31635749,-0.12710473,0,0,0,0
1,137.61,13761,0.17440674,-0.53432357,0.30507517,27.35083389,101.4278183,40.28168106,0,0,0,93.88989258,-50.50937653,66.16055298,1,0,0,0,-0.94432902,-0.10204076,-0.25767782,0,0,0,0
1,137.62,13762,0.45622844,-0.45836446,0.24800885,16.14731979,111.45174408,13.02831173,0,0,0,92.70498657,-50.70367813,67.90206909,1,0,0,0,-1.22960186,-0.1746124,-0.21308935,0,0,0,0
1,137.63,13763,0.64026821,-0.35845289,0.10576818,18.97669411,107.84009552,-16.21998787,0,0,0,91.57278442,-50.58169174,69.61109161,1,0,0,0,-1.4136107,-0.27514577,-0.08382314,0,0,0,0
1,137.64,13764,0.63220781,-0.34402627,-0.03972509,23.73251152,93.04220581,-47.5836525,0,0,0,90.67547607,-50.12402725,71.08383942,1,0,0,0,-1.40186107,-0.29433191,0.05065185,0,0,0,0
1,137.65,13765,0.53178948,-0.34080866,-0.12563023,31.46212769,64.54716492,-72.58301544,0,0,0,90.20362091,-49.35654831,72.09975433,1,0,0,0,-1.29421711,-0.30623913,0.12961698,0,0,0,0
1,137.66,13766,0.4230234,-0.3451857,-0.1329152,39.86909866,42.97104645,-93.48429108,0,0,0,90.10662842,-48.42273331,72.75717163,1,0,0,0,-1.17529297,-0.31365183,0.13429643,0,0,0,0
1,137.67,13767,0.33262023,-0.31341386,-0.11845792,46.00183868,23.6431427,-112.59880829,0,0,0,90.30052185,-47.29742432,73.11553192,1,0,0,0,-1.07264209,-0.35914093,0.12084287,0,0,0,0
1,137.68,13768,0.2763271,-0.30483064,-0.0667531,53.41582108,3.22124457,-131.28692627,0,0,0,90.78704071,-45.9847908,73.18061066,1,0,0,0,-1.00158286,-0.38357991,0.07379854,0,0,0,0
1,137.69,13769,0.25321415,-0.32710871,-0.00675045,59.28839874,-15.79308319,-148.74963379,0,0,0,91.50870514,-44.49427795,72.99874115,1,0,0,0,-0.96113408,-0.37898058,0.02178865,0,0,0,0
1,137.7,13770,0.22812304,-0.38767672,0.05781319,66.15163422,-36.627285,-166.56092834,0,0,0,92.46875,-42.79026413,72.56638336,1,0,0,0,-0.91587472,-0.33772629,-0.03126987,0,0,0,0
1,137.71,13771,0.21440715,-0.45869687,0.07413895,68.51157379,-45.65237808,-186.08525085,0,0,0,93.47566223,-40.90821838,72.08426666,1,0,0,0,-0.87873566,-0.28758091,-0.03367746,0,0,0,0
1,137.72,13772,0.22507034,-0.52619845,0.0546812,67.6712265,-54.47162628,-205.90049744,0,0,0,94.48641205,-38.81624985,71.56285858,1,0,0,0,-0.86271644,-0.24207573,0.00045315,0,0,0,0
1,137.73,13773,0.17994663,-0.6212042,0.02067926,69.28378296,-67.58177185,-222.78646851,0,0,0,95.54845428,-36.53771973,70.95856476,1,0,0,0,-0.78736901,-0.16988169,0.05058053,0,0,0,0
1,137.74,13774,0.10752231,-0.70477039,0.03859771,71.75196838,-80.89632416,-238.77540588,0,0,0,96.65585327,-34.07744598,70.28411102,1,0,0,0,-0.68126214,-0.10930869,0.05046178,0,0,0,0
1,137.75,13775,0.0103388,-0.81291854,0.06093869,71.6089859,-86.84213257,-253.40304565,0,0,0,97.72052765,-31.44005775,69.63619232,1,0,0,0,-0.54678804,-0.0240089,0.04670671,0,0,0,0
1,137.76,13776,-0.09331366,-0.94971937,0.09712242,69.58404541,-85.80851746,-266.00045776,0,0,0,98.68862915,-28.68490219,69.09383392,1,0,0,0,-0.40251717,0.09059402,0.02880046,0,0,0,0
1,137.77,13777,-0.18721901,-1.06718218,0.13968027,64.98975372,-77.63591766,-278.42977905,0,0,0,99.50715637,-25.81300926,68.72705841,1,0,0,0,-0.26515615,0.18697374,0.00307644,0,0,0,0
1,137.78,13778,-0.25850806,-1.15607119,0.15610906,62.0091362,-66.6088562,-290.58267212,0,0,0,100.19981384,-22.83624649,68.55282593,1,0,0,0,-0.14754802,0.25609019,0.001787,0,0,0,0
1,137.79,13779,-0.30242556,-1.2266556,0.12554581,58.50724411,-49.11441803,-300.43060303,0,0,0,100.76105499,-19.79296112,68.62124634,1,0,0,0,-0.05487308,0.30861068,0.04563867,0,0,0,0
1,137.8,13780,-0.34575856,-1.3261981,0.09358129,51.96989441,-26.12042999,-307.81414795,0,0,0,101.16969299,-16.72078323,68.9691391,1,0,0,0,0.03888937,0.39214462,0.08848238,0,0,0,0
1,137.81,13781,-0.35850388,-1.42026007,0.05804716,44.94897842,6.92529535,-310.08596802,0,0,0,101.43676758,-13.69392586,69.6696167,1,0,0,0,0.10268126,0.47254604,0.13214839,0,0,0,0
1,137.82,13782,-0.31160101,-1.47710562,-0.03368973,36.93003464,25.46562386,-310.81918335,0,0,0,101.61816406,-10.69940662,70.56046295,1,0,0,0,0.10674334,0.51824784,0.22967762,0,0,0,0
1,137.83,13783,-0.25307074,-1.49933243,-0.00916931,35.20544434,21.45647049,-309.9178772,0,0,0,101.83370209,-7.70840454,71.41104889,1,0,0,0,0.0995792,0.53197551,0.21028388,0,0,0,0
1,137.84,13784,-0.18798995,-1.58136928,0.00869077,37.86790466,15.16416454,-309.20220947,0,0,0,102.12615204,-4.71519518,72.20586395,1,0,0,0,0.08629724,0.60845172,0.1983718,0,0,0,0
1,137.85,13785,-0.13979053,-1.68058133,0.08591092,37.09760284,-0.08144046,-305.34768677,0,0,0,102.4568634,-1.73226047,72.85629272,1,0,0,0,0.09006592,0.7049545,0.12731558,0,0,0,0
1,137.86,13786,-0.10690844,-1.7632674,0.16127092,39.35836792,-21.95037079,-302.51837158,0,0,0,102.84778595,1.26764178,73.30460358,1,0,0,0,0.10936107,0.78783214,0.05850518,0,0,0,0
1,137.87,13787,-0.12501824,-1.90047503,0.24876034,42.07858276,-43.85107422,-298.50506592,0,0,0,103.27961731,4.27466774,73.55230713,1,0,0,0,0.17993024,0.92813665,-0.02221378,0,0,0,0
1,137.88,13788,-0.20185994,-2.00556064,0.36427322,45.84797287,-66.47445679,-291.18829346,0,0,0,103.74088287,7.26132774,73.58622742,1,0,0,0,0.30888516,1.03914952,-0.13108194,0,0,0,0
1,137.89,13789,-0.29111835,-1.93913019,0.39204314,49.82064819,-104.89620972,-278.51296997,0,0,0,104.18390656,10.21752644,73.23591614,1,0,0,0,0.44947359,0.98126101,-0.1528807,0,0,0,0
1,137.9,13790,-0.52818131,-1.89214885,0.44955686,63.53069687,-154.37965393,-259.68261719,0,0,0,104.64181519,13.11120415,72.36920929,1,0,0,0,0.73665631,0.94523537,-0.20524073,0,0,0,0
1,137.91,13791,-0.87676752,-1.86399877,0.47573745,80.19087982,-188.35987854,-239.35813904,0,0,0,105.13051605,15.90837002,71.12335968,1,0,0,0,1.13334084,0.93025231,-0.22654249,0,0,0,0
1,137.92,13792,-1.36412668,-1.88931441,0.30142778,86.99531555,-185.91571045,-225.11581421,0,0,0,105.6299057,18.57189941,69.87165833,1,0,0,0,1.66629279,0.97057289,-0.04758082,0,0,0,0
1,137.93,13793,-1.83097517,-1.87444603,0.18000326,73.30651093,-139.76968384,-203.30027771,0,0,0,106.08113098,20.90918159,69.03372955,1,0,0,0,2.17403126,0.97121406,0.07759293,0,0,0,0
1,137.94,13794,-2.10151052,-1.57683837,0.2590754,48.51988602,-81.91631317,-177.4485321,0,0,0,106.45142365,22.84185982,68.72235107,1,0,0,0,2.47846079,0.68795365,0.00112759,0,0,0,0
1,137.95,13795,-2.28229809,-1.47598577,0.40267533,39.17448425,-30.65577698,-150.84858704,0,0,0,106.90487671,24.3682251,68.87491608,1,0,0,0,2.68635702,0.5999589,-0.13950847,0,0,0,0
1,137.96,13796,-2.34907794,-1.31046653,0.39320228,15.05458641,20.35105324,-104.92669678,0,0,0,107.28923035,25.31103706,69.42941284,1,0,0,0,2.77194333,0.44460943,-0.1258882,0,0,0,0
1,137.97,13797,-2.10055494,-1.19750011,0.38971022,6.61513376,41.0408287,-31.8529892,0,0,0,107.58699036,25.49181366,69.96852875,1,0,0,0,2.53061867,0.33649206,-0.11821703,0,0,0,0
1,137.98,13798,-1.69185364,-1.15006447,0.43586332,-8.29332829,21.90238953,28.49344254,0,0,0,107.56246185,25.15397835,70.10438538,1,0,0,0,2.11940908,0.28835553,-0.16264063,0,0,0,0
1,137.99,13799,-1.31324506,-1.15846097,0.49671984,-8.43024826,-3.00530696,75.93916321,0,0,0,107.35967255,24.43868446,69.82143402,1,0,0,0,1.73153126,0.29206219,-0.22400178,0,0,0,0
1,138,13800,-1.19051254,-1.04960847,0.29948235,-23.42712975,-36.14472198,111.51780701,0,0,0,106.82596588,23.44839287,69.08872223,1,0,0,0,1.59485388,0.17505866,-0.03182551,0,0,0,0
1,138.01,13801,-0.94460744,-1.10730267,0.31579721,-21.06834221,-51.8266449,140.93011475,0,0,0,106.23642731,22.2450943,68.11414337,1,0,0,0,1.33085799,0.22279631,-0.05423572,0,0,0,0
1,138.02,13802,0.30228072,-1.0639081,0.3165707,-39.88863754,-9.53811455,161.92304993,0,0,0,105.62545013,20.71454239,67.53786469,1,0,0,0,0.06094624,0.16764213,-0.06219263,0,0,0,0
1,138.03,13803,2.92650771,-1.41258872,0.12797005,-43.39409256,11.57028866,145.38061523,0,0,0,105.09202576,19.28202248,67.24651337,1,0,0,0,-2.58782005,0.50505507,0.12026377,0,0,0,0
1,138.04,13804,2.70234823,-1.45355737,-0.31216946,-41.16969299,-121.72681427,86.73465729,0,0,0,104.20339966,18.74897003,65.76802063,1,0,0,0,-2.37965775,0.53758419,0.55058074,0,0,0,0
1,138.05,13805,-1.27615929,-1.89070225,-0.37825814,-7.44762135,-221.34179688,46.01940918,0,0,0,103.35507202,18.82139397,63.38182068,1,0,0,0,1.60005629,0.97106183,0.6003772,0,0,0,0
1,138.06,13806,-1.32633364,-1.92277503,0.24885586,1.03699589,-63.19134903,133.77088928,0,0,0,103.05847168,17.66439438,62.4108963,1,0,0,0,1.6379168,0.99767274,-0.03192501,0,0,0,0
1,138.07,13807,-0.50917578,-1.1536299,0.35160571,-8.32598019,-29.57946777,130.04696655,0,0,0,102.79795837,16.46277428,61.80555725,1,0,0,0,0.79997206,0.22090738,-0.1384581,0,0,0,0
1,138.08,13808,-0.14301899,-0.89734656,-0.00516142,5.54211283,-33.35846329,133.61248779,0,0,0,102.67720032,15.23306751,61.16107178,1,0,0,0,0.41352808,-0.04172565,0.21713236,0,0,0,0
1,138.09,13809,-0.28273413,-1.12439561,-0.05927854,3.97142768,-18.25894547,129.60995483,0,0,0,102.59589386,14.0083313,60.68379974,1,0,0,0,0.53250939,0.17951889,0.27090165,0,0,0,0
1,138.1,13810,-0.2117126,-1.06493711,0.25813407,8.47167683,-10.74283695,113.15925598,0,0,0,102.61196899,12.8962431,60.32963943,1,0,0,0,0.44193387,0.11518832,-0.04612756,0,0,0,0
1,138.11,13811,-0.16836283,-0.97933191,0.57851261,42.58519363,-43.78058243,100.31281281,0,0,0,102.89501953,12.01433277,59.66601181,1,0,0,0,0.38196638,0.02657822,-0.36260974,0,0,0,0
1,138.12,13812,-0.17872906,-1.04716372,0.50945252,47.10942078,-26.89514732,100.2815094,0,0,0,103.26544952,11.09825993,59.16662216,1,0,0,0,0.37728035,0.09272696,-0.28673267,0,0,0,0
1,138.13,13813,-0.28929991,-1.11162055,0.19550383,22.01959419,16.35327721,100.24101257,0,0,0,103.47154999,10.08512878,59.09239197,1,0,0,0,0.47097144,0.15506825,0.03248183,0,0,0,0
1,138.14,13814,-0.30428806,-1.05597138,0.18828668,17.47439575,25.34184456,92.37049866,0,0,0,103.6513443,9.12775803,59.12265015,1,0,0,0,0.46894169,0.09720984,0.04332464,0,0,0,0
1,138.15,13815,-0.09341475,-0.97105139,0.30665767,19.7031498,26.74690628,87.37252808,0,0,0,103.86447906,8.19929028,59.17837143,1,0,0,0,0.24212718,0.01064776,-0.071099,0,0,0,0
1,138.16,13816,-0.0317936,-0.91994685,0.32562566,19.65858841,21.69071198,80.66378021,0,0,0,104.06323242,7.36414766,59.19439316,1,0,0,0,0.16525173,-0.04170373,-0.08604267,0,0,0,0
1,138.17,13817,-0.11671986,-0.90498751,0.317449,18.28493118,25.54019737,72.02890015,0,0,0,104.25468445,6.60323572,59.26638412,1,0,0,0,0.23657358,-0.05753715,-0.07420622,0,0,0,0
1,138.18,13818,-0.12238856,-0.94828486,0.37620366,13.44188023,39.68164444,65.92021179,0,0,0,104.41307831,5.86625576,59.48885727,1,0,0,0,0.22945535,-0.01489781,-0.12962252,0,0,0,0
1,138.19,13819,-0.0425669,-0.92249936,0.33726764,2.91590714,54.90732956,65.7910614,0,0,0,104.47748566,5.0921526,59.858078,1,0,0,0,0.13629213,-0.04156159,-0.08869597,0,0,0,0
1,138.2,13820,-0.11768984,-0.93296045,0.24099842,3.90408206,48.30815125,58.29902649,0,0,0,104.53716278,4.38113117,60.18362427,1,0,0,0,0.19880071,-0.03192525,0.00881073,0,0,0,0
1,138.21,13821,-0.02972601,-1.02034163,0.11986546,6.31175995,44.71725845,53.34495544,0,0,0,104.62158203,3.75231266,60.48292542,1,0,0,0,0.09918998,0.05491978,0.1313836,0,0,0,0
1,138.22,13822,0.11922535,-1.03822577,0.12462027,14.34887695,24.4723053,51.38048935,0,0,0,104.77173615,3.19329548,60.58959579,1,0,0,0,-0.05999363,0.07269157,0.12881127,0,0,0,0
1,138.23,13823,0.09089065,-1.02956033,0.20486318,25.31121826,2.7984221,51.0782814,0,0,0,105.01955414,2.69250798,60.48524094,1,0,0,0,-0.04066086,0.06450981,0.05232733,0,0,0,0
1,138.24,13824,0.04023263,-0.97830284,0.20840974,27.92580605,-5.44852018,50.42408371,0,0,0,105.29096222,2.22006869,60.30068207,1,0,0,0,0.0015189,0.01407678,0.05334956,0,0,0,0
1,138.25,13825,-0.01230556,-0.93162256,0.25022581,28.69999886,-15.13342857,48.09553909,0,0,0,105.56919861,1.78512013,60.02809525,1,0,0,0,0.04631251,-0.03160958,0.01627187,0,0,0,0
1,138.26,13826,-0.08554592,-0.92886031,0.32812992,29.06102753,-18.66795158,44.98709869,0,0,0,105.85140228,1.40259528,59.72647476,1,0,0,0,0.11248808,-0.03326242,-0.05685779,0,0,0,0
1,138.27,13827,-0.11392078,-0.92803198,0.38227287,25.82251167,-12.83776379,40.96566772,0,0,0,106.10454559,1.04409182,59.4902153,1,0,0,0,0.13445958,-0.03296423,-0.10648298,0,0,0,0
1,138.28,13828,-0.13699459,-0.92165512,0.40020862,22.83757782,-3.50530863,37.06991959,0,0,0,106.33079529,0.69790751,59.35299683,1,0,0,0,0.15143076,-0.03830124,-0.12043832,0,0,0,0
1,138.29,13829,-0.13598514,-0.9399696,0.38457575,20.01106262,7.19298935,33.2583313,0,0,0,106.53060913,0.35853443,59.32791901,1,0,0,0,0.14445248,-0.01902489,-0.10128412,0,0,0,0
1,138.3,13830,-0.11510346,-0.96791506,0.34939554,18.98389435,15.84220028,28.94559097,0,0,0,106.73075867,0.01385846,59.39932632,1,0,0,0,0.11770307,0.00985698,-0.06283966,0,0,0,0
1,138.31,13831,-0.06433044,-0.97154856,0.32634249,18.10026741,23.4214592,25.59842873,0,0,0,106.91137695,-0.29896396,59.54942703,1,0,0,0,0.06115087,0.01445819,-0.03657565,0,0,0,0
1,138.32,13832,-0.01663364,-0.96026653,0.31771049,18.07864761,23.77643013,24.09794998,0,0,0,107.09093475,-0.59892815,59.7063446,1,0,0,0,0.00813199,0.00411597,-0.02496339,0,0,0,0
1,138.33,13833,-0.02087696,-0.96391129,0.33303553,18.0195446,22.89329529,23.44079399,0,0,0,107.26916504,-0.89049816,59.85583878,1,0,0,0,0.00723357,0.00874041,-0.03729975,0,0,0,0
1,138.34,13834,-0.03931155,-0.96214455,0.33656356,15.87993336,24.35721207,22.76677322,0,0,0,107.42498779,-1.18044114,60.02046585,1,0,0,0,0.02060168,0.00790842,-0.03809966,0,0,0,0
1,138.35,13835,-0.06819955,-0.95910043,0.34936011,14.2229805,25.39027214,21.90677643,0,0,0,107.57614136,-1.47704029,60.19747543,1,0,0,0,0.04442421,0.00573826,-0.04847365,0,0,0,0
1,138.36,13836,-0.09070416,-0.94888943,0.37374505,12.37693596,27.14476776,20.90011024,0,0,0,107.69438934,-1.75847352,60.39291382,1,0,0,0,0.0618671,-0.00362909,-0.07063659,0,0,0,0
1,138.37,13837,-0.09238576,-0.93741924,0.36665049,9.04279232,31.15399551,19.97323227,0,0,0,107.77698517,-2.0436368,60.62891769,1,0,0,0,0.05859974,-0.0144389,-0.06198277,0,0,0,0
1,138.38,13838,-0.08370949,-0.92233455,0.3533088,8.20180893,33.2660408,19.97342682,0,0,0,107.84922028,-2.33555102,60.88473129,1,0,0,0,0.0448847,-0.02896601,-0.04750224,0,0,0,0
1,138.39,13839,-0.04944041,-0.92806542,0.3585844,9.83175278,32.96974945,20.70244789,0,0,0,107.93670654,-2.63384843,61.13511276,1,0,0,0,0.0054183,-0.02258269,-0.05145574,0,0,0,0
1,138.4,13840,-0.04241194,-0.9280889,0.34928429,9.40982533,29.46160126,21.47121239,0,0,0,108.03079224,-2.92529964,61.3479805,1,0,0,0,-0.00673603,-0.0218619,-0.04077847,0,0,0,0
1,138.41,13841,-0.03069796,-0.92129928,0.3398971,8.1104269,25.1868,22.94164848,0,0,0,108.10289764,-3.22150874,61.51651764,1,0,0,0,-0.02356658,-0.02794011,-0.03006194,0,0,0,0
1,138.42,13842,-0.03464129,-0.90361464,0.33294588,7.39656878,18.95033073,25.13425446,0,0,0,108.17089081,-3.51934791,61.61853027,1,0,0,0,-0.02479802,-0.04496817,-0.02205119,0,0,0,0
1,138.43,13843,-0.05696566,-0.91157269,0.33750039,6.76850367,12.16787243,27.07437897,0,0,0,108.23661804,-3.81454873,61.64958954,1,0,0,0,-0.00763731,-0.0363487,-0.02562017,0,0,0,0
1,138.44,13844,-0.07947657,-0.92973149,0.32550269,6.04699659,8.21011448,28.78646851,0,0,0,108.29795074,-4.11363363,61.63729477,1,0,0,0,0.0096998,-0.01751682,-0.01269331,0,0,0,0
1,138.45,13845,-0.10996835,-0.96532506,0.29158008,5.7474227,6.11872911,29.72792816,0,0,0,108.34515381,-4.42857742,61.6048851,1,0,0,0,0.03490216,0.01875785,0.02206483,0,0,0,0
1,138.46,13846,-0.12607296,-0.98731643,0.28389755,5.52357626,5.90909576,30.51566124,0,0,0,108.40359497,-4.73679972,61.56464005,1,0,0,0,0.04550956,0.04143113,0.03044031,0,0,0,0
1,138.47,13847,-0.11173595,-0.97972649,0.28294224,5.44814777,7.42939949,30.81449699,0,0,0,108.46038818,-5.05262709,61.5376091,1,0,0,0,0.02573561,0.03457141,0.03215029,0,0,0,0
1,138.48,13848,-0.1118842,-0.96902359,0.29251155,6.88638926,7.58141088,31.34115601,0,0,0,108.53175354,-5.37389755,61.5099678,1,0,0,0,0.02033124,0.02470914,0.02353524,0,0,0,0
1,138.49,13849,-0.10570163,-0.95533085,0.30360496,7.49575949,7.8420949,32.14172745,0,0,0,108.60944366,-5.70354652,61.48181152,1,0,0,0,0.00847189,0.01194061,0.01350459,0,0,0,0
1,138.5,13850,-0.09940393,-0.9481585,0.33090794,8.18546867,7.5840764,33.51268005,0,0,0,108.70035553,-6.04192019,61.44512177,1,0,0,0,-0.00365517,0.00579557,-0.01258725,0,0,0,0
1,138.51,13851,-0.09558897,-0.94326282,0.35930023,6.82472277,7.65260696,35.12256622,0,0,0,108.772995,-6.39910889,61.40452957,1,0,0,0,-0.01351125,0.00196904,-0.03983217,0,0,0,0
1,138.52,13852,-0.09689458,-0.94253165,0.37510741,5.58136654,8.7269516,36.97036743,0,0,0,108.8330307,-6.77721357,61.36772156,1,0,0,0,-0.01863766,0.00228736,-0.05481159,0,0,0,0
1,138.53,13853,-0.09398419,-0.94866985,0.38201106,4.46725798,10.24267864,39.04927063,0,0,0,108.88127899,-7.17986155,61.33821487,1,0,0,0,-0.0283373,0.00949012,-0.06111396,0,0,0,0
1,138.54,13854,-0.0868595,-0.95914823,0.3791635,3.38387752,13.1066494,41.42368317,0,0,0,108.91643524,-7.61423349,61.32796097,1,0,0,0,-0.04277834,0.0210643,-0.05793478,0,0,0,0
1,138.55,13855,-0.08012807,-0.97131354,0.36362648,3.63979006,15.50534153,44.63367844,0,0,0,108.95691681,-8.07417774,61.32752609,1,0,0,0,-0.05736915,0.03444184,-0.04212865,0,0,0,0
1,138.56,13856,-0.08448211,-0.98607188,0.34836596,3.46500206,18.07875443,47.92099762,0,0,0,108.98933411,-8.58613014,61.34283829,1,0,0,0,-0.06144047,0.05055435,-0.02664068,0,0,0,0
1,138.57,13857,-0.09842429,-0.99181533,0.36139873,3.31709599,19.78023148,51.1452179,0,0,0,109.01929474,-9.13412189,61.36356735,1,0,0,0,-0.05673429,0.05779693,-0.03964088,0,0,0,0
1,138.58,13858,-0.09267429,-1.01095891,0.3215709,3.15076232,20.05901337,54.77286148,0,0,0,109.04902649,-9.71731853,61.37470627,1,0,0,0,-0.07233752,0.078618,0.00014844,0,0,0,0
1,138.59,13859,-0.10213123,-1.01903152,0.32951719,1.81281698,19.95962906,58.00790405,0,0,0,109.06729126,-10.33076763,61.3739357,1,0,0,0,-0.07319009,0.08850741,-0.00799203,0,0,0,0
1,138.6,13860,-0.09610172,-1.03128076,0.32721204,0.93456846,19.28866196,61.545578,0,0,0,109.07557678,-10.9592905,61.35385513,1,0,0,0,-0.09002954,0.10270487,-0.00613152,0,0,0,0
1,138.61,13861,-0.12423625,-1.0504216,0.33413163,-1.26613569,17.92908669,65.17881012,0,0,0,109.07161713,-11.63387585,61.30942535,1,0,0,0,-0.07305281,0.12391159,-0.01374833,0,0,0,0
1,138.62,13862,-0.13106675,-1.05763352,0.35709608,-2.67354536,18.25538063,68.71721649,0,0,0,109.05591583,-12.34298134,61.2563591,1,0,0,0,-0.07812546,0.13338831,-0.03772587,0,0,0,0
1,138.63,13863,-0.14253226,-1.0665288,0.35795936,-4.63009739,17.86748123,72.42890167,0,0,0,109.02482605,-13.08592892,61.1872673,1,0,0,0,-0.07908824,0.14473949,-0.03987841,0,0,0,0
1,138.64,13864,-0.16000094,-1.08414149,0.34474736,-6.20840311,17.6616745,76.40061188,0,0,0,108.98234558,-13.86580563,61.10315323,1,0,0,0,-0.07463162,0.16502325,-0.0282753,0,0,0,0
1,138.65,13865,-0.16694093,-1.09155357,0.33079827,-8.34082031,18.04000473,80.71845245,0,0,0,108.91775513,-14.67542458,61.00848007,1,0,0,0,-0.08129355,0.17533001,-0.01631761,0,0,0,0
1,138.66,13866,-0.15388818,-1.09699392,0.33784503,-9.7929163,18.12008095,85.11196899,0,0,0,108.84793091,-15.5393858,60.90073395,1,0,0,0,-0.10850509,0.18393296,-0.02567341,0,0,0,0
1,138.67,13867,-0.14288172,-1.11239731,0.35492659,-12.41536617,17.16059875,90.47000885,0,0,0,108.760849,-16.45111656,60.76634216,1,0,0,0,-0.13452239,0.20287929,-0.04540465,0,0,0,0
1,138.68,13868,-0.13095717,-1.15260804,0.39264914,-15.56677914,16.0125351,96.51473999,0,0,0,108.65328979,-17.4166317,60.60125732,1,0,0,0,-0.16225147,0.24701771,-0.08619832,0,0,0,0
1,138.69,13869,-0.14021993,-1.20782959,0.41168028,-18.09541893,14.00559139,102.2617569,0,0,0,108.53489685,-18.43053055,60.39805222,1,0,0,0,-0.16955584,0.30658862,-0.10873009,0,0,0,0
1,138.7,13870,-0.13355291,-1.2680316,0.40079123,-19.82841492,15.46411037,107.79489899,0,0,0,108.40180206,-19.48674774,60.19086456,1,0,0,0,-0.19352537,0.37164074,-0.10166567,0,0,0,0
1,138.71,13871,-0.1163309,-1.32070374,0.37898427,-21.43657112,16.73431206,113.20179749,0,0,0,108.25938416,-20.61394691,59.98096466,1,0,0,0,-0.22874881,0.42968562,-0.08406808,0,0,0,0
1,138.72,13872,-0.08368208,-1.39843655,0.41886017,-25.03055573,17.52833939,118.64488983,0,0,0,108.08805847,-21.79587173,59.76262665,1,0,0,0,-0.28035319,0.51343656,-0.12865484,0,0,0,0
1,138.73,13873,-0.03800125,-1.43648171,0.48587447,-32.65577698,15.85719013,125.15821075,0,0,0,107.85857391,-23.03529739,59.50801086,1,0,0,0,-0.34571299,0.5579806,-0.2013379,0,0,0,0
1,138.74,13874,-3.446e-05,-1.45287502,0.44877937,-31.41965294,17.26286125,133.38426208,0,0,0,107.65067291,-24.3582592,59.24345398,1,0,0,0,-0.40440524,0.58175313,-0.1703335,0,0,0,0
1,138.75,13875,0.02251922,-1.50117862,0.42421162,-33.21950912,19.48770714,139.38223267,0,0,0,107.42697906,-25.73000145,58.98345947,1,0,0,0,-0.44854528,0.63843119,-0.15195706,0,0,0,0
1,138.76,13876,0.08311165,-1.57571018,0.44276774,-37.87050629,26.28708839,145.78399658,0,0,0,107.1388092,-27.2000618,58.77997208,1,0,0,0,-0.53149998,0.72212023,-0.1776678,0,0,0,0
1,138.77,13877,0.15122315,-1.65092683,0.46902314,-39.10087585,36.53845596,152.44709778,0,0,0,106.7982254,-28.7647438,58.67201996,1,0,0,0,-0.62331998,0.80761081,-0.212349,0,0,0,0
1,138.78,13878,0.17236674,-1.72294796,0.44815668,-36.24723816,49.050457,157.89694214,0,0,0,106.42479706,-30.41796684,58.69356918,1,0,0,0,-0.66921055,0.89118278,-0.20068006,0,0,0,0
1,138.79,13879,0.18884353,-1.76047504,0.35138902,-35.44807816,65.48088074,159.49829102,0,0,0,105.95810699,-32.1321907,58.90890503,1,0,0,0,-0.71110541,0.94136488,-0.11426774,0,0,0,0
1,138.8,13880,0.19877908,-1.75551569,0.24981713,-36.51409912,80.84144592,158.39749146,0,0,0,105.36114502,-33.86144257,59.32769394,1,0,0,0,-0.74660295,0.94976008,-0.02494016,0,0,0,0
1,138.81,13881,0.03844969,-1.72066069,0.25123665,-38.89643478,79.50794983,157.15100098,0,0,0,104.72299957,-35.58553314,59.76561737,1,0,0,0,-0.61115372,0.92872357,-0.03965046,0,0,0,0
1,138.82,13882,-0.1806213,-1.64761186,0.38568276,-41.15993881,64.79707336,164.26741028,0,0,0,104.15075684,-37.33798599,60.03659058,1,0,0,0,-0.41664129,0.87067384,-0.18677039,0,0,0,0
1,138.83,13883,-0.26923877,-1.56809485,0.55888969,-40.56480789,48.62601089,174.79646301,0,0,0,103.70513153,-39.15171051,60.10197067,1,0,0,0,-0.35279173,0.80794561,-0.3713547,0,0,0,0
1,138.84,13884,-0.22124624,-1.50074327,0.58310616,-39.41554642,26.90417099,179.75854492,0,0,0,103.44652557,-40.96233368,59.89227676,1,0,0,0,-0.42533863,0.75911903,-0.40465969,0,0,0,0
1,138.85,13885,-0.14948416,-1.38244867,0.51285118,-38.41744995,4.42974234,176.83900452,0,0,0,103.39885712,-42.6661377,59.3913765,1,0,0,0,-0.52022099,0.66006881,-0.3408199,0,0,0,0
1,138.86,13886,-0.11003444,-1.24452019,0.47214794,-32.2089386,-4.50072384,165.77326965,0,0,0,103.48344421,-44.26804352,58.80027008,1,0,0,0,-0.58053493,0.54112113,-0.30397066,0,0,0,0
1,138.87,13887,-0.05224517,-1.14829743,0.42815512,-23.37499046,-5.92259121,151.47406006,0,0,0,103.66256714,-45.72661972,58.21635056,1,0,0,0,-0.65721738,0.46332148,-0.26256105,0,0,0,0
1,138.88,13888,-0.04094807,-1.01200056,0.45420611,-22.10333252,2.28142405,134.38853455,0,0,0,103.75238037,-47.03756332,57.78665161,1,0,0,0,-0.68508315,0.34403414,-0.29092896,0,0,0,0
1,138.89,13889,-0.00172105,-0.7827698,0.43123609,-24.12469673,28.52911377,117.06607819,0,0,0,103.50887299,-48.2423172,57.78861618,1,0,0,0,-0.73905903,0.13000195,-0.27279365,0,0,0,0
1,138.9,13890,-0.05935721,-0.51949924,0.33094501,-24.57933426,57.18622208,88.0109024,0,0,0,102.88444519,-49.20326996,58.30447006,1,0,0,0,-0.6939913,-0.12094029,-0.18168241,0,0,0,0
1,138.91,13891,-0.14267558,-0.27178973,0.19979118,-11.99047661,49.35939026,62.19828415,0,0,0,102.35881805,-49.91806412,58.83757782,1,0,0,0,-0.61958456,-0.36003119,-0.0592635,0,0,0,0
1,138.92,13892,-0.12625629,-0.30476314,0.20933767,1.49802482,39.37604523,53.67338943,0,0,0,102.04740143,-50.5258255,59.26212311,1,0,0,0,-0.64324558,-0.31955838,-0.07487454,0,0,0,0
1,138.93,13893,0.09605027,-0.46337587,0.27933607,6.02095366,58.41614914,31.46108437,0,0,0,101.48618317,-50.95310211,60.06429291,1,0,0,0,-0.87108159,-0.15532103,-0.15075581,0,0,0,0
1,138.94,13894,0.34563434,-0.43587431,0.18933418,-6.84663486,75.54701233,1.02202833,0,0,0,100.50301361,-51.10725403,61.24032974,1,0,0,0,-1.12359047,-0.18112072,-0.07062613,0,0,0,0
1,138.95,13895,0.49776244,-0.40518612,0.12475206,-7.97015333,80.27744293,-29.1294899,0,0,0,99.38677979,-50.8885498,62.56735611,1,0,0,0,-1.27514279,-0.21464156,-0.01760969,0,0,0,0
1,138.96,13896,0.52229685,-0.371043,0.04972794,-8.83891392,70.86462402,-53.5361557,0,0,0,98.34253693,-50.46880341,63.80247879,1,0,0,0,-1.29552543,-0.25574565,0.04639001,0,0,0,0
1,138.97,13897,0.43454531,-0.35693362,-0.00976714,-5.3427515,52.05208969,-75.83216095,0,0,0,97.54616547,-49.78961182,64.76999664,1,0,0,0,-1.20134783,-0.27896091,0.09714177,0,0,0,0
1,138.98,13898,0.31102058,-0.34896654,-0.03592923,0.98008996,36.90017319,-97.55965424,0,0,0,96.9860611,-48.86846161,65.52087402,1,0,0,0,-1.06839573,-0.29888332,0.1174688,0,0,0,0
1,138.99,13899,0.24081182,-0.31501028,-0.03928666,4.70842838,24.32489395,-117.52758789,0,0,0,96.60579681,-47.73019409,66.09290314,1,0,0,0,-0.9859606,-0.34726083,0.11749554,0,0,0,0
1,139,13900,0.20048065,-0.32207093,-0.01166306,8.37142944,10.78691864,-134.811203,0,0,0,96.40512085,-46.36662674,66.47393799,1,0,0,0,-0.93069357,-0.35676819,0.08860414,0,0,0,0
1,139.01,13901,0.15879974,-0.35114282,0.04380738,11.78042316,-5.76438141,-151.39225769,0,0,0,96.40864563,-44.85569763,66.63345337,1,0,0,0,-0.87125915,-0.34616598,0.03433307,0,0,0,0
1,139.02,13902,0.12112362,-0.38753933,0.11270344,14.46791267,-18.39744568,-169.35324097,0,0,0,96.54519653,-43.15221024,66.64488983,1,0,0,0,-0.81332189,-0.32949841,-0.03117392,0,0,0,0
1,139.03,13903,0.09333974,-0.43047088,0.15068223,16.24075317,-23.43275642,-188.77085876,0,0,0,96.72106934,-41.25009537,66.62505341,1,0,0,0,-0.76215482,-0.30788371,-0.06448362,0,0,0,0
1,139.04,13904,0.08470719,-0.49690574,0.15159628,16.36322975,-19.97021294,-206.00318909,0,0,0,96.84674072,-39.18091583,66.68404388,1,0,0,0,-0.72704571,-0.26405269,-0.06082433,0,0,0,0
1,139.05,13905,0.06055867,-0.57208169,0.15685926,17.85056305,-24.63761902,-220.05825806,0,0,0,97.01683807,-36.9409523,66.70262146,1,0,0,0,-0.67345506,-0.21221164,-0.06136245,0,0,0,0
1,139.06,13906,0.01339995,-0.63847798,0.19238211,23.48669815,-36.65117264,-233.91819763,0,0,0,97.30340576,-34.57432175,66.61357117,1,0,0,0,-0.59371221,-0.16943695,-0.09053014,0,0,0,0
1,139.07,13907,-0.04265249,-0.75411499,0.2284584,27.99121284,-42.23049164,-250.92579651,0,0,0,97.64419556,-32.0314827,66.50308228,1,0,0,0,-0.50185549,-0.07733548,-0.11871558,0,0,0,0
1,139.08,13908,-0.0910323,-0.86699522,0.24954909,29.85681725,-40.69804764,-260.43261719,0,0,0,97.97222137,-29.39605522,66.44552612,1,0,0,0,-0.414819,0.01255007,-0.13178003,0,0,0,0
1,139.09,13909,-0.15124136,-0.97284353,0.28167495,34.49363327,-41.43193817,-268.16262817,0,0,0,98.33336639,-26.68283463,66.41149902,1,0,0,0,-0.31365561,0.09662342,-0.155459,0,0,0,0
1,139.1,13910,-0.23210424,-1.11127782,0.29626539,37.08145142,-32.05439758,-275.95837402,0,0,0,98.66564941,-23.89863396,66.50945282,1,0,0,0,-0.18967485,0.21474634,-0.16155693,0,0,0,0
1,139.11,13911,-0.30188346,-1.22745657,0.27337778,37.50509644,-20.17412376,-281.86071777,0,0,0,98.94507599,-21.08245659,66.76067352,1,0,0,0,-0.07494875,0.31229007,-0.13097984,0,0,0,0
1,139.12,13912,-0.36357382,-1.26572418,0.24637386,37.196064,-9.0150547,-284.52526855,0,0,0,99.1890564,-18.2586441,67.14228821,1,0,0,0,0.03280193,0.33399212,-0.09712798,0,0,0,0
1,139.13,13913,-0.3986136,-1.29374099,0.21541427,38.25214767,4.64606857,-285.39205933,0,0,0,99.41860962,-15.44986725,67.67215729,1,0,0,0,0.11462706,0.34770319,-0.05992853,0,0,0,0
1,139.14,13914,-0.36359137,-1.33270991,0.15184888,38.22878265,14.99689484,-283.83480835,0,0,0,99.64622498,-12.67556953,68.30911255,1,0,0,0,0.1265212,0.3748005,0.00946891,0,0,0,0
1,139.15,13915,-0.3202818,-1.39935923,0.18844883,45.81032944,0.31196186,-281.44085693,0,0,0,100.00636292,-9.90403461,68.80190277,1,0,0,0,0.13047418,0.43213159,-0.02034814,0,0,0,0
1,139.16,13916,-0.33532193,-1.50195515,0.19086131,51.25836182,-9.06595516,-277.13833618,0,0,0,100.45835114,-7.16062355,69.20948029,1,0,0,0,0.19294415,0.52814722,-0.0141024,0,0,0,0
1,139.17,13917,-0.37331712,-1.52142167,0.20005973,48.58811188,-13.0647974,-272.28799438,0,0,0,100.90588379,-4.46072435,69.5878067,1,0,0,0,0.27800816,0.54349685,-0.01458193,0,0,0,0
1,139.18,13918,-0.36474171,-1.48819804,0.25157884,47.49918747,-18.14625549,-268.71231079,0,0,0,101.36210632,-1.7891072,69.92905426,1,0,0,0,0.31607053,0.50845116,-0.05779441,0,0,0,0
1,139.19,13919,-0.33178464,-1.51838911,0.29642397,50.28160095,-25.31241989,-265.92596436,0,0,0,101.86238098,0.86669886,70.21627045,1,0,0,0,0.32955402,0.53915453,-0.09413434,0,0,0,0
1,139.2,13920,-0.34883225,-1.57821012,0.33364961,51.19044495,-35.829319,-263.06869507,0,0,0,102.38163757,3.50758624,70.41925049,1,0,0,0,0.3927919,0.60177088,-0.12279022,0,0,0,0
1,139.21,13921,-0.39861006,-1.63022208,0.39017817,56.18476105,-52.63492203,-259.60064697,0,0,0,102.94759369,6.15594244,70.47475433,1,0,0,0,0.48859695,0.65884376,-0.17074239,0,0,0,0
1,139.22,13922,-0.48822191,-1.61431026,0.38668391,61.06072235,-70.70531464,-254.06364441,0,0,0,103.54361725,8.79112625,70.36766052,1,0,0,0,0.62399846,0.65031081,-0.15843758,0,0,0,0
1,139.23,13923,-0.60510141,-1.55000663,0.36762038,67.09122467,-93.90470886,-244.03396606,0,0,0,104.15501404,11.38555336,70.03465271,1,0,0,0,0.78585279,0.59546697,-0.13094731,0,0,0,0
1,139.24,13924,-0.75527352,-1.57332838,0.34949601,73.52407074,-115.42974091,-232.27458191,0,0,0,104.76904297,13.92303276,69.48339081,1,0,0,0,0.97984016,0.63014913,-0.10490993,0,0,0,0
1,139.25,13925,-0.90126956,-1.62752378,0.30555466,78.21109772,-119.50632477,-218.95812988,0,0,0,105.3914566,16.33639145,68.87892151,1,0,0,0,1.16758835,0.69723916,-0.05356273,0,0,0,0
1,139.26,13926,-1.08054864,-1.69052553,0.15078181,76.25886536,-103.9118576,-206.23847961,0,0,0,106.01573944,18.60283279,68.41568756,1,0,0,0,1.38569808,0.77420479,0.10827813,0,0,0,0
1,139.27,13927,-1.27243102,-1.6904825,0.05410413,55.43690109,-74.39466858,-189.36143494,0,0,0,106.50524139,20.62889481,68.22081757,1,0,0,0,1.61263871,0.78812957,0.21031766,0,0,0,0
1,139.28,13928,-1.37419641,-1.55299258,0.14732268,36.63472748,-51.26280975,-170.11698914,0,0,0,106.87093353,22.40555954,68.21833038,1,0,0,0,1.74485922,0.6636281,0.12019336,0,0,0,0
1,139.29,13929,-1.50412679,-1.42135084,0.39819697,26.22728348,-41.11572266,-146.24613953,0,0,0,107.14801025,23.92432213,68.25605011,1,0,0,0,1.90089738,0.54380506,-0.12906386,0,0,0,0
1,139.3,13930,-1.69654989,-1.24326158,0.53497821,21.99126434,-30.99035263,-109.01171112,0,0,0,107.38157654,25.04236984,68.28840637,1,0,0,0,2.11390781,0.37557513,-0.26496923,0,0,0,0
1,139.31,13931,-1.75515914,-1.19134474,0.4502908,28.6872654,-20.06887627,-55.66248703,0,0,0,107.65697479,25.63363457,68.26187134,1,0,0,0,2.18494773,0.33051261,-0.17781775,0,0,0,0
1,139.32,13932,-1.70026791,-1.12544489,0.33770728,18.58979225,-21.95324326,-4.8835578,0,0,0,107.74916077,25.74702454,68.04613495,1,0,0,0,2.13469386,0.2675454,-0.06333119,0,0,0,0
1,139.33,13933,-1.57040274,-1.083974,0.34686238,8.0705843,-29.5180912,40.65380859,0,0,0,107.63576508,25.44950294,67.59721375,1,0,0,0,2.00230193,0.22471258,-0.07276433,0,0,0,0
1,139.34,13934,-1.32854521,-1.17218244,0.49421814,2.36317992,-31.72077751,73.29862213,0,0,0,107.41370392,24.84596825,67.01934814,1,0,0,0,1.75262928,0.30843222,-0.22204608,0,0,0,0
1,139.35,13935,-0.95022756,-0.93266708,0.38960573,-17.77449417,-43.68130875,92.02318573,0,0,0,106.92385101,24.03263664,66.27053833,1,0,0,0,1.3629092,0.06221893,-0.12129489,0,0,0,0
1,139.36,13936,-0.39157578,-1.00741363,0.21056662,0.84615314,-54.75839615,117.65093994,0,0,0,106.55561066,23.06375885,65.32878876,1,0,0,0,0.78943819,0.12864438,0.05295566,0,0,0,0
1,139.37,13937,1.39090466,-1.1315515,0.12219541,-25.13550949,-19.36709976,119.54113007,0,0,0,106.08709717,21.9711628,64.76387024,1,0,0,0,-1.01014662,0.24381962,0.13649853,0,0,0,0
1,139.38,13938,3.82845831,-1.58852553,-0.34727314,-25.28894615,-34.7674942,86.42803955,0,0,0,105.61017609,21.23426056,64.14984894,1,0,0,0,-3.463063,0.69298911,0.60121191,0,0,0,0
1,139.39,13939,0.47220534,-1.68716049,-0.67708385,-7.98384094,-237.1427002,0.07939797,0,0,0,104.62793732,21.85087967,61.68791199,1,0,0,0,-0.10462564,0.78883207,0.91761708,0,0,0,0
1,139.4,13940,-1.63337374,-2.32112718,-0.02036372,41.91019821,-138.64924622,53.16235352,0,0,0,104.4522171,21.67626762,60.09822083,1,0,0,0,2.00617814,1.42249954,0.25162062,0,0,0,0
1,139.41,13941,-0.6469835,-1.48580563,0.05939156,-17.77952385,11.37664986,99.30452728,0,0,0,104.22160339,20.68604279,59.95231247,1,0,0,0,1.00609672,0.58154118,0.17151681,0,0,0,0
1,139.42,13942,0.11512274,-0.9157812,-0.09306496,12.06478119,-22.3733387,90.84173584,0,0,0,104.18036652,19.86011696,59.4839592,1,0,0,0,0.22963858,0.00569046,0.32297409,0,0,0,0
1,139.43,13943,-0.20392464,-1.18959367,-0.14091447,28.37267876,-44.45203018,87.52946472,0,0,0,104.23545837,19.12062263,58.79899979,1,0,0,0,0.53600717,0.27520424,0.37243214,0,0,0,0
1,139.44,13944,-0.18910138,-1.24936032,0.18281531,27.93098831,-13.87584305,80.23072815,0,0,0,104.40161133,18.37747765,58.44751358,1,0,0,0,0.50901943,0.33140865,0.05171247,0,0,0,0
1,139.45,13945,-0.03676524,-1.0975095,0.79662287,42.11299896,-20.6987648,75.32192993,0,0,0,104.72516632,17.68385887,58.04898453,1,0,0,0,0.34481996,0.17678154,-0.55714798,0,0,0,0
1,139.46,13946,-0.07115417,-0.96633893,1.06944335,49.21654129,-22.52952003,70.97860718,0,0,0,105.09202576,17.05590439,57.62950134,1,0,0,0,0.36838067,0.04388392,-0.82302719,0,0,0,0
1,139.47,13947,-0.03547385,-1.01137054,0.68243313,40.34046555,-11.83135509,72.38581085,0,0,0,105.40388489,16.38871574,57.31135941,1,0,0,0,0.32195854,0.08723713,-0.42966634,0,0,0,0
1,139.48,13948,0.22824609,-0.98028266,0.43749872,34.03403473,-19.21191406,77.01325226,0,0,0,105.63183594,15.6981039,56.90434265,1,0,0,0,0.04658585,0.05399026,-0.17974395,0,0,0,0
1,139.49,13949,0.08531103,-0.79860187,0.3563979,26.4032135,-22.30106354,69.23062134,0,0,0,105.78508759,15.09201813,56.48723602,1,0,0,0,0.17881948,-0.12976365,-0.09493399,0,0,0,0
1,139.5,13950,-0.09413145,-0.81110507,0.39735609,24.28075027,-2.02685905,64.71834564,0,0,0,106.001297,14.42241001,56.29671478,1,0,0,0,0.3479135,-0.11911537,-0.13226727,0,0,0,0
1,139.51,13951,-0.07539272,-0.92305523,0.36018232,18.70681,30.96182632,61.39567184,0,0,0,106.21992493,13.74653435,56.4276619,1,0,0,0,0.31734177,-0.00899574,-0.09049791,0,0,0,0
1,139.52,13952,-0.01049313,-1.01001787,0.22400038,11.54661179,61.66862869,54.77566528,0,0,0,106.43945312,13.04741669,56.87765884,1,0,0,0,0.24071425,0.07627337,0.05005626,0,0,0,0
1,139.53,13953,0.05618337,-1.04444921,0.16369459,10.06261826,72.2767868,51.92653656,0,0,0,106.6628418,12.34375954,57.43619919,1,0,0,0,0.16208822,0.10913882,0.11476378,0,0,0,0
1,139.54,13954,0.21004924,-1.03846776,0.16916606,9.95685959,70.21218109,53.51341629,0,0,0,106.87249756,11.6288414,57.96563721,1,0,0,0,-0.00387355,0.10170202,0.11358544,0,0,0,0
1,139.55,13955,0.30359486,-0.98427927,0.21767132,14.50410843,51.10997391,58.09731674,0,0,0,107.07487488,10.93933678,58.28814316,1,0,0,0,-0.10954545,0.04615647,0.06913589,0,0,0,0
1,139.56,13956,0.30398238,-0.91070902,0.27874157,20.80800438,27.87051392,62.43595886,0,0,0,107.29844666,10.26057339,58.37138367,1,0,0,0,-0.12150036,-0.02845164,0.01223194,0,0,0,0
1,139.57,13957,0.22709215,-0.88627398,0.35335624,31.47593498,-4.34311342,67.10536194,0,0,0,107.5708313,9.63341331,58.12525177,1,0,0,0,-0.05574661,-0.05350614,-0.05764855,0,0,0,0
1,139.58,13958,0.11067685,-0.90150309,0.42336243,31.22106171,-9.5730896,67.02931976,0,0,0,107.83454132,9.02396774,57.82624435,1,0,0,0,0.05008425,-0.03856049,-0.1226534,0,0,0,0
1,139.59,13959,0.00082579,-0.92803198,0.41947919,26.29326057,-1.57432747,63.40411377,0,0,0,108.06508636,8.4256115,57.61336136,1,0,0,0,0.1495845,-0.0123017,-0.11429134,0,0,0,0
1,139.6,13960,-0.05064267,-0.96616948,0.37785128,21.60493469,13.70451736,60.1242981,0,0,0,108.27864838,7.78318596,57.55968475,1,0,0,0,0.1904456,0.02552545,-0.06860576,0,0,0,0
1,139.61,13961,-0.02288541,-0.95257556,0.35675648,15.64946938,28.41389847,56.94077301,0,0,0,108.4468689,7.15322495,57.65071487,1,0,0,0,0.15150592,0.01150279,-0.04398099,0,0,0,0
1,139.62,13962,0.01634682,-0.94280666,0.34360048,13.11175251,38.07603073,53.97089386,0,0,0,108.60066223,6.52048683,57.8416214,1,0,0,0,0.10134184,0.00132635,-0.02776171,0,0,0,0
1,139.63,13963,0.09319834,-0.9469921,0.35100955,8.31243229,45.27389526,53.88700104,0,0,0,108.71161652,5.86508131,58.09964371,1,0,0,0,0.01327722,0.00502673,-0.03264865,0,0,0,0
1,139.64,13964,0.18949459,-0.93003935,0.37262836,6.52218866,39.13711548,55.69148254,0,0,0,108.79550171,5.21192884,58.292099,1,0,0,0,-0.09441289,-0.01251653,-0.05241355,0,0,0,0
1,139.65,13965,0.20223108,-0.90526986,0.40093198,7.36051083,25.13661957,58.01853943,0,0,0,108.89102173,4.59978294,58.34195328,1,0,0,0,-0.1182587,-0.03775777,-0.07900245,0,0,0,0
1,139.66,13966,0.13101645,-0.90556508,0.41229287,8.57346535,9.82870865,58.78567123,0,0,0,108.96947479,4.01184416,58.24393845,1,0,0,0,-0.05724989,-0.03770933,-0.08858999,0,0,0,0
1,139.67,13967,0.03511093,-0.93413681,0.39941993,7.10737276,5.99345636,59.03839111,0,0,0,109.03172302,3.43411922,58.108078,1,0,0,0,0.02858786,-0.00939767,-0.07433973,0,0,0,0
1,139.68,13968,-0.04619855,-0.9566341,0.38610679,4.98197365,8.87506771,58.5559082,0,0,0,109.07558441,2.85167384,58.00063324,1,0,0,0,0.09976037,0.01282601,-0.05999444,0,0,0,0
1,139.69,13969,-0.05725531,-0.97200209,0.36859584,2.04795742,16.96660614,55.72985077,0,0,0,109.09500885,2.26952505,57.9787178,1,0,0,0,0.10066621,0.02788317,-0.04187436,0,0,0,0
1,139.7,13970,-0.04629367,-0.9684025,0.33707768,0.80987781,24.29829788,53.76654434,0,0,0,109.10349274,1.66894209,58.03399277,1,0,0,0,0.07940722,0.0239796,-0.01002979,0,0,0,0
1,139.71,13971,-0.02880111,-0.96882254,0.31961539,0.87520152,28.40951157,50.8743515,0,0,0,109.1146698,1.09524333,58.13592148,1,0,0,0,0.05166108,0.02417883,0.00767335,0,0,0,0
1,139.72,13972,-0.00755298,-0.96121824,0.32173556,1.36883521,30.22416115,50.06724167,0,0,0,109.13006592,0.52319473,58.25749207,1,0,0,0,0.02040976,0.01649007,0.00585524,0,0,0,0
1,139.73,13973,0.00606146,-0.95004046,0.32943174,2.15003824,27.31255722,49.63837433,0,0,0,109.15200043,-0.03529843,58.35276413,1,0,0,0,-0.00303516,0.00533934,-0.00152443,0,0,0,0
1,139.74,13974,-0.00698175,-0.94691759,0.33649746,3.06242657,21.88176155,49.66818237,0,0,0,109.18244171,-0.57628834,58.39638138,1,0,0,0,0.00042837,0.00240043,-0.00811103,0,0,0,0
1,139.75,13975,-0.01657718,-0.94538665,0.33385229,3.51971126,17.4668026,49.43553543,0,0,0,109.21887207,-1.10242152,58.39893723,1,0,0,0,0.00077359,0.00115988,-0.00494584,0,0,0,0
1,139.76,13976,-0.04645233,-0.9398303,0.33955029,3.75972152,12.98502445,49.27476501,0,0,0,109.25743103,-1.61043286,58.35918427,1,0,0,0,0.0216428,-0.00401089,-0.01009271,0,0,0,0
1,139.77,13977,-0.08364216,-0.94249213,0.33907601,3.74401331,10.95796108,48.34111404,0,0,0,109.29669189,-2.10291767,58.3030014,1,0,0,0,0.0501621,-0.00088345,-0.00905196,0,0,0,0
1,139.78,13978,-0.11075939,-0.94251388,0.33832368,3.96755004,11.28537083,47.78226089,0,0,0,109.33847046,-2.59117866,58.25138474,1,0,0,0,0.06872746,-0.00031878,-0.00772718,0,0,0,0
1,139.79,13979,-0.12846957,-0.94414037,0.33212882,4.68217897,13.27252102,46.53699875,0,0,0,109.38671875,-3.07423806,58.22228241,1,0,0,0,0.07800425,0.00193706,-0.00091806,0,0,0,0
1,139.8,13980,-0.14431149,-0.95127177,0.31972742,5.46402931,16.06804466,44.67047882,0,0,0,109.43702698,-3.56676173,58.22782135,1,0,0,0,0.0854233,0.00980297,0.01218053,0,0,0,0
1,139.81,13981,-0.14046644,-0.95079952,0.3218191,5.55823851,18.71432686,43.07310486,0,0,0,109.49041748,-4.03523874,58.2608223,1,0,0,0,0.07313172,0.01012748,0.01074209,0,0,0,0
1,139.82,13982,-0.12611796,-0.94235343,0.32457379,5.79244328,19.49320602,41.69698715,0,0,0,109.54502869,-4.49337196,58.30537796,1,0,0,0,0.05075037,0.00253627,0.00868065,0,0,0,0
1,139.83,13983,-0.11634377,-0.93922627,0.33174092,5.94769955,18.52153206,41.14115524,0,0,0,109.60148621,-4.94306183,58.34218979,1,0,0,0,0.03310306,0.0003264,0.00222494,0,0,0,0
1,139.84,13984,-0.12096133,-0.94007677,0.32869673,5.17966413,17.16475677,40.71458054,0,0,0,109.65103912,-5.3842063,58.36721802,1,0,0,0,0.02998157,0.002121,0.00590308,0,0,0,0
1,139.85,13985,-0.11767756,-0.93257082,0.33568618,4.19547653,16.21506882,40.9429245,0,0,0,109.6924057,-5.82815886,58.38251877,1,0,0,0,0.01903744,-0.00444572,-0.00062583,0,0,0,0
1,139.86,13986,-0.12898718,-0.93097049,0.34477064,4.98028326,14.01660252,41.11738205,0,0,0,109.74292755,-6.26252127,58.37571335,1,0,0,0,0.02272391,-0.00502834,-0.00919679,0,0,0,0
1,139.87,13987,-0.13614292,-0.94141763,0.3399376,5.48002243,14.00641155,41.72362137,0,0,0,109.79878998,-6.70253706,58.36634445,1,0,0,0,0.02230171,0.00652175,-0.00377512,0,0,0,0
1,139.88,13988,-0.14086625,-0.9487192,0.33649987,6.30480289,14.06166553,42.29164886,0,0,0,109.86320496,-7.14808273,58.35506058,1,0,0,0,0.01934073,0.01504467,0.00036591,0,0,0,0
1,139.89,13989,-0.13173854,-0.94867748,0.35235325,6.28221607,14.22518253,43.20381165,0,0,0,109.92774963,-7.60275173,58.34169388,1,0,0,0,0.00239561,0.01631215,-0.01477324,0,0,0,0
1,139.9,13990,-0.11047065,-0.95008874,0.35841972,6.98458624,15.29863358,44.85278702,0,0,0,110.00158691,-8.06840992,58.33086777,1,0,0,0,-0.02687924,0.01913942,-0.02009563,0,0,0,0
1,139.91,13991,-0.10385373,-0.95714766,0.36863452,8.19421482,15.75856495,47.66077042,0,0,0,110.08576965,-8.57015896,58.31539536,1,0,0,0,-0.04187177,0.02780373,-0.02940351,0,0,0,0
1,139.92,13992,-0.09528805,-0.96791917,0.36833087,8.79782867,16.67065239,50.3065033,0,0,0,110.17632294,-9.09985447,58.29856873,1,0,0,0,-0.05940595,0.04038665,-0.0281159,0,0,0,0
1,139.93,13993,-0.08393686,-0.97171152,0.3730531,7.85824108,16.82318878,53.60964203,0,0,0,110.25944519,-9.66106033,58.27078247,1,0,0,0,-0.08021262,0.04612552,-0.03197004,0,0,0,0
1,139.94,13994,-0.07113111,-0.97454435,0.3779043,6.90662003,16.35386276,57.65806961,0,0,0,110.3367157,-10.25857067,58.223423,1,0,0,0,-0.1030504,0.05104537,-0.03614197,0,0,0,0
1,139.95,13995,-0.08062533,-0.99071592,0.37436152,4.9553566,15.35999107,62.23751068,0,0,0,110.3997345,-10.87708473,58.14733124,1,0,0,0,-0.10418131,0.06944685,-0.03216179,0,0,0,0
1,139.96,13996,-0.09499197,-1.01109362,0.36543256,2.95150113,15.79070663,66.27442169,0,0,0,110.44576263,-11.55327129,58.06241989,1,0,0,0,-0.10089305,0.09214778,-0.02315133,0,0,0,0
1,139.97,13997,-0.11278083,-1.03563488,0.36683485,1.77204788,15.7361412,70.08553314,0,0,0,110.48407745,-12.26491642,57.96261597,1,0,0,0,-0.09504153,0.11925139,-0.02472539,0,0,0,0
1,139.98,13998,-0.12216594,-1.05548871,0.35911143,-0.39736426,16.28243828,74.80830383,0,0,0,110.50466156,-13.02265453,57.85048676,1,0,0,0,-0.09827089,0.14184962,-0.01755993,0,0,0,0
1,139.99,13999,-0.12807916,-1.07014263,0.35812351,-3.03658676,16.66257668,79.51735687,0,0,0,110.50354767,-13.8258028,57.72457123,1,0,0,0,-0.10572533,0.15946743,-0.01754975,0,0,0,0
1,140,14000,-0.13127694,-1.07582378,0.35953492,-5.07178211,16.28441238,84.19258118,0,0,0,110.48472595,-14.65386486,57.5767746,1,0,0,0,-0.11652274,0.16834566,-0.02032667,0,0,0,0
1,140.01,14001,-0.14959925,-1.08014691,0.35988367,-7.60391808,14.59864998,88.36850739,0,0,0,110.45516968,-15.53279781,57.3983345,1,0,0,0,-0.11259716,0.17605841,-0.02245482,0,0,0,0
1,140.02,14002,-0.17185307,-1.09284282,0.37109733,-9.81516552,12.82150936,92.85438538,0,0,0,110.41551208,-16.44766998,57.1860466,1,0,0,0,-0.10548756,0.19252254,-0.03570895,0,0,0,0
1,140.03,14003,-0.1871562,-1.11315095,0.39840564,-12.51416969,12.50336361,97.29346466,0,0,0,110.35784149,-17.40322685,56.95427322,1,0,0,0,-0.10591121,0.21691751,-0.06545645,0,0,0,0
1,140.04,14004,-0.20627421,-1.14444602,0.42033327,-14.42093563,13.65042782,101.44263458,0,0,0,110.28607941,-18.40191841,56.71857071,1,0,0,0,-0.10314587,0.25266951,-0.09022734,0,0,0,0
1,140.05,14005,-0.21039261,-1.18739283,0.42998761,-15.83059502,16.75128746,104.50629425,0,0,0,110.19657898,-19.42602348,56.50116348,1,0,0,0,-0.11589292,0.30046481,-0.10307613,0,0,0,0
1,140.06,14006,-0.2011666,-1.22824514,0.42012998,-16.97971153,20.58543777,107.5054245,0,0,0,110.09102631,-20.50620461,56.31290436,1,0,0,0,-0.14245617,0.34652108,-0.09693085,0,0,0,0
