SensorId,TimeStamp (s),FrameNumber,AccX (g),AccY (g),AccZ (g),GyroX (deg/s),GyroY (deg/s),GyroZ (deg/s),MagX (uT),MagY (uT),MagZ (uT),EulerX (deg),EulerY (deg),EulerZ (deg),QuatW,QuatX,QuatY,QuatZ,LinAccX (g),LinAccY (g),LinAccZ (g),Pressure (kPa),Altitude (m),Temperature (degC),HeaveMotion (m)
1,322.09,32209,1.00280476,-1.09253502,-0.36496493,8.69119072,-31.83858109,-33.07336044,0,0,0,114.58848572,-10.79145241,64.05157471,1,0,0,0,-1.19302297,0.19961876,0.7730245,0,0,0,0
1,322.1,32210,0.96631014,-1.06296384,-0.40660229,-4.03218269,-5.5933013,-59.53941345,0,0,0,114.51192474,-10.22666359,64.25152588,1,0,0,0,-1.14766538,0.16849098,0.81528366,0,0,0,0
1,322.11,32211,0.98012078,-1.08165622,-0.42334759,-17.70633316,18.22585106,-85.1474762,0,0,0,114.18239594,-9.45901108,64.91983032,1,0,0,0,-1.15005445,0.18383753,0.8295812,0,0,0,0
1,322.12,32212,0.98071635,-1.07320011,-0.40830266,-32.78240967,36.21574783,-107.3597641,0,0,0,113.73261261,-8.62500286,65.69648743,1,0,0,0,-1.13624763,0.17018105,0.80873257,0,0,0,0
1,322.13,32213,0.92610216,-1.06546891,-0.35711905,-45.09181213,48.93262863,-124.1383667,0,0,0,113.14668274,-7.68071413,66.64892578,1,0,0,0,-1.06599653,0.15657407,0.74994171,0,0,0,0
1,322.14,32214,0.32584441,-0.96519428,0.01331236,-47.73915863,56.37830734,-127.78049469,0,0,0,112.54103088,-6.72204447,67.67272186,1,0,0,0,-0.44910523,0.05019228,0.37080687,0,0,0,0
1,322.15,32215,-0.74925417,-0.77487504,0.89214152,-52.56068802,75.29718018,-134.62059021,0,0,0,111.88360596,-5.76019144,68.88581085,1,0,0,0,0.64255118,-0.14617953,-0.51765406,0,0,0,0
1,322.16,32216,-3.49540091,-0.79522216,2.54985952,-38.17073822,84.71617126,-141.21287537,0,0,0,111.38262177,-4.76230001,70.20023346,1,0,0,0,3.40591669,-0.13113421,-2.18403435,0,0,0,0
1,322.17,32217,-3.22783661,-1.73568094,0.2210788,-17.68271065,119.24694061,-40.75138474,0,0,0,111.10558319,-4.81430006,71.46442413,1,0,0,0,3.14860225,0.80635077,0.1395559,0,0,0,0
1,322.18,32218,2.68988013,-2.6432972,-2.75051165,-112.60586548,280.30493164,33.16329575,0,0,0,109.73126221,-6.10741711,73.98086548,1,0,0,0,-2.79038572,1.71079242,3.09726381,0,0,0,0
1,322.19,32219,1.64898491,-3.30462527,-0.53379565,-59.67763138,-13.25863743,-172.32574463,0,0,0,109.08825684,-4.438797,74.42440796,1,0,0,0,-1.74010682,2.36409307,0.86088824,0,0,0,0
1,322.2,32220,0.89891553,-1.27161729,0.97705084,-29.24641418,96.43390656,-140.09899902,0,0,0,108.70384216,-3.42546892,75.79405212,1,0,0,0,-0.96472573,0.32738292,-0.65445632,0,0,0,0
1,322.21,32221,0.72311574,-0.48984358,0.59202254,-43.72816467,106.44845581,-154.25798035,0,0,0,108.21203613,-2.2319808,77.31235504,1,0,0,0,-0.77044988,-0.45807195,-0.2771028,0,0,0,0
1,322.22,32222,0.06823381,-0.7516911,0.52132952,-8.16500378,12.64890099,-142.76222229,0,0,0,108.11373901,-0.91492581,77.87769318,1,0,0,0,-0.09285259,-0.19827241,-0.21000847,0,0,0,0
1,322.23,32223,-0.16760768,-0.64074361,0.24572349,-41.01384735,20.05809021,-114.11667633,0,0,0,107.70085144,0.109459,78.41995239,1,0,0,0,0.16344205,-0.31099796,0.06110388,0,0,0,0
1,322.24,32224,0.4835031,-0.74209082,0.05139365,-26.24013519,22.11917877,-94.44665527,0,0,0,107.44232178,0.94297093,78.91578674,1,0,0,0,-0.47261527,-0.21140938,0.2497718,0,0,0,0
1,322.25,32225,0.68356621,-0.80842167,0.408966,-17.7533493,-34.18702698,-93.70943451,0,0,0,107.26312256,1.93927383,78.86878967,1,0,0,0,-0.65641695,-0.14584963,-0.11130197,0,0,0,0
1,322.26,32226,0.54135895,-0.92505348,0.4386377,-10.25001621,-57.63980103,-93.88526917,0,0,0,107.1428833,3.06204391,78.62194824,1,0,0,0,-0.49570155,-0.02926376,-0.14340428,0,0,0,0
1,322.27,32227,0.27090022,-1.0945586,0.14598244,-14.75136662,-77.92598724,-92.1619339,0,0,0,106.9651413,4.17171907,78.14644623,1,0,0,0,-0.20536858,0.1405316,0.1464349,0,0,0,0
1,322.28,32228,0.24888775,-0.9255299,0.24519561,-14.92281055,-78.61701965,-79.02611542,0,0,0,106.77301788,5.15598011,77.62151337,1,0,0,0,-0.16520604,-0.02825351,0.04337305,0,0,0,0
1,322.29,32229,0.49998999,-0.99406725,0.13548334,0.23148045,-89.00190735,-66.36715698,0,0,0,106.71021271,6.04786396,76.95716858,1,0,0,0,-0.40037423,0.04117288,0.15096074,0,0,0,0
1,322.3,32230,0.36963537,-1.01469326,0.14010356,7.91224051,-87.0198288,-57.16324615,0,0,0,106.71382904,6.84545755,76.28370667,1,0,0,0,-0.25540856,0.06315316,0.14539514,0,0,0,0
1,322.31,32231,0.07216952,-0.9022311,0.29947373,17.13305664,-58.90798187,-49.56003952,0,0,0,106.83869934,7.47521162,75.8523407,1,0,0,0,0.05406113,-0.04750621,-0.01302064,0,0,0,0
1,322.32,32232,0.09331309,-0.96234244,0.31618011,17.3806324,-36.23934174,-46.82843781,0,0,0,106.98391724,8.02865124,75.63993073,1,0,0,0,0.04285123,0.01460716,-0.02765019,0,0,0,0
1,322.33,32233,0.21060829,-0.97855461,0.21122028,15.6766777,-22.42692757,-44.08987427,0,0,0,107.12839508,8.5159111,75.55393982,1,0,0,0,-0.0656307,0.03271836,0.07924385,0,0,0,0
1,322.34,32234,0.29024631,-0.98670381,0.23632422,22.43787766,-14.80142689,-43.85523605,0,0,0,107.35105896,8.97862053,75.54234314,1,0,0,0,-0.13707641,0.04300937,0.05688864,0,0,0,0
1,322.35,32235,0.26974675,-0.98018658,0.31271255,24.76322174,-3.74304605,-39.79851532,0,0,0,107.61225891,9.36946678,75.62728882,1,0,0,0,-0.10942142,0.03888676,-0.0156514,0,0,0,0
1,322.36,32236,0.29399031,-0.91781014,0.45360923,21.9182148,-3.6232779,-34.39004517,0,0,0,107.93502045,9.77081394,75.62944031,1,0,0,0,-0.1271762,-0.02107161,-0.15249914,0,0,0,0
1,322.37,32237,0.33493316,-0.88728613,0.50520515,18.70624733,-9.19757557,-26.62932396,0,0,0,108.12116241,10.05253506,75.62434387,1,0,0,0,-0.16215248,-0.04915978,-0.19989643,0,0,0,0
1,322.38,32238,0.33635506,-0.89709216,0.50587302,13.72120667,-20.9389286,-19.56707764,0,0,0,108.23358154,10.30378151,75.4842453,1,0,0,0,-0.15905248,-0.0378543,-0.19856684,0,0,0,0
1,322.39,32239,0.3397699,-0.90347582,0.47635409,11.53179932,-28.87840652,-12.42422867,0,0,0,108.30563354,10.51230431,75.24502563,1,0,0,0,-0.15859756,-0.03034249,-0.16787559,0,0,0,0
1,322.4,32240,0.31577951,-0.90032196,0.44682506,8.75178432,-37.74071503,-4.65506315,0,0,0,108.32881927,10.6751461,74.89541626,1,0,0,0,-0.13151608,-0.03270775,-0.13779107,0,0,0,0
1,322.41,32241,0.2255231,-0.89938307,0.41854909,6.09948874,-43.22968292,0.43994027,0,0,0,108.3822403,10.81367397,74.41549683,1,0,0,0,-0.03881085,-0.03314692,-0.10947651,0,0,0,0
1,322.42,32242,0.17062315,-0.92490727,0.41415384,5.48384142,-38.45433044,0.71376395,0,0,0,108.36656952,10.92811108,74.04160309,1,0,0,0,0.01823032,-0.00704286,-0.10463317,0,0,0,0
1,322.43,32243,0.14260419,-0.93895119,0.40868771,3.97956729,-30.77781868,-1.25972247,0,0,0,108.35045624,11.03700829,73.74808502,1,0,0,0,0.04813696,0.00726537,-0.09952919,0,0,0,0
1,322.44,32244,0.14060342,-0.93939126,0.40981585,2.39378667,-24.04012108,-3.34827423,0,0,0,108.33174896,11.14442825,73.52628326,1,0,0,0,0.05199015,0.00794895,-0.10107215,0,0,0,0
1,322.45,32245,0.16517134,-0.94744277,0.41350281,1.07204568,-20.64642715,-4.67452049,0,0,0,108.30657959,11.25369549,73.34145355,1,0,0,0,0.02926244,0.0162268,-0.1052302,0,0,0,0
1,322.46,32246,0.18929213,-0.95624042,0.39620256,0.76363933,-23.03055763,-5.50381422,0,0,0,108.33859253,11.37134075,73.07938385,1,0,0,0,0.0071372,0.02533375,-0.08826141,0,0,0,0
1,322.47,32247,0.21533656,-0.93762833,0.39987612,0.11741843,-27.81215858,-5.55227661,0,0,0,108.28986359,11.51144123,72.82778931,1,0,0,0,-0.01668898,0.00717197,-0.09199702,0,0,0,0
1,322.48,32248,0.31085563,-0.93431652,0.33453366,1.24406409,-37.91939926,-4.88026333,0,0,0,108.23152924,11.67657375,72.47579193,1,0,0,0,-0.1095777,0.00407247,-0.02772357,0,0,0,0
1,322.49,32249,0.10900366,-0.86902803,0.44147071,-2.7157011,-49.42183685,-5.03740025,0,0,0,108.10982513,11.87867641,72.01221466,1,0,0,0,0.09549735,-0.06104882,-0.13629055,0,0,0,0
1,322.5,32250,0.18909971,-0.88463742,0.37100175,-2.05762839,-31.66072273,-6.91846228,0,0,0,108.03000641,12.04258728,71.72644043,1,0,0,0,0.01854111,-0.0454486,-0.06797598,0,0,0,0
1,322.51,32251,0.19451129,-0.88899148,0.36070123,-4.1201067,-35.54338455,-6.4140172,0,0,0,107.9671402,12.20849991,71.36143494,1,0,0,0,0.01584696,-0.04089333,-0.05893512,0,0,0,0
1,322.52,32252,0.14672059,-0.87419999,0.37580889,-3.71644473,-33.14929199,-8.89311028,0,0,0,107.86717987,12.39509678,71.06658936,1,0,0,0,0.06674065,-0.05545381,-0.07551385,0,0,0,0
1,322.53,32253,0.13917701,-0.87794447,0.35868752,-5.22823429,-26.64624786,-11.63280296,0,0,0,107.76660156,12.58737946,70.84320831,1,0,0,0,0.07749657,-0.05154239,-0.06018185,0,0,0,0
1,322.54,32254,0.1636782,-0.89883077,0.33812317,-4.16592026,-23.23347473,-14.02045631,0,0,0,107.68473053,12.79166508,70.66011047,1,0,0,0,0.05641709,-0.03039701,-0.0413189,0,0,0,0
1,322.55,32255,0.17542355,-0.91304266,0.32571134,-3.71824288,-21.84755325,-16.651968,0,0,0,107.61143494,13.01656914,70.49832153,1,0,0,0,0.04834637,-0.01578361,-0.03040251,0,0,0,0
1,322.56,32256,0.17955944,-0.93833876,0.34384412,-2.29418802,-21.66930962,-19.20467377,0,0,0,107.58292389,13.23135567,70.32453918,1,0,0,0,0.04812524,0.01009642,-0.04969314,0,0,0,0
1,322.57,32257,0.17344625,-0.9599241,0.35106838,-3.22862887,-22.07521057,-22.66285515,0,0,0,107.51687622,13.51400185,70.17845154,1,0,0,0,0.05838063,0.03240858,-0.05786333,0,0,0,0
1,322.58,32258,0.15859067,-0.95452434,0.36745241,-4.42138672,-21.73876381,-26.63409615,0,0,0,107.44169617,13.83333588,70.04737854,1,0,0,0,0.07841705,0.02783076,-0.07579551,0,0,0,0
1,322.59,32259,0.1441104,-0.93213785,0.36868045,-4.75007105,-21.25914383,-30.36923981,0,0,0,107.36625671,14.18672466,69.93193054,1,0,0,0,0.09869662,0.00642696,-0.07867881,0,0,0,0
1,322.6,32260,0.13212565,-0.92465961,0.36216444,-5.1788888,-19.87458229,-33.8125,0,0,0,107.29166412,14.56871319,69.84004211,1,0,0,0,0.11696485,9.567e-05,-0.07383862,0,0,0,0
1,322.61,32261,0.15017129,-0.94369143,0.34815156,-6.11763,-17.86277771,-38.01208496,0,0,0,107.23864746,14.93783569,69.76832581,1,0,0,0,0.10550404,0.02041328,-0.06147358,0,0,0,0
1,322.62,32262,0.17706478,-0.95761371,0.34777564,-7.67951155,-16.80309677,-42.1277771,0,0,0,107.15209961,15.38997555,69.73104858,1,0,0,0,0.08541746,0.03575791,-0.06267951,0,0,0,0
1,322.63,32263,0.19427159,-0.96684009,0.33217689,-7.79929733,-16.78979492,-45.57349014,0,0,0,107.06672668,15.87494659,69.70365143,1,0,0,0,0.07617468,0.04666448,-0.04910494,0,0,0,0
1,322.64,32264,0.20886071,-0.96428478,0.3396872,-9.6939621,-17.39587784,-48.47979736,0,0,0,106.96273041,16.38942146,69.67818451,1,0,0,0,0.07002414,0.04594544,-0.05885023,0,0,0,0
1,322.65,32265,0.19654529,-0.94704533,0.37413511,-12.99353504,-18.61320114,-52.25108719,0,0,0,106.82494354,16.94346809,69.65080261,1,0,0,0,0.09134763,0.03064854,-0.0960583,0,0,0,0
1,322.66,32266,0.20401563,-0.94608641,0.44175881,-19.13289452,-19.44209862,-56.08802032,0,0,0,106.67205048,17.5059967,69.59786987,1,0,0,0,0.09341581,0.03169732,-0.16713348,0,0,0,0
1,322.67,32267,0.21176849,-0.95635235,0.46721795,-21.09914207,-20.57016373,-59.87457657,0,0,0,106.45251465,18.13854027,69.57003021,1,0,0,0,0.09557278,0.04411119,-0.19639191,0,0,0,0
1,322.68,32268,0.22903821,-1.0025965,0.45477977,-23.70764351,-24.12448311,-63.15689087,0,0,0,106.19736481,18.81244278,69.51312256,1,0,0,0,0.0891896,0.09268619,-0.18873146,0,0,0,0
1,322.69,32269,0.23296793,-1.04997814,0.44528499,-26.08887291,-28.58368874,-66.89013672,0,0,0,105.90525818,19.53429031,69.41809845,1,0,0,0,0.09689008,0.14259888,-0.18481982,0,0,0,0
1,322.7,32270,0.21936265,-1.09009159,0.37988344,-25.3299942,-32.57574081,-70.97129059,0,0,0,105.60814667,20.30576897,69.28957367,1,0,0,0,0.1228623,0.18562283,-0.12532097,0,0,0,0
1,322.71,32271,0.21614642,-1.11628485,0.31725144,-24.16201591,-35.27361679,-74.88470459,0,0,0,105.31020355,21.08760071,69.14923096,1,0,0,0,0.13901985,0.21515396,-0.06864788,0,0,0,0
1,322.72,32272,0.2024318,-1.13231981,0.27737117,-24.70444107,-37.0553627,-79.92133331,0,0,0,105.00454712,21.95590591,68.98941803,1,0,0,0,0.16610804,0.23490797,-0.03486301,0,0,0,0
1,322.73,32273,0.18194745,-1.12640131,0.33265111,-27.95406532,-36.42907333,-85.36891174,0,0,0,104.66995239,22.87442398,68.84497833,1,0,0,0,0.2011793,0.23334612,-0.09676159,0,0,0,0
1,322.74,32274,0.20062469,-1.12821925,0.39869052,-29.16802216,-34.71985245,-91.87857819,0,0,0,104.33244324,23.85087204,68.72939301,1,0,0,0,0.19779262,0.24007978,-0.169678,0,0,0,0
1,322.75,32275,0.23871426,-1.15822923,0.4482322,-31.54090118,-38.08433151,-97.66392517,0,0,0,103.95778656,24.8909626,68.58600616,1,0,0,0,0.17591214,0.27567944,-0.22650816,0,0,0,0
1,322.76,32276,0.25724661,-1.21087253,0.47608355,-32.24607086,-44.58812332,-102.28176117,0,0,0,103.56115723,25.9619503,68.37543488,1,0,0,0,0.17429721,0.33448276,-0.26235354,0,0,0,0
1,322.77,32277,0.23484091,-1.31265736,0.46699899,-33.18273544,-52.17135239,-106.38449097,0,0,0,103.09817505,27.11737633,68.08213043,1,0,0,0,0.21415292,0.44302532,-0.26179591,0,0,0,0
1,322.78,32278,0.18008317,-1.48598921,0.42513147,-34.04203415,-58.80383301,-109.75951385,0,0,0,102.58464813,28.3182106,67.71008301,1,0,0,0,0.28730854,0.62386769,-0.22955033,0,0,0,0
1,322.79,32279,0.10530899,-1.63116336,0.5012778,-40.6955452,-58.07760239,-114.86676025,0,0,0,101.99928284,29.56424141,67.34121704,1,0,0,0,0.38089278,0.77715838,-0.31623802,0,0,0,0
1,322.8,32280,0.03352793,-1.59530461,0.50417429,-42.24906921,-58.00378799,-121.72403717,0,0,0,101.38951111,30.87374306,66.96925354,1,0,0,0,0.47216195,0.75028884,-0.3304548,0,0,0,0
1,322.81,32281,-0.03293505,-1.59279871,0.33929324,-34.03303146,-69.29567719,-124.93258667,0,0,0,100.77458191,32.19953918,66.47319794,1,0,0,0,0.55857128,0.75777465,-0.1768335,0,0,0,0
1,322.82,32282,-0.15003726,-1.74131632,0.25943044,-30.36624718,-83.46002197,-130.86668396,0,0,0,100.0927887,33.63768768,65.77770233,1,0,0,0,0.69596171,0.91716993,-0.10879657,0,0,0,0
1,322.83,32283,-0.32315901,-1.8635217,0.32238469,-30.61857033,-89.09030914,-142.23443604,0,0,0,99.34951019,35.19003296,65.0043335,1,0,0,0,0.89104313,1.05205059,-0.18470651,0,0,0,0
1,322.84,32284,-0.37268993,-1.8961004,0.35564914,-25.8394146,-92.35635376,-145.97125244,0,0,0,98.59375,36.77585983,64.15809631,1,0,0,0,0.96299553,1.09863651,-0.23106234,0,0,0,0
1,322.85,32285,-0.32770497,-1.97609711,0.28651533,-23.54670906,-100.68186951,-147.05992126,0,0,0,97.75209808,38.3747139,63.16459274,1,0,0,0,0.94025582,1.19356692,-0.1753583,0,0,0,0
1,322.86,32286,-0.08574947,-1.93765271,0.30642378,-33.05691528,-104.56321716,-149.92915344,0,0,0,96.73219299,39.9709053,62.08635712,1,0,0,0,0.72016495,1.17068386,-0.21050678,0,0,0,0
1,322.87,32287,0.0727793,-1.80051279,0.25578734,-46.71506882,-93.41001129,-164.22479248,0,0,0,95.61567688,41.70433044,61.09243774,1,0,0,0,0.58377248,1.05047083,-0.17649916,0,0,0,0
1,322.88,32288,0.27719533,-1.738464,0.47826862,-59.9195137,-69.20249176,-181.73190308,0,0,0,94.53099823,43.57616806,60.37422943,1,0,0,0,0.40304941,1.00825393,-0.41532975,0,0,0,0
1,322.89,32289,0.29998687,-1.65752387,0.5964461,-67.95122528,-27.46196556,-195.73577881,0,0,0,93.7209549,45.54842758,60.18735504,1,0,0,0,0.40471947,0.94983023,-0.54686046,0,0,0,0
1,322.9,32290,0.51397115,-1.61822474,0.45392397,-66.62361145,-15.26720905,-191.39099121,0,0,0,93.01248169,47.4679718,60.1292305,1,0,0,0,0.21439914,0.93423176,-0.41471025,0,0,0,0
1,322.91,32291,0.4314791,-1.62180698,0.54198718,-60.49710083,-35.39624786,-182.55122375,0,0,0,92.12001801,49.27997589,59.7416687,1,0,0,0,0.31880999,0.96137565,-0.51350236,0,0,0,0
1,322.92,32292,0.30326733,-1.52637839,0.61507988,-51.94836807,-51.58841324,-168.93490601,0,0,0,91.03831482,50.98277664,59.00970459,1,0,0,0,0.46672669,0.88859516,-0.5988735,0,0,0,0
1,322.93,32293,0.20352739,-1.20563316,0.83597678,-42.02453995,-70.57261658,-150.38108826,0,0,0,89.73522186,52.49111938,57.88649368,1,0,0,0,0.58390826,0.58929765,-0.83324349,0,0,0,0
1,322.94,32294,-0.13175599,-0.61291778,0.84440255,-27.42147446,-101.39758301,-106.40538788,0,0,0,88.08651733,53.53531265,56.16757584,1,0,0,0,0.93241823,0.01398788,-0.8576827,0,0,0,0
1,322.95,32295,-0.19796345,-0.26206219,0.50100696,3.32266927,-152.12509155,-53.91981125,0,0,0,86.00713348,53.99514389,53.55000305,1,0,0,0,1.00550687,-0.32680902,-0.53359854,0,0,0,0
1,322.96,32296,-0.23474006,-0.53961378,0.52841383,7.0281148,-179.96612549,-30.19706154,0,0,0,83.70681,54.03288651,50.67733383,1,0,0,0,1.04451454,-0.04440841,-0.58444983,0,0,0,0
1,322.97,32297,-0.5355773,-0.60387516,0.53828818,7.82246256,-170.07354736,-9.84363365,0,0,0,81.44776154,53.91061783,47.78822327,1,0,0,0,1.34439838,0.02120386,-0.61741698,0,0,0,0
1,322.98,32298,-0.73018271,-0.41672012,0.41110784,19.0569458,-158.07800293,24.35362816,0,0,0,79.57241058,53.40930939,45.22476578,1,0,0,0,1.53540325,-0.16765337,-0.51156664,0,0,0,0
1,322.99,32299,-0.66873986,-0.33429745,0.3056168,35.39701843,-158.37432861,66.06062317,0,0,0,78.03888702,52.45327377,42.8601799,1,0,0,0,1.46566725,-0.25779748,-0.42514586,0,0,0,0
1,323,32300,-0.49860224,-0.3573828,0.22378896,41.41680527,-163.36447144,90.74189758,0,0,0,76.67704773,51.21011734,40.60188675,1,0,0,0,1.28331316,-0.2469742,-0.36136091,0,0,0,0
1,323.01,32301,-0.33374891,-0.33690256,0.17671044,45.64386749,-161.02546692,110.38679504,0,0,0,75.59755707,49.69691849,38.68531036,1,0,0,0,1.10312271,-0.28275645,-0.33169147,0,0,0,0
1,323.02,32302,-0.26843423,-0.37047333,0.14131021,51.16530228,-154.60328674,128.97901917,0,0,0,74.77442169,48.0544014,36.91417694,1,0,0,0,1.01949477,-0.26739049,-0.31150243,0,0,0,0
1,323.03,32303,-0.30639118,-0.39860323,0.11420478,57.51808929,-144.36192322,147.95608521,0,0,0,74.2747345,46.242939,35.44910431,1,0,0,0,1.03692365,-0.25916231,-0.29746604,0,0,0,0
1,323.04,32304,-0.36746818,-0.400969,0.04188625,62.4473114,-126.38848114,166.37677002,0,0,0,74.12818146,44.29761505,34.36488342,1,0,0,0,1.07497656,-0.27882278,-0.23482007,0,0,0,0
1,323.05,32305,-0.38924715,-0.44235036,0.00063457,67.8373642,-102.98736572,181.47845459,0,0,0,74.3366394,42.2709198,33.68091965,1,0,0,0,1.07166612,-0.26102948,-0.1992839,0,0,0,0
1,323.06,32306,-0.37964025,-0.49778241,-0.01565226,75.26835632,-72.53749084,193.82089233,0,0,0,74.93552399,40.13791656,33.55343628,1,0,0,0,1.03521109,-0.2304468,-0.18383026,0,0,0,0
1,323.07,32307,-0.31834486,-0.54058135,-0.00508585,82.87682343,-40.27727127,204.22262573,0,0,0,75.86505127,38.05970001,33.71485519,1,0,0,0,0.94546932,-0.21341205,-0.19008732,0,0,0,0
1,323.08,32308,-0.24689704,-0.58279657,0.03374424,92.6138916,-1.70707214,216.19509888,0,0,0,77.15783691,35.95292664,34.32578278,1,0,0,0,0.84513813,-0.19677794,-0.21877751,0,0,0,0
1,323.09,32309,-0.19233054,-0.616705,0.0840958,99.60512543,31.07638359,228.15046692,0,0,0,78.69746399,33.78647995,35.27780151,1,0,0,0,0.76021206,-0.18864746,-0.25370103,0,0,0,0
1,323.1,32310,-0.17566113,-0.6717363,0.13016087,105.81157684,59.62624359,240.13554382,0,0,0,80.41007996,31.53268623,36.49145508,1,0,0,0,0.7112444,-0.15919632,-0.28025591,0,0,0,0
1,323.11,32311,-0.15009619,-0.75479811,0.19588777,112.33805084,84.22629547,251.65013123,0,0,0,82.26830292,29.13607025,37.93315125,1,0,0,0,0.65092421,-0.10125217,-0.32295945,0,0,0,0
1,323.12,32312,-0.09824734,-0.85295719,0.23066139,117.36029816,108.5763092,264.19512939,0,0,0,84.17726135,26.64034843,39.50556183,1,0,0,0,0.5613184,-0.02747612,-0.33157414,0,0,0,0
1,323.13,32313,-0.02966285,-0.95555001,0.2380916,122.12944794,124.38111115,276.36248779,0,0,0,86.09579468,23.99189949,41.13559341,1,0,0,0,0.45220301,0.05228332,-0.31108338,0,0,0,0
1,323.14,32314,-0.00445165,-1.04837072,0.2411347,126.98623657,134.48054504,287.6390686,0,0,0,87.98648834,21.18860054,42.75080872,1,0,0,0,0.38308781,0.12400654,-0.28499264,0,0,0,0
1,323.15,32315,-0.00834639,-1.19335163,0.23969086,130.4309845,141.01885986,297.01855469,0,0,0,89.81695557,18.2458744,44.30868912,1,0,0,0,0.33981207,0.25013819,-0.25384307,0,0,0,0
1,323.16,32316,-0.02798735,-1.3477596,0.22461128,128.81826782,140.65411377,305.66104126,0,0,0,91.52259064,15.16099834,45.74486542,1,0,0,0,0.3091867,0.3883799,-0.20960665,0,0,0,0
1,323.17,32317,-0.01395392,-1.53442562,0.1893363,121.93569946,137.9851532,309.96615601,0,0,0,93.04551697,12.00860214,47.03557968,1,0,0,0,0.24217319,0.56188309,-0.14704104,0,0,0,0
1,323.18,32318,0.05763854,-1.68557322,0.14410369,116.46351624,146.48126221,312.88061523,0,0,0,94.44081116,8.79063606,48.31373978,1,0,0,0,0.11603387,0.70322591,-0.07672787,0,0,0,0
1,323.19,32319,0.17345329,-1.85607719,0.12356161,116.54026794,152.63893127,316.71463013,0,0,0,95.7621994,5.50039339,49.56187439,1,0,0,0,-0.05615146,0.86733699,-0.03227096,0,0,0,0
1,323.2,32320,0.35552517,-2.06338811,0.21222579,114.73816681,137.67628479,316.6652832,0,0,0,96.97914124,2.20087004,50.5810318,1,0,0,0,-0.29556301,1.07180369,-0.09877487,0,0,0,0
1,323.21,32321,0.59251523,-2.30819654,0.33686098,115.63671875,120.12142181,312.52752686,0,0,0,98.14483643,-1.05049956,51.35858536,1,0,0,0,-0.58972609,1.31738877,-0.20265675,0,0,0,0
1,323.22,32322,0.84811145,-2.42237091,0.49853456,102.43689728,106.63462067,307.31533813,0,0,0,99.1424942,-4.24894428,51.95064163,1,0,0,0,-0.90130901,1.43563557,-0.34602913,0,0,0,0
1,323.23,32323,1.00953567,-2.25738406,0.50526732,89.87007904,98.30953979,309.78582764,0,0,0,99.99504852,-7.4670043,52.4071579,1,0,0,0,-1.11859596,1.27763522,-0.33812875,0,0,0,0
1,323.24,32324,1.07276583,-1.93536747,0.52326816,86.35259247,99.38923645,299.5871582,0,0,0,100.78826904,-10.59316349,52.85010147,1,0,0,0,-1.23659861,0.96549267,-0.34366548,0,0,0,0
1,323.25,32325,1.20174289,-1.78262818,0.53381586,98.82719421,123.74567413,276.23776245,0,0,0,101.63059998,-13.54351616,53.54321671,1,0,0,0,-1.41741228,0.82522362,-0.34239173,0,0,0,0
1,323.26,32326,1.56384218,-1.80526543,0.50339246,109.12491608,128.24034119,242.11132812,0,0,0,102.52339172,-16.16601753,54.32070541,1,0,0,0,-1.8262881,0.86215818,-0.2996873,0,0,0,0
1,323.27,32327,2.04007578,-1.81239367,0.37416509,103.10495758,98.82215118,207.24235535,0,0,0,103.4002533,-18.4068203,54.84268951,1,0,0,0,-2.3423934,0.88395011,-0.15860559,0,0,0,0
1,323.28,32328,2.35436654,-1.72294581,0.17966822,89.18067169,51.61541367,178.07012939,0,0,0,104.26667023,-20.25877953,54.92256165,1,0,0,0,-2.68969297,0.80865604,0.04735006,0,0,0,0
1,323.29,32329,2.38632965,-1.37595224,0.0776024,63.86833572,5.01670456,151.28439331,0,0,0,105.03450775,-21.73470879,54.56445694,1,0,0,0,-2.74816966,0.47450072,0.15987779,0,0,0,0
1,323.3,32330,2.34761977,-1.0727973,0.14506571,40.98247528,-33.00286484,110.20323181,0,0,0,105.69433594,-22.70969009,53.90540695,1,0,0,0,-2.72851276,0.18160926,0.10125981,0,0,0,0
1,323.31,32331,2.27134991,-1.06862044,0.20863397,28.03988075,-58.48548126,57.10878754,0,0,0,106.27687836,-23.07683945,53.14273453,1,0,0,0,-2.66197109,0.18404357,0.04618027,0,0,0,0
1,323.32,32332,2.00562763,-1.08319819,0.11783333,13.51409817,-55.60486603,-3.13904619,0,0,0,106.6349411,-22.8891964,52.57330704,1,0,0,0,-2.39658427,0.20078485,0.14388317,0,0,0,0
1,323.33,32333,1.81361067,-1.04501736,0.03610348,-1.39480889,-33.98249054,-66.73106384,0,0,0,106.67725372,-22.15242767,52.42816925,1,0,0,0,-2.19584823,0.15992761,0.22940463,0,0,0,0
1,323.34,32334,1.69463742,-1.04028237,-0.03279636,-14.77716923,-5.10555983,-118.40930176,0,0,0,106.41582489,-21.00279808,52.73826599,1,0,0,0,-2.0605197,0.14810954,0.29760194,0,0,0,0
1,323.35,32335,1.55731297,-1.15144074,-0.00814863,-24.29846001,18.08076286,-157.0425415,0,0,0,105.94737244,-19.54493713,53.39000702,1,0,0,0,-1.90112877,0.24942781,0.2691192,0,0,0,0
1,323.36,32336,0.79056358,-1.36786604,0.22998352,-26.1233654,31.36672974,-168.72798157,0,0,0,105.39602661,-17.94938278,54.24307251,1,0,0,0,-1.10909748,0.45508909,0.02556581,0,0,0,0
1,323.37,32337,-0.90859503,-1.36331975,0.12310655,-56.55439758,28.83934975,-187.3368988,0,0,0,104.59499359,-16.21467781,55.04148102,1,0,0,0,0.61820799,0.43857849,0.12274283,0,0,0,0
1,323.38,32338,-3.87487078,-2.14310408,0.5728271,-75.18424225,2.17614341,-173.02142334,0,0,0,103.72120667,-14.5424099,55.50394058,1,0,0,0,3.61410236,1.20675039,-0.33796355,0,0,0,0
1,323.39,32339,-2.04476762,-1.82408893,-1.38973808,-95.85028839,189.76106262,-38.59583664,0,0,0,102.26402283,-14.58987331,57.50673676,1,0,0,0,1.79571307,0.87980324,1.60477591,0,0,0,0
1,323.4,32340,2.78635693,-2.28995442,-1.54122949,-82.02037811,228.08518982,-69.07680511,0,0,0,100.82460022,-14.37074471,59.95520782,1,0,0,0,-3.03859997,1.34125328,1.73171616,0,0,0,0
1,323.41,32341,1.57989705,-2.04805779,0.39535815,-48.81025696,0.72524846,-218.96414185,0,0,0,100.24414825,-12.20422935,60.36529541,1,0,0,0,-1.80614734,1.08998644,-0.219906,0,0,0,0
1,323.42,32342,0.38721576,-0.82658893,0.77232122,-0.091309,21.28806686,-187.03207397,0,0,0,100.13595581,-10.40148354,60.91763687,1,0,0,0,-0.57908434,-0.13922083,-0.59818584,0,0,0,0
1,323.43,32343,0.35989207,-0.62204236,0.16273065,-46.58110809,11.82561016,-175.34014893,0,0,0,99.6000061,-8.69424152,61.34024429,1,0,0,0,-0.52184355,-0.35035771,0.00500446,0,0,0,0
1,323.44,32344,0.46349812,-0.8926658,0.31573111,-1.39563358,40.48125839,-155.76383972,0,0,0,99.49491882,-7.22493649,62.00334549,1,0,0,0,-0.59867054,-0.08453205,-0.15213813,0,0,0,0
1,323.45,32345,0.12262987,-0.86328822,0.40674931,27.94839668,74.29297638,-156.61685181,0,0,0,99.66174316,-5.80392456,63.00234985,1,0,0,0,-0.23291235,-0.11673504,-0.24138993,0,0,0,0
1,323.46,32346,0.130578,-0.91786611,0.36488456,32.46190643,81.69857025,-151.96496582,0,0,0,99.91941071,-4.39851761,64.042099,1,0,0,0,-0.21655703,-0.06373957,-0.19456211,0,0,0,0
1,323.47,32347,0.83825511,-0.99711001,0.29250816,-18.52719116,73.6528244,-130.54176331,0,0,0,99.67099762,-3.23770714,64.99246979,1,0,0,0,-0.9021039,0.0136691,-0.12299609,0,0,0,0
1,323.48,32348,0.81847715,-1.12642217,0.2058171,-15.5921402,49.87512589,-129.30058289,0,0,0,99.48146057,-2.04581046,65.70011902,1,0,0,0,-0.86226881,0.14124928,-0.04004444,0,0,0,0
1,323.49,32349,0.46061146,-0.93626308,0.20110747,-32.10850525,3.21277118,-126.77867889,0,0,0,99.1541748,-0.80009401,65.93746948,1,0,0,0,-0.48247021,-0.05037637,-0.03978033,0,0,0,0
1,323.5,32350,0.71797472,-0.9523741,-0.05529954,-13.28868008,-42.1950531,-98.53076172,0,0,0,99.02153015,0.23928963,65.67617035,1,0,0,0,-0.72066557,-0.03514262,0.21270785,0,0,0,0
1,323.51,32351,0.50782722,-1.03676522,0.08606888,-5.54381704,-97.26338959,-87.58535004,0,0,0,98.95771027,1.30891681,64.8500061,1,0,0,0,-0.4921369,0.04915832,0.07000528,0,0,0,0
1,323.52,32352,0.3035529,-0.91078138,0.20632443,3.62898254,-95.60438538,-68.27150726,0,0,0,98.96865082,2.13214684,64.01152039,1,0,0,0,-0.2714594,-0.07650581,-0.05069987,0,0,0,0
1,323.53,32353,0.17230439,-0.99927932,0.10119004,5.05993032,-84.70067596,-54.9835968,0,0,0,98.98688507,2.80745649,63.26002502,1,0,0,0,-0.12762825,0.01253532,0.0547906,0,0,0,0
1,323.54,32354,-0.06216278,-0.99883807,0.09211032,8.46481228,-55.77994537,-51.13198471,0,0,0,99.04627991,3.39977384,62.7884903,1,0,0,0,0.11771244,0.0127198,0.06434058,0,0,0,0
1,323.55,32355,0.07252654,-1.01821315,0.18370889,14.58967304,-20.66723442,-50.65299988,0,0,0,99.18439484,3.93260098,62.66437149,1,0,0,0,-0.0073479,0.03298005,-0.02540458,0,0,0,0
1,323.56,32356,0.26865372,-1.06838584,0.14240712,17.72739601,-4.21173191,-48.74748993,0,0,0,99.33260345,4.48410416,62.72619629,1,0,0,0,-0.1944263,0.0842191,0.01852144,0,0,0,0
1,323.57,32357,0.20669921,-0.99235332,0.12995055,20.82618713,3.74020267,-44.31687927,0,0,0,99.54988861,4.91513109,62.83611679,1,0,0,0,-0.12372997,0.00937253,0.03393776,0,0,0,0
1,323.58,32358,0.19426592,-0.90750903,0.21025009,24.39341545,9.85115433,-35.10144043,0,0,0,99.80775452,5.24457264,62.99278641,1,0,0,0,-0.10487408,-0.07423346,-0.04236064,0,0,0,0
1,323.59,32359,0.19634682,-0.90936142,0.32061654,24.62048531,12.65911007,-29.69887543,0,0,0,100.07052612,5.51525021,63.16951752,1,0,0,0,-0.10194134,-0.07111882,-0.14815591,0,0,0,0
1,323.6,32360,0.21514428,-0.93098068,0.34136292,20.88898659,11.53360176,-25.6241703,0,0,0,100.29506683,5.74708033,63.32911301,1,0,0,0,-0.11646369,-0.04836926,-0.16491596,0,0,0,0
1,323.61,32361,0.26768917,-0.96315521,0.35508096,19.83683014,7.87040472,-19.9322567,0,0,0,100.60987091,6.04041004,63.33733749,1,0,0,0,-0.16504711,-0.01505324,-0.17461675,0,0,0,0
1,323.62,32362,0.31856892,-0.98752373,0.35577765,19.91023827,-3.57977724,-14.9233942,0,0,0,100.80814362,6.19372797,63.32983017,1,0,0,0,-0.2116179,0.0106599,-0.17058252,0,0,0,0
1,323.63,32363,0.31162882,-0.97416353,0.35272488,17.79719162,-19.06083298,-9.93529129,0,0,0,100.96759033,6.32735062,63.16041183,1,0,0,0,-0.20226014,-0.00186372,-0.164554,0,0,0,0
1,323.64,32364,0.26061767,-0.94452453,0.33149439,14.61874199,-31.58909035,-5.00433302,0,0,0,101.08013916,6.43691206,62.85805511,1,0,0,0,-0.14919463,-0.03085142,-0.14116289,0,0,0,0
1,323.65,32365,0.199113,-0.93504602,0.30434465,12.50123692,-38.99691391,-2.16088867,0,0,0,101.162117,6.53335333,62.4771347,1,0,0,0,-0.08594419,-0.03983396,-0.11250764,0,0,0,0
1,323.66,32366,0.13294962,-0.96788985,0.29965529,12.09215641,-41.32526779,-1.37837076,0,0,0,101.2919693,6.63103724,62.0216713,1,0,0,0,-0.01814281,-0.00650164,-0.10631634,0,0,0,0
1,323.67,32367,0.08477838,-0.99474758,0.26582837,12.04333401,-40.75696564,-3.80345559,0,0,0,101.36641693,6.74839544,61.62683868,1,0,0,0,0.03193592,0.02096392,-0.07057831,0,0,0,0
1,323.68,32368,0.06333726,-0.98927063,0.24636069,12.34746361,-34.98378754,-7.34394121,0,0,0,101.45063782,6.88956785,61.29610443,1,0,0,0,0.05567618,0.01602775,-0.04980635,0,0,0,0
1,323.69,32369,0.0420178,-0.95687473,0.28630596,12.65585995,-27.68191147,-11.67141724,0,0,0,101.54686737,7.05911684,61.04627609,1,0,0,0,0.07973959,-0.01572238,-0.08824272,0,0,0,0
1,323.7,32370,0.05063868,-0.92146689,0.31176534,12.00607681,-18.37905312,-14.86113071,0,0,0,101.64812469,7.24162197,60.89494324,1,0,0,0,0.07421374,-0.05040902,-0.1120954,0,0,0,0
1,323.71,32371,0.12929058,-0.90854806,0.33128464,11.23682308,-12.49040699,-16.61970139,0,0,0,101.85969543,7.46087694,60.70488358,1,0,0,0,-0.00107444,-0.06245103,-0.12949626,0,0,0,0
1,323.72,32372,0.20147365,-0.91487581,0.32287034,10.68128014,-16.45734406,-18.05960274,0,0,0,101.95005035,7.67155075,60.58002853,1,0,0,0,-0.06939214,-0.05499898,-0.11818502,0,0,0,0
1,323.73,32373,0.20686728,-0.92638767,0.32166982,9.73293591,-26.10592842,-18.58172607,0,0,0,102.01769257,7.90754843,60.36122894,1,0,0,0,-0.07086402,-0.04269093,-0.11578555,0,0,0,0
1,323.74,32374,0.15655568,-0.92642939,0.30047512,9.66740227,-34.17140579,-19.28848076,0,0,0,102.07284546,8.16749382,60.06437683,1,0,0,0,-0.01619709,-0.04184817,-0.09374743,0,0,0,0
1,323.75,32375,0.12515512,-0.93563223,0.29918844,9.63189411,-38.43291473,-20.89570808,0,0,0,102.12068176,8.45236492,59.72886276,1,0,0,0,0.01993206,-0.03178734,-0.09171063,0,0,0,0
1,323.76,32376,0.08371089,-0.93189424,0.30210185,8.05474377,-38.84281158,-25.13353729,0,0,0,102.1914978,8.74839592,59.37724686,1,0,0,0,0.06660062,-0.03459723,-0.09401866,0,0,0,0
1,323.77,32377,0.05685336,-0.94705194,0.31479859,7.21984959,-36.02225876,-30.04232407,0,0,0,102.21839905,9.11818123,59.08516693,1,0,0,0,0.09919032,-0.01835269,-0.10589453,0,0,0,0
1,323.78,32378,0.06299621,-0.96307755,0.32142335,4.96861935,-29.40748405,-34.99404144,0,0,0,102.23312378,9.52245903,58.86902618,1,0,0,0,0.09977716,-0.00119929,-0.11244703,0,0,0,0
1,323.79,32379,0.08047344,-0.96264088,0.31735101,2.94608259,-23.71278,-40.6243782,0,0,0,102.23763275,9.96972275,58.72126007,1,0,0,0,0.08971952,-0.00037837,-0.10848905,0,0,0,0
1,323.8,32380,0.09938238,-0.96560228,0.30609953,1.89378369,-19.41869354,-45.60062408,0,0,0,102.23983002,10.45652771,58.62665558,1,0,0,0,0.078927,0.00399454,-0.09750763,0,0,0,0
1,323.81,32381,0.14155875,-0.98355699,0.31939667,0.35349828,-16.40935516,-49.74609375,0,0,0,102.27529907,10.96310043,58.54327393,1,0,0,0,0.04540861,0.02355213,-0.111003,0,0,0,0
1,323.82,32382,0.18461677,-1.00733364,0.32593283,-1.33290207,-16.44832611,-53.22574615,0,0,0,102.25250244,11.51815319,58.49468231,1,0,0,0,0.0114609,0.04912092,-0.11766735,0,0,0,0
1,323.83,32383,0.20189658,-1.03036273,0.35521749,-4.59179068,-19.54317474,-55.46222687,0,0,0,102.19117737,12.10157776,58.41955185,1,0,0,0,0.00397483,0.07395886,-0.14809345,0,0,0,0
1,323.84,32384,0.18983404,-1.04864013,0.36403739,-12.00353527,-25.14735222,-57.32749557,0,0,0,102.04348755,12.71487331,58.29110336,1,0,0,0,0.02629952,0.09400125,-0.15924218,0,0,0,0
1,323.85,32385,0.1792222,-1.07044578,0.34055874,-21.35045242,-31.80607033,-59.58398056,0,0,0,101.78639221,13.363554,58.09799957,1,0,0,0,0.0477161,0.11744221,-0.13988146,0,0,0,0
1,323.86,32386,0.13346604,-1.09323609,0.3146556,-29.81415367,-36.6064949,-64.22676086,0,0,0,101.4466095,14.03767681,57.86455536,1,0,0,0,0.10491329,0.14181653,-0.11981621,0,0,0,0
1,323.87,32387,0.10824522,-1.1329211,0.29475576,-35.10130692,-37.90923309,-69.6721344,0,0,0,101.03496552,14.79497528,57.62090302,1,0,0,0,0.14224012,0.18322775,-0.10681541,0,0,0,0
1,323.88,32388,0.08498879,-1.16493785,0.27991378,-40.95050049,-37.63214874,-77.22690582,0,0,0,100.56435394,15.62411308,57.38784409,1,0,0,0,0.17900801,0.21734294,-0.10005875,0,0,0,0
1,323.89,32389,0.05451851,-1.18094504,0.26840082,-48.30267334,-37.10955811,-85.72285461,0,0,0,100.02026367,16.53387451,57.16730881,1,0,0,0,0.22423075,0.23586799,-0.09781061,0,0,0,0
1,323.9,32390,0.06368221,-1.1916908,0.30314231,-59.74284363,-36.37889862,-93.71131134,0,0,0,99.36142731,17.51892662,56.95730972,1,0,0,0,0.23110113,0.24956401,-0.14356017,0,0,0,0
1,323.91,32391,0.11073069,-1.19091868,0.35965386,-65.37593842,-34.37774658,-101.14340973,0,0,0,98.6690979,18.54738426,56.76766205,1,0,0,0,0.20099024,0.25227165,-0.21222325,0,0,0,0
1,323.92,32392,0.15880293,-1.21932817,0.44395718,-68.51335907,-33.21970749,-108.93097687,0,0,0,97.92458344,19.67326546,56.58607864,1,0,0,0,0.17080796,0.28489825,-0.30921793,0,0,0,0
1,323.93,32393,0.20660211,-1.2678479,0.50639969,-69.09589386,-32.70132446,-114.91994476,0,0,0,97.16960144,20.85543442,56.40137863,1,0,0,0,0.1420949,0.3385601,-0.38478938,0,0,0,0
1,323.94,32394,0.22166775,-1.34514809,0.49153611,-67.31185913,-37.27867889,-119.77302551,0,0,0,96.4063797,22.08873749,56.15562057,1,0,0,0,0.14680804,0.42187518,-0.38316506,0,0,0,0
1,323.95,32395,0.20508824,-1.51858234,0.46756366,-68.38129425,-44.91929245,-122.99985504,0,0,0,95.5892334,23.35890579,55.8106842,1,0,0,0,0.18370964,0.60217106,-0.3728309,0,0,0,0
1,323.96,32396,0.13774498,-1.63005638,0.48571649,-72.53305054,-46.60322952,-129.21609497,0,0,0,94.71955109,24.66829681,55.43740463,1,0,0,0,0.27183867,0.72135007,-0.40547964,0,0,0,0
1,323.97,32397,0.03887377,-1.65660429,0.37181923,-71.05116272,-50.56066895,-136.22805786,0,0,0,93.81786346,26.06433678,54.99150085,1,0,0,0,0.39220306,0.75669962,-0.30638683,0,0,0,0
1,323.98,32398,-0.03938591,-1.7443068,0.20422891,-69.60814667,-61.80178452,-141.38299561,0,0,0,92.85155487,27.51160431,54.39243317,1,0,0,0,0.49279511,0.85445184,-0.15413173,0,0,0,0
1,323.99,32399,-0.19810909,-1.88249171,0.18409893,-74.01605988,-68.96572113,-150.46055603,0,0,0,91.77336121,29.04284477,53.67892456,1,0,0,0,0.67466766,1.00403309,-0.15057272,0,0,0,0
1,324,32400,-0.35243893,-1.9832238,0.30788636,-72.022995,-70.86828613,-160.41191101,0,0,0,90.6658783,30.66158295,52.90103531,1,0,0,0,0.85319352,1.11783636,-0.29162073,0,0,0,0
1,324.01,32401,-0.36658266,-2.08504558,0.45354274,-55.9696579,-75.41572571,-161.60696411,0,0,0,89.65245819,32.26212311,52.03675842,1,0,0,0,0.89160073,1.23400021,-0.45311815,0,0,0,0
1,324.02,32402,-0.44473103,-2.191401,0.48826942,-40.54409027,-95.34702301,-158.95089722,0,0,0,88.61005402,33.83668518,50.87034225,1,0,0,0,0.99303645,1.35529327,-0.50269365,0,0,0,0
1,324.03,32403,-0.33215296,-2.20635605,0.4529348,-39.58453369,-130.46595764,-153.0244751,0,0,0,87.27684021,35.31929398,49.22050476,1,0,0,0,0.90243214,1.38555253,-0.48424655,0,0,0,0
1,324.04,32404,-0.14854656,-1.84949708,0.59473699,-58.16255188,-158.46679688,-158.51695251,0,0,0,85.47068024,36.80153275,47.1404686,1,0,0,0,0.73966014,1.04476702,-0.64847755,0,0,0,0
1,324.05,32405,0.06384322,-1.51880908,0.82470793,-69.11074066,-135.23217773,-180.96290588,0,0,0,83.61004639,38.4749794,45.22281265,1,0,0,0,0.54941112,0.73291671,-0.90327752,0,0,0,0
1,324.06,32406,0.14775571,-1.54797482,0.70885485,-65.66844177,-81.48972321,-200.16299438,0,0,0,82.11340332,40.33749771,43.88090515,1,0,0,0,0.49015892,0.78427613,-0.80742317,0,0,0,0
1,324.07,32407,0.13762295,-1.62899935,0.53314018,-67.81796265,-47.14203644,-204.4740448,0,0,0,80.75866699,42.28961563,42.85510254,1,0,0,0,0.52565086,0.88938314,-0.64680648,0,0,0,0
1,324.08,32408,0.22227536,-1.53759623,0.45633692,-75.11800385,-27.68671799,-201.02294922,0,0,0,79.42559814,44.22235489,42.0059967,1,0,0,0,0.46608615,0.82346797,-0.58310008,0,0,0,0
1,324.09,32409,0.2041547,-1.41926467,0.62308359,-60.21930313,-25.14625549,-185.60112,0,0,0,78.21419525,45.99431229,41.14606476,1,0,0,0,0.50726181,0.73030949,-0.76142567,0,0,0,0
1,324.1,32410,0.4321405,-1.22834325,0.6781919,-43.74696732,-27.66253853,-158.56871033,0,0,0,77.1292038,47.48425674,40.25775146,1,0,0,0,0.29856324,0.56174737,-0.82535887,0,0,0,0
1,324.11,32411,0.05479768,-1.00974798,0.82592946,-35.02975845,-72.25938416,-131.22003174,0,0,0,75.77420807,48.52671051,38.9112854,1,0,0,0,0.69069409,0.36228836,-0.98402709,0,0,0,0
1,324.12,32412,-0.61408818,-0.48327696,0.60357362,-23.96491432,-104.99847412,-81.15137482,0,0,0,74.13566589,49.03775406,37.05287552,1,0,0,0,1.36755455,-0.15102011,-0.77655762,0,0,0,0
1,324.13,32413,-0.57421988,-0.20911856,0.34610587,-6.08213329,-108.39321899,-40.93472672,0,0,0,72.74124908,49.12084961,35.28852463,1,0,0,0,1.33020067,-0.4176352,-0.53492892,0,0,0,0
1,324.14,32414,-0.55431598,-0.47670031,0.59423947,7.61041355,-94.51403046,-18.03229904,0,0,0,71.71599579,49.00392914,33.83090591,1,0,0,0,1.30970979,-0.14674973,-0.79593158,0,0,0,0
1,324.15,32415,-0.77110803,-0.33025464,0.53676158,21.97841072,-74.56671143,10.48063183,0,0,0,71.16495514,48.66697693,32.80760956,1,0,0,0,1.52374732,-0.29352054,-0.74755239,0,0,0,0
1,324.16,32416,-0.93179804,-0.10521077,0.33878532,36.27885818,-64.80505371,58.42086029,0,0,0,71.07817841,47.78842926,32.59088135,1,0,0,0,1.67722952,-0.52531564,-0.55499309,0,0,0,0
1,324.17,32417,-0.77226764,-0.06551334,0.17129517,56.0981102,-72.09816742,96.22296143,0,0,0,71.23750305,46.64478302,32.04391479,1,0,0,0,1.50483179,-0.57868326,-0.39112717,0,0,0,0
1,324.18,32418,-0.46373549,-0.25723764,0.03546008,70.26786804,-84.00113678,123.71534729,0,0,0,71.52589417,45.20423889,31.46722603,1,0,0,0,1.18013418,-0.40405044,-0.25776401,0,0,0,0
1,324.19,32419,-0.36802062,-0.37432009,0.03712113,78.26611328,-95.22890472,141.45671082,0,0,0,71.85858917,43.56207275,30.82403374,1,0,0,0,1.06508207,-0.30648258,-0.26194459,0,0,0,0
1,324.2,32420,-0.36055288,-0.41574499,0.10004182,87.23730469,-96.88948822,161.22386169,0,0,0,72.33784485,41.72986603,30.24436378,1,0,0,0,1.03521657,-0.28676248,-0.32637566,0,0,0,0
1,324.21,32421,-0.35671157,-0.46417254,0.12950771,96.68723297,-84.34454346,181.15264893,0,0,0,73.10435486,39.6866188,30.00568008,1,0,0,0,1.00595534,-0.26227361,-0.35455707,0,0,0,0
1,324.22,32422,-0.35720262,-0.5240888,0.10381152,104.62963867,-67.05609894,200.12332153,0,0,0,74.08769226,37.57719421,29.90573692,1,0,0,0,0.97800994,-0.22830252,-0.32377335,0,0,0,0
1,324.23,32423,-0.36428368,-0.56969494,0.07803842,111.24454498,-50.01878738,218.02236938,0,0,0,75.26894379,35.34206009,30.02229881,1,0,0,0,0.95470619,-0.20913,-0.28943825,0,0,0,0
1,324.24,32424,-0.38755354,-0.63158351,0.0522024,118.08774567,-31.17079163,231.86265564,0,0,0,76.62631989,33.01683044,30.33745384,1,0,0,0,0.94517219,-0.1741312,-0.25151253,0,0,0,0
1,324.25,32425,-0.34558922,-0.7021637,0.06473748,124.64884949,-4.89718628,243.62406921,0,0,0,78.17242432,30.62824821,30.90666389,1,0,0,0,0.86850178,-0.13019042,-0.2479575,0,0,0,0
1,324.26,32426,-0.2886627,-0.76903206,0.06279372,134.07948303,35.45243454,255.8662262,0,0,0,79.99636078,28.13382912,31.92289543,1,0,0,0,0.77487022,-0.08950087,-0.22500116,0,0,0,0
1,324.27,32427,-0.23584381,-0.8599295,0.08565126,141.74716187,57.6144104,265.13320923,0,0,0,81.91303253,25.60574341,33.02809143,1,0,0,0,0.68295383,-0.02387232,-0.22262937,0,0,0,0
1,324.28,32428,-0.17579396,-1.00535333,0.11412389,149.98124695,75.44145203,276.70455933,0,0,0,83.9045639,22.95275879,34.22390366,1,0,0,0,0.58185583,0.09814972,-0.22296354,0,0,0,0
1,324.29,32429,-0.12953018,-1.15793931,0.1267371,154.69100952,89.95774078,287.61505127,0,0,0,85.90622711,20.16750717,35.46166229,1,0,0,0,0.49147913,0.22921053,-0.2053903,0,0,0,0
1,324.3,32430,-0.13521057,-1.28209472,0.12390296,156.33930969,105.06508636,297.01254272,0,0,0,87.8795166,17.25843239,36.73892212,1,0,0,0,0.45013911,0.33430651,-0.17114076,0,0,0,0
1,324.31,32431,-0.15149462,-1.42017663,0.11934034,154.38108826,112.65541077,305.75305176,0,0,0,89.7616272,14.21042347,37.98535156,1,0,0,0,0.41648179,0.45620915,-0.13506654,0,0,0,0
1,324.32,32432,-0.13761593,-1.58749354,0.05739988,148.63008118,118.22687531,313.06375122,0,0,0,91.50515747,11.06659031,39.16079712,1,0,0,0,0.34981322,0.61053365,-0.04267902,0,0,0,0
1,324.33,32433,-0.03105596,-1.75887275,0.0344793,141.30828857,137.13789368,316.19372559,0,0,0,93.12472534,7.85135126,40.41993713,1,0,0,0,0.18851897,0.77246368,0.0090618,0,0,0,0
1,324.34,32434,0.08459149,-1.91960585,-0.0723168,139.7149353,154.66238403,316.66479492,0,0,0,94.66634369,4.58667994,41.75552368,1,0,0,0,0.01669123,0.92744148,0.14332172,0,0,0,0
1,324.35,32435,0.18509381,-2.08097124,-0.0227613,138.28305054,153.48840332,313.62365723,0,0,0,96.11333466,1.32020676,42.99045563,1,0,0,0,-0.1407204,1.08683813,0.1198605,0,0,0,0
1,324.36,32436,0.30162528,-2.29034948,0.18607461,139.57820129,160.01681519,308.57501221,0,0,0,97.50206757,-1.93057048,44.21220016,1,0,0,0,-0.31409365,1.29799461,-0.06450219,0,0,0,0
1,324.37,32437,0.5599336,-2.51387453,0.39697194,136.9130249,178.6055603,301.79211426,0,0,0,98.78736115,-5.17168045,45.55465698,1,0,0,0,-0.62892044,1.52689683,-0.25265205,0,0,0,0
1,324.38,32438,0.88817948,-2.39628077,0.41339681,118.5337677,191.08644104,297.91189575,0,0,0,99.80558014,-8.42089272,46.96780014,1,0,0,0,-1.01353264,1.41776347,-0.25055766,0,0,0,0
1,324.39,32439,1.0804404,-2.05193901,0.36995792,103.70294952,192.3669281,291.65133667,0,0,0,100.59886169,-11.6322298,48.36565781,1,0,0,0,-1.26151299,1.08447349,-0.19398771,0,0,0,0
1,324.4,32440,1.21148491,-1.87613547,0.35067311,108.79148102,205.3065033,274.24243164,0,0,0,101.33597565,-14.71535873,49.90028,1,0,0,0,-1.44619107,0.92225003,-0.16417652,0,0,0,0
1,324.41,32441,1.49418879,-1.81190908,0.38129398,110.46722412,210.23423767,245.72142029,0,0,0,101.98787689,-17.53284836,51.5291214,1,0,0,0,-1.77829623,0.87331349,-0.18602785,0,0,0,0
1,324.42,32442,1.95522761,-1.88257098,0.26924676,98.14969635,180.39372253,209.68211365,0,0,0,102.52288818,-19.96464539,52.92048264,1,0,0,0,-2.28234696,0.95946532,-0.06743698,0,0,0,0
1,324.43,32443,2.34816623,-1.79897881,0.16740671,68.84579468,119.79242706,173.06808472,0,0,0,102.91125488,-21.91643906,53.76309967,1,0,0,0,-2.71005821,0.88989216,0.03876844,0,0,0,0
1,324.44,32444,2.58272743,-1.39256036,0.12079811,46.21717834,69.33546448,150.35127258,0,0,0,103.23365021,-23.5376358,54.1265831,1,0,0,0,-2.9728055,0.4958128,0.08806002,0,0,0,0
1,324.45,32445,2.66290998,-1.17462635,0.16628879,36.09721756,34.23304749,111.03819275,0,0,0,103.56095886,-24.69703865,54.20953751,1,0,0,0,-3.07443857,0.28822631,0.04562733,0,0,0,0
1,324.46,32446,2.66793537,-0.95543402,0.15053977,14.37423992,4.02019739,57.50547409,0,0,0,103.74848175,-25.25014877,54.11713791,1,0,0,0,-3.09213161,0.07554398,0.06357503,0,0,0,0
1,324.47,32447,2.5340693,-0.93254673,0.16984764,9.63221931,-14.72532749,0.80274624,0,0,0,103.91318512,-25.22274208,53.95701218,1,0,0,0,-2.961025,0.05460609,0.0467813,0,0,0,0
1,324.48,32448,2.38629889,-0.99418426,0.12905926,-1.86319375,-30.7178688,-53.84245682,0,0,0,103.97283936,-24.6261158,53.77148056,1,0,0,0,-2.80722284,0.1138985,0.08982313,0,0,0,0
1,324.49,32449,2.05657363,-1.20985544,0.10537817,-16.33358002,-43.02823257,-99.50077057,0,0,0,103.8891983,-23.55679703,53.57630539,1,0,0,0,-2.46313286,0.32307392,0.11438963,0,0,0,0
1,324.5,32450,1.40027153,-1.23685813,0.1844047,-34.92492676,-45.55696106,-130.06655884,0,0,0,103.59638214,-22.18486786,53.43271255,1,0,0,0,-1.78655434,0.34102857,0.03519443,0,0,0,0
1,324.51,32451,-0.65435869,-1.65484989,0.0400784,-64.21376801,-62.79122925,-170.31680298,0,0,0,103.03757477,-20.38720894,53.20193863,1,0,0,0,0.29411808,0.74689329,0.17381415,0,0,0,0
1,324.52,32452,-4.04002142,-2.7624011,0.44483507,-116.57687378,-65.32753754,-167.74589539,0,0,0,101.97066498,-18.60599518,52.91331863,1,0,0,0,3.71137929,1.84012353,-0.241606,0,0,0,0
1,324.53,32453,-0.35552329,-2.03723741,-1.20550632,-86.29899597,169.12733459,-38.86849976,0,0,0,100.5267868,-18.55035782,54.74468231,1,0,0,0,0.03841287,1.10637367,1.38686407,0,0,0,0
1,324.54,32454,3.11433411,-2.14202905,-0.1793804,-66.49433136,134.44642639,-147.50706482,0,0,0,99.34026337,-17.33390236,56.40323257,1,0,0,0,-3.42334032,1.2048583,0.34104291,0,0,0,0
1,324.55,32455,0.76058137,-2.09933233,0.24492846,-59.39432526,-65.33285522,-263.64126587,0,0,0,98.81497955,-14.62753677,56.15980148,1,0,0,0,-1.03025126,1.14812243,-0.0956116,0,0,0,0
1,324.56,32456,-0.15981479,-1.24506426,0.79027241,-30.37808037,25.24277115,-234.12498474,0,0,0,98.405159,-12.35574913,56.74765778,1,0,0,0,-0.06782268,0.28245008,-0.64387256,0,0,0,0
1,324.57,32457,0.1574509,-0.22720124,-0.09030057,-63.02621078,100.34033966,-197.50920105,0,0,0,97.51855469,-10.53783417,58.03955841,1,0,0,0,-0.35163036,-0.74463463,0.22348504,0,0,0,0
1,324.58,32458,0.49703619,-0.45940283,0.18864873,2.85377836,75.38076782,-178.34579468,0,0,0,97.37993622,-8.86650181,59.0312767,1,0,0,0,-0.66196966,-0.51867127,-0.06175626,0,0,0,0
1,324.59,32459,0.64727473,-0.46071532,0.62080044,28.28962708,92.66590118,-163.71905518,0,0,0,97.50273132,-7.36283731,60.17298889,1,0,0,0,-0.78470284,-0.52143013,-0.49253315,0,0,0,0
1,324.6,32460,0.91103494,-0.72766078,0.6005621,20.36573601,70.39501953,-141.66069031,0,0,0,97.6009903,-6.05147648,61.06409836,1,0,0,0,-1.02498496,-0.25707871,-0.46917471,0,0,0,0
1,324.61,32461,0.88163298,-1.28184068,-0.0742483,-37.21385574,19.63871956,-145.8591156,0,0,0,97.16904449,-4.595263,61.48045349,1,0,0,0,-0.97169536,0.29415029,0.20191345,0,0,0,0
1,324.62,32462,0.56433362,-1.29080093,-0.06160877,-54.19898605,-9.60155296,-144.22851562,0,0,0,96.62154388,-3.15198302,61.55854797,1,0,0,0,-0.62855357,0.29996559,0.18020535,0,0,0,0
1,324.63,32463,0.46735272,-1.00426722,0.06661441,-20.71794891,-8.77587986,-124.20707703,0,0,0,96.41178894,-1.90797532,61.61155319,1,0,0,0,-0.50854999,0.01145785,0.04561917,0,0,0,0
1,324.64,32464,0.56795961,-1.21377504,0.08641703,-0.81456459,-54.70732117,-110.13541412,0,0,0,96.41253662,-0.7523399,61.19100952,1,0,0,0,-0.58850533,0.22027637,0.02541814,0,0,0,0
1,324.65,32465,0.35341689,-1.04494548,0.16390905,-16.90462875,-67.60184479,-95.00621796,0,0,0,96.24588013,0.26657134,60.62404251,1,0,0,0,-0.35518616,0.05103192,-0.05387158,0,0,0,0
1,324.66,32466,0.19419059,-0.79084945,0.09290208,-11.10438633,-52.40903854,-84.50360107,0,0,0,96.12503815,1.20595944,60.189991,1,0,0,0,-0.17946979,-0.20326118,0.01436464,0,0,0,0
1,324.67,32467,0.25505453,-0.94784075,0.03678322,-2.41599655,-46.35621643,-76.55896759,0,0,0,96.09017944,2.01651311,59.81034851,1,0,0,0,-0.22501627,-0.04603739,0.06946548,0,0,0,0
1,324.68,32468,0.2683847,-1.0271306,0.04004328,2.60275507,-34.7686348,-65.5118103,0,0,0,96.10494232,2.70481229,59.53388977,1,0,0,0,-0.22546741,0.03369866,0.06597863,0,0,0,0
1,324.69,32469,0.24045935,-1.03020215,0.1026261,10.41812897,-21.79615784,-55.74250412,0,0,0,96.20097351,3.28235531,59.37662888,1,0,0,0,-0.18685588,0.03740574,0.00449152,0,0,0,0
1,324.7,32470,0.23161748,-0.99698991,0.14250471,15.13469315,-11.74903202,-50.23954773,0,0,0,96.34849548,3.79457521,59.31460571,1,0,0,0,-0.16873167,0.00498377,-0.03313113,0,0,0,0
1,324.71,32471,0.22951984,-0.964809,0.1825442,17.50792313,-7.72126007,-46.03881454,0,0,0,96.56121063,4.32873583,59.23600388,1,0,0,0,-0.15788624,-0.02627499,-0.07023735,0,0,0,0
1,324.72,32472,0.22504884,-0.94517601,0.18172644,18.30815506,-1.62210321,-40.20198059,0,0,0,96.74672699,4.72992182,59.26656342,1,0,0,0,-0.14511321,-0.04486021,-0.06582017,0,0,0,0
1,324.73,32473,0.24582912,-0.94857991,0.1783185,18.2925663,1.09358954,-33.71258545,0,0,0,96.93402863,5.06333923,59.31775284,1,0,0,0,-0.15966845,-0.04055922,-0.05925307,0,0,0,0
1,324.74,32474,0.26495308,-0.94526374,0.21457344,16.35799026,5.14145184,-28.75892067,0,0,0,97.10546875,5.34248352,59.4042778,1,0,0,0,-0.17358658,-0.04303983,-0.09248354,0,0,0,0
1,324.75,32475,0.28772557,-0.9586702,0.2605705,16.65428162,6.18546295,-23.15051079,0,0,0,97.28062439,5.56443214,59.49503326,1,0,0,0,-0.19212952,-0.02886671,-0.13554828,0,0,0,0
1,324.76,32476,0.31305251,-0.98711777,0.2965256,15.92041206,0.61724722,-17.047472,0,0,0,97.58349609,5.8970499,59.36739731,1,0,0,0,-0.21345806,0.00042267,-0.16804458,0,0,0,0
1,324.77,32477,0.2914938,-0.98977941,0.29571125,15.40390396,-11.13048267,-10.52996922,0,0,0,97.72746277,6.01626682,59.27058411,1,0,0,0,-0.18741159,0.0041222,-0.162873,0,0,0,0
1,324.78,32478,0.2618174,-0.99235392,0.26703766,14.17402363,-20.13641739,-5.82632256,0,0,0,97.84882355,6.10130882,59.07789993,1,0,0,0,-0.15604469,0.0071765,-0.13199331,0,0,0,0
1,324.79,32479,0.22028229,-0.99318117,0.25228816,12.1034584,-27.68818283,-2.19768906,0,0,0,97.94070435,6.16112661,58.80509949,1,0,0,0,-0.11332644,0.00837284,-0.11549275,0,0,0,0
1,324.8,32480,0.17191938,-0.98648524,0.22413953,10.99669743,-34.10259247,-0.73733795,0,0,0,98.01416016,6.21576548,58.46643829,1,0,0,0,-0.06401408,0.00196828,-0.08599956,0,0,0,0
1,324.81,32481,0.13517223,-0.99777657,0.19927843,10.36561298,-38.02236938,-1.59828591,0,0,0,98.10877228,6.28918886,58.06108093,1,0,0,0,-0.02615481,0.01356106,-0.05987006,0,0,0,0
1,324.82,32482,0.08733749,-0.99234474,0.22228253,8.57275867,-39.04195404,-4.26573324,0,0,0,98.15227509,6.38663864,57.67829514,1,0,0,0,0.02321893,0.00848433,-0.08158474,0,0,0,0
1,324.83,32483,0.06920457,-0.9692359,0.28293478,6.11886787,-37.30539322,-8.48501778,0,0,0,98.17307281,6.52358723,57.31879807,1,0,0,0,0.04346589,-0.01432359,-0.14181209,0,0,0,0
1,324.84,32484,0.05523159,-0.94631773,0.30821264,4.09058809,-34.07405472,-12.00942421,0,0,0,98.1769104,6.69092226,56.99647141,1,0,0,0,0.06014832,-0.03690359,-0.16692375,0,0,0,0
1,324.85,32485,0.0873906,-0.9274413,0.31263322,2.26961708,-28.22524452,-17.90289307,0,0,0,98.16936493,6.90826845,56.74074936,1,0,0,0,0.0314348,-0.05538525,-0.17145476,0,0,0,0
1,324.86,32486,0.14460349,-0.92979723,0.30607709,1.29755139,-25.01159096,-20.60047531,0,0,0,98.26193237,7.18012381,56.42694473,1,0,0,0,-0.02161621,-0.05249459,-0.16474609,0,0,0,0
1,324.87,32487,0.17965245,-0.96688277,0.254558,0.39870542,-27.77362823,-22.54694366,0,0,0,98.23478699,7.44311237,56.18244934,1,0,0,0,-0.05184744,-0.01465899,-0.11229127,0,0,0,0
1,324.88,32488,0.16844477,-0.991808,0.21421774,-5.0579381,-34.317379,-24.8496933,0,0,0,98.1436615,7.73798561,55.87550354,1,0,0,0,-0.03576806,0.01074246,-0.0731331,0,0,0,0
1,324.89,32489,0.14751396,-0.97523713,0.22674534,-9.80423641,-37.18665314,-27.71278572,0,0,0,97.99993896,8.06459236,55.54310226,1,0,0,0,-0.0093918,-0.00539811,-0.087916,0,0,0,0
1,324.9,32490,0.13457014,-0.96454614,0.26220751,-12.10557652,-38.89840698,-30.83714867,0,0,0,97.82924652,8.42358494,55.19669342,1,0,0,0,0.00955301,-0.01563717,-0.12632006,0,0,0,0
1,324.91,32491,0.14827843,-0.97004735,0.29716176,-12.64303112,-37.41222382,-34.03289413,0,0,0,97.7150116,8.81384563,54.82330704,1,0,0,0,0.00237157,-0.00954203,-0.16410114,0,0,0,0
1,324.92,32492,0.16392259,-0.98724192,0.29117778,-12.67634201,-35.84663391,-37.11138153,0,0,0,97.53966522,9.22926331,54.51343155,1,0,0,0,-0.00625661,0.00843933,-0.16047935,0,0,0,0
1,324.93,32493,0.17716888,-1.00396442,0.26546392,-14.15775681,-34.93419266,-40.09234619,0,0,0,97.34907532,9.67209339,54.21493912,1,0,0,0,-0.01204245,0.02595863,-0.13805735,0,0,0,0
1,324.94,32494,0.17284556,-1.00256646,0.24211966,-17.99263382,-35.54972076,-43.60499191,0,0,0,97.11713409,10.14944649,53.91267395,1,0,0,0,0.00025441,0.02544521,-0.11857286,0,0,0,0
1,324.95,32495,0.16416703,-1.00116813,0.23249125,-21.74575233,-35.05737305,-46.77309799,0,0,0,96.84626007,10.65633106,53.6166954,1,0,0,0,0.01745367,0.02502826,-0.11350881,0,0,0,0
1,324.96,32496,0.16835536,-1.00322795,0.24483544,-22.31777573,-33.04592514,-49.3497467,0,0,0,96.60389709,11.1791935,53.32170868,1,0,0,0,0.02217563,0.02822116,-0.13059072,0,0,0,0
1,324.97,32497,0.17957896,-1.03594458,0.23286955,-22.80420303,-29.98955345,-52.23012543,0,0,0,96.3274231,11.73194981,53.07765579,1,0,0,0,0.0201573,0.06226626,-0.12311091,0,0,0,0
1,324.98,32498,0.17610827,-1.06791365,0.2380352,-23.99913979,-28.40210533,-56.50157166,0,0,0,96.04025269,12.32427979,52.85116959,1,0,0,0,0.03350903,0.09575866,-0.13332026,0,0,0,0
1,324.99,32499,0.16571394,-1.09031284,0.23780489,-26.76248741,-28.73024368,-60.89890671,0,0,0,95.72253418,12.9595108,52.62225723,1,0,0,0,0.05442622,0.1199228,-0.13846047,0,0,0,0
1,325,32500,0.12649816,-1.11410856,0.23874362,-31.02360725,-31.82020569,-66.55290985,0,0,0,95.35258484,13.65264606,52.36280823,1,0,0,0,0.10504377,0.14576229,-0.14558277,0,0,0,0
1,325.01,32501,0.09462021,-1.16150403,0.22927769,-34.93642426,-33.51756287,-73.48968506,0,0,0,94.95436859,14.38385582,52.09413147,1,0,0,0,0.14924523,0.19554247,-0.14307149,0,0,0,0
1,325.02,32502,0.07996296,-1.21999121,0.21606052,-40.38056183,-31.64264297,-82.39552307,0,0,0,94.48519135,15.23108482,51.83808136,1,0,0,0,0.17729245,0.25686049,-0.13747084,0,0,0,0
1,325.03,32503,0.06040781,-1.24806368,0.20378336,-44.09141159,-27.27652359,-90.68071747,0,0,0,93.98674011,16.1556015,51.62508774,1,0,0,0,0.21190834,0.2884233,-0.13372639,0,0,0,0
1,325.04,32504,0.06833705,-1.27087617,0.19044213,-47.6546402,-22.50251579,-98.84041595,0,0,0,93.46231079,17.15657806,51.45772934,1,0,0,0,0.22028407,0.31540278,-0.12930162,0,0,0,0
1,325.05,32505,0.08673815,-1.30034006,0.21556762,-51.60256958,-18.45834351,-107.19651794,0,0,0,92.90652466,18.23716927,51.32678986,1,0,0,0,0.21937671,0.34977329,-0.16378343,0,0,0,0
1,325.06,32506,0.10640164,-1.338925,0.28271779,-56.12768555,-15.57890892,-114.64931488,0,0,0,92.33063507,19.36388969,51.22514725,1,0,0,0,0.21827333,0.39404976,-0.24077009,0,0,0,0
1,325.07,32507,0.15585145,-1.3900032,0.32370999,-60.29595947,-14.28116703,-121.54766083,0,0,0,91.69130707,20.58361626,51.11870956,1,0,0,0,0.18813983,0.45159066,-0.29197299,0,0,0,0
1,325.08,32508,0.15701543,-1.46463001,0.33226675,-63.08307648,-19.09783363,-127.01255798,0,0,0,90.99777985,21.85780716,50.94585419,1,0,0,0,0.20745984,0.53366935,-0.3117485,0,0,0,0
1,325.09,32509,0.12426274,-1.62270379,0.34958971,-66.95799255,-25.70639992,-131.62785339,0,0,0,90.22736359,23.17670822,50.68291092,1,0,0,0,0.2612924,0.70008713,-0.34114167,0,0,0,0
1,325.1,32510,0.03945924,-1.73856628,0.45101568,-75.7399292,-29.73254585,-138.4624939,0,0,0,89.33605194,24.56018448,50.35212708,1,0,0,0,0.36779666,0.82530075,-0.45607963,0,0,0,0
1,325.11,32511,-0.06919397,-1.7514863,0.43665123,-75.79045868,-38.05784607,-146.87211609,0,0,0,88.39595795,25.99908447,49.91374588,1,0,0,0,0.49913147,0.84888029,-0.45638248,0,0,0,0
1,325.12,32512,-0.10528371,-1.86833107,0.35947749,-72.71041107,-55.0062561,-150.50445557,0,0,0,87.36341858,27.48254776,49.23586655,1,0,0,0,0.55810958,0.97745377,-0.39430714,0,0,0,0
1,325.13,32513,-0.195494,-2.01466513,0.34430605,-73.19483948,-73.91511536,-154.65878296,0,0,0,86.18805695,28.9849453,48.29949188,1,0,0,0,0.6714139,1.13673246,-0.39582905,0,0,0,0
1,325.14,32514,-0.36360449,-2.11772513,0.40305698,-69.8680191,-92.73348999,-157.89620972,0,0,0,84.89048767,30.48674774,47.09327316,1,0,0,0,0.86249965,1.25391769,-0.47274444,0,0,0,0
1,325.15,32515,-0.49676803,-2.14881492,0.52005309,-63.96452713,-116.7505188,-154.15679932,0,0,0,83.45201111,31.90153694,45.55247498,1,0,0,0,1.01746261,1.29978681,-0.60918844,0,0,0,0
1,325.16,32516,-0.43322292,-2.01130795,0.53820556,-62.00569153,-142.76045227,-150.69009399,0,0,0,81.81814575,33.19285583,43.66546249,1,0,0,0,0.97375774,1.17733443,-0.64877236,0,0,0,0
1,325.17,32517,-0.1907689,-1.67522001,0.61248285,-69.91996765,-150.06999207,-160.60144043,0,0,0,79.9541626,34.54129028,41.5745163,1,0,0,0,0.75029373,0.85744989,-0.74694973,0,0,0,0
1,325.18,32518,0.14887239,-1.47008705,0.70273513,-71.91635132,-114.41455078,-182.18809509,0,0,0,78.19578552,36.1141243,39.77396393,1,0,0,0,0.43179274,0.67143583,-0.86045575,0,0,0,0
1,325.19,32519,0.34713393,-1.56052613,0.64066029,-71.29777527,-48.52829742,-198.18309021,0,0,0,76.80300903,37.94444275,38.64291763,1,0,0,0,0.25804061,0.78396714,-0.81561935,0,0,0,0
1,325.2,32520,0.33410156,-1.57384956,0.61515886,-68.6683197,-11.86333084,-205.16764832,0,0,0,75.62895203,39.90898132,37.86604309,1,0,0,0,0.29748043,0.82148355,-0.8020761,0,0,0,0
1,325.21,32521,0.39546558,-1.47138071,0.57438308,-58.02578354,6.5209589,-189.57693481,0,0,0,74.73833466,41.73608017,37.35036469,1,0,0,0,0.26155588,0.74309021,-0.768879,0,0,0,0
1,325.22,32522,0.37824097,-1.37338042,0.73084944,-39.01331329,11.81599045,-171.12809753,0,0,0,74.02919006,43.41593933,36.8785553,1,0,0,0,0.30121082,0.66720301,-0.92981565,0,0,0,0
1,325.23,32523,0.2960237,-1.20411062,0.78924662,-26.31471825,-7.96199226,-148.99528503,0,0,0,73.28437042,44.82315826,36.18842697,1,0,0,0,0.40266004,0.51779068,-0.99112171,0,0,0,0
1,325.24,32524,-0.28149575,-0.85723549,0.72201008,-23.56426811,-71.98748779,-112.40556335,0,0,0,72.01597595,45.68115997,34.73635864,1,0,0,0,0.99371159,0.18772979,-0.93290389,0,0,0,0
1,325.25,32525,-0.62282455,-0.28608277,0.29918158,-12.5040493,-102.41982269,-58.05737305,0,0,0,70.7017746,45.90383911,33.07845306,1,0,0,0,1.34044147,-0.37312981,-0.52377999,0,0,0,0
1,325.26,32526,-0.41891471,-0.22803661,0.2970458,-3.72703958,-103.87770081,-25.6510582,0,0,0,69.77494049,45.68186188,31.92921638,1,0,0,0,1.13615274,-0.42690143,-0.53498352,0,0,0,0
1,325.27,32527,-0.48968968,-0.38140413,0.54893774,12.46149635,-99.45057678,-6.35544586,0,0,0,68.92825317,45.39020157,30.56874466,1,0,0,0,1.20309877,-0.27365953,-0.79779434,0,0,0,0
1,325.28,32528,-0.74723136,-0.20123105,0.44021297,30.41463089,-74.09681702,27.70708084,0,0,0,68.63873291,44.86354446,29.73173141,1,0,0,0,1.45541704,-0.45662928,-0.69650269,0,0,0,0
1,325.29,32529,-0.75151825,-0.11346396,0.30644542,42.69801712,-69.76732635,67.22586823,0,0,0,68.66835022,43.98328781,29.164505,1,0,0,0,1.45040154,-0.5526064,-0.56700617,0,0,0,0
1,325.3,32530,-0.52291489,-0.21971126,0.16826876,56.59742737,-69.91769409,92.6027298,0,0,0,68.93424225,42.86700439,28.72813416,1,0,0,0,1.20869982,-0.45891392,-0.43120435,0,0,0,0
1,325.31,32531,-0.31811896,-0.39705837,0.07813545,64.33753967,-74.38809204,106.36711884,0,0,0,69.32846832,41.53339767,28.43841934,1,0,0,0,0.98815835,-0.29668435,-0.34218395,0,0,0,0
1,325.32,32532,-0.26662144,-0.42919108,0.08275384,71.8800354,-73.47496796,120.79236603,0,0,0,69.81633759,40.14486694,28.08563614,1,0,0,0,0.91839194,-0.28171813,-0.34686095,0,0,0,0
1,325.33,32533,-0.28670797,-0.39100525,0.11959987,81.98606873,-61.38274384,138.87033081,0,0,0,70.54823303,38.63002777,27.94779205,1,0,0,0,0.91881478,-0.33825862,-0.3814227,0,0,0,0
1,325.34,32534,-0.28833905,-0.43588495,0.10851239,92.06365967,-41.97148132,157.05249023,0,0,0,71.55622101,37.00808716,28.09089661,1,0,0,0,0.89881206,-0.31367838,-0.36424237,0,0,0,0
1,325.35,32535,-0.23673217,-0.51375145,0.10164472,101.03973389,-27.68103409,175.39770508,0,0,0,72.76625061,35.25343704,28.43003082,1,0,0,0,0.82338822,-0.25767788,-0.347882,0,0,0,0
1,325.36,32536,-0.22242686,-0.55682188,0.10958487,113.1516037,-10.38298988,190.27519226,0,0,0,74.23213196,33.33856583,29.0557785,1,0,0,0,0.78284276,-0.23785596,-0.34259802,0,0,0,0
1,325.37,32537,-0.2351986,-0.59967083,0.13313167,120.72351837,10.32919884,203.23606873,0,0,0,75.83482361,31.40144348,29.79534531,1,0,0,0,0.7670815,-0.21906377,-0.34909242,0,0,0,0
1,325.38,32538,-0.1990059,-0.64302742,0.12802893,128.09587097,35.69687271,215.99177551,0,0,0,77.61009979,29.38087463,30.77325439,1,0,0,0,0.70119089,-0.19925807,-0.32350194,0,0,0,0
1,325.39,32539,-0.15999964,-0.72165918,0.11929808,135.62860107,57.35544968,228.31686401,0,0,0,79.51309204,27.25651169,31.92608833,1,0,0,0,0.63041186,-0.14387226,-0.29073524,0,0,0,0
1,325.4,32540,-0.14571983,-0.801359,0.12850094,141.9303894,73.23218536,240.25631714,0,0,0,81.48122406,25.00756073,33.17233658,1,0,0,0,0.58187449,-0.08668065,-0.27326816,0,0,0,0
1,325.41,32541,-0.11592994,-0.92580229,0.13528548,148.59503174,89.49681091,252.40591431,0,0,0,83.51854706,22.59316254,34.52949905,1,0,0,0,0.51497149,0.01632348,-0.25099602,0,0,0,0
1,325.42,32542,-0.07504379,-1.08302581,0.12085252,152.33961487,101.49015808,263.50845337,0,0,0,85.53471375,20.06670189,35.88353729,1,0,0,0,0.43379298,0.15358189,-0.20567799,0,0,0,0
1,325.43,32543,-0.02916214,-1.22799492,0.10911173,152.96607971,107.72425842,273.8112793,0,0,0,87.48588562,17.39915466,37.19445419,1,0,0,0,0.34497088,0.28081736,-0.16265993,0,0,0,0
1,325.44,32544,-0.01083522,-1.3420651,0.10155074,150.92248535,108.79985046,284.54098511,0,0,0,89.3299408,14.58505058,38.40750885,1,0,0,0,0.28063583,0.37955475,-0.12425902,0,0,0,0
1,325.45,32545,0.01830741,-1.4594841,0.05300863,147.78096008,107.85668182,294.64779663,0,0,0,91.05715942,11.63497257,39.50416183,1,0,0,0,0.20235328,0.48430109,-0.04582372,0,0,0,0
1,325.46,32546,0.08952217,-1.55398369,0.0294447,144.420578,107.02297211,300.17379761,0,0,0,92.67331696,8.59681511,40.49472046,1,0,0,0,0.07968073,0.56919014,0.00620947,0,0,0,0
1,325.47,32547,0.14167041,-1.65625906,0.01166705,143.04241943,110.67976379,302.1762085,0,0,0,94.21818542,5.51395321,41.42464828,1,0,0,0,-0.02548151,0.66518402,0.05148624,0,0,0,0
1,325.48,32548,0.14060719,-1.76411164,0.02290537,140.61256409,108.73760223,304.19546509,0,0,0,95.68167114,2.38973308,42.24728775,1,0,0,0,-0.07844117,0.77019632,0.06644985,0,0,0,0
1,325.49,32549,0.13899353,-1.91878498,0.0927095,141.14241028,108.29812622,304.97128296,0,0,0,97.10366058,-0.76161438,42.9839325,1,0,0,0,-0.13164888,0.92552781,0.02175437,0,0,0,0
1,325.5,32550,0.20376864,-2.14944577,0.27909923,140.85609436,120.63180542,300.90283203,0,0,0,98.47959137,-3.90668178,43.77177429,1,0,0,0,-0.25137883,1.16035986,-0.14066993,0,0,0,0
1,325.51,32551,0.40479186,-2.30341434,0.4394457,139.36355591,142.15774536,293.23031616,0,0,0,99.78339386,-7.02150726,44.71043396,1,0,0,0,-0.50681829,1.3218509,-0.27865374,0,0,0,0
1,325.52,32552,0.67796093,-2.14299893,0.40668717,127.56611633,159.21942139,289.86602783,0,0,0,100.90094757,-10.15934277,45.7673111,1,0,0,0,-0.8340162,1.17191935,-0.22671811,0,0,0,0
1,325.53,32553,0.86925733,-1.97841871,0.32864839,123.61700439,174.47236633,278.66723633,0,0,0,101.89608002,-13.23610592,46.95181274,1,0,0,0,-1.0787406,1.02044463,-0.13330963,0,0,0,0
1,325.54,32554,1.08885789,-2.04905391,0.29502565,126.07250214,189.41381836,252.17961121,0,0,0,102.81256104,-16.10514641,48.30690002,1,0,0,0,-1.34848928,1.10626388,-0.0863893,0,0,0,0
1,325.55,32555,1.44273078,-2.03768563,0.28472689,116.65851593,193.20361328,221.83851624,0,0,0,103.54755402,-18.70597458,49.7480278,1,0,0,0,-1.74760151,1.11087215,-0.06586011,0,0,0,0
1,325.56,32556,1.86608243,-1.93805468,0.20411043,102.43304443,172.7130127,192.68743896,0,0,0,104.13141632,-20.97766685,51.04530334,1,0,0,0,-2.21066546,1.02693737,0.02172723,0,0,0,0
1,325.57,32557,2.27679038,-1.73769772,0.06346619,82.19326782,131.8276825,167.76187134,0,0,0,104.60736084,-22.92978287,51.97290421,1,0,0,0,-2.65496206,0.84123933,0.16730867,0,0,0,0
1,325.58,32558,2.55924964,-1.35938096,-0.0342048,55.19454193,80.381073,147.97422791,0,0,0,104.98459625,-24.56553078,52.40873337,1,0,0,0,-2.96568036,0.47624701,0.26835257,0,0,0,0
1,325.59,32559,2.64011836,-1.0103277,-0.00497583,33.49617386,27.84283066,107.38987732,0,0,0,105.32563782,-25.67471123,52.39559937,1,0,0,0,-3.06759644,0.13792145,0.24191941,0,0,0,0
1,325.6,32560,2.46137285,-1.00396299,0.07784218,27.58409309,-5.9951005,45.01130295,0,0,0,105.68798065,-26.09239006,52.19792557,1,0,0,0,-2.89963722,0.13802519,0.16313685,0,0,0,0
1,325.61,32561,2.23805547,-1.09984457,0.0304431,10.69623852,-11.32396412,-22.44404984,0,0,0,105.81381989,-25.82154083,52.16342926,1,0,0,0,-2.67610693,0.23480861,0.21413998,0,0,0,0
1,325.62,32562,2.07220387,-1.10626948,-0.06014932,-5.58638573,-4.31560946,-77.28447723,0,0,0,105.67793274,-25.06601524,52.34985733,1,0,0,0,-2.50087047,0.23673052,0.30536473,0,0,0,0
1,325.63,32563,1.87308788,-1.23266137,-0.06296502,-22.48707008,-2.91966486,-116.90673828,0,0,0,105.32345581,-23.93168831,52.66233444,1,0,0,0,-2.28588104,0.3548333,0.30583128,0,0,0,0
1,325.64,32564,1.3588233,-1.24879313,0.09615338,-36.6514473,-2.7192421,-137.78248596,0,0,0,104.81410217,-22.5943222,53.02467728,1,0,0,0,-1.75144553,0.3607001,0.14277549,0,0,0,0
1,325.65,32565,-0.27755278,-1.4410392,0.04796704,-66.53638458,-24.50105095,-169.43444824,0,0,0,104.07327271,-20.89301872,53.22418594,1,0,0,0,-0.0900889,0.54011172,0.1824341,0,0,0,0
1,325.66,32566,-3.75250697,-2.26782084,0.85059845,-96.16107941,-51.06476212,-184.01434326,0,0,0,103.13605499,-18.98547745,53.15995789,1,0,0,0,3.41599464,1.35233569,-0.63027918,0,0,0,0
1,325.67,32567,-2.03662205,-2.04726768,-0.89007455,-92.67936707,115.36154175,-57.81589127,0,0,0,101.78588104,-18.6671257,54.48435211,1,0,0,0,1.71714711,1.12139666,1.09171176,0,0,0,0
1,325.68,32568,2.7926693,-2.03933907,-0.8746261,-66.97059631,190.41860962,-73.97486877,0,0,0,100.43778229,-18.31016922,56.60303497,1,0,0,0,-3.11183739,1.10897326,1.05489898,0,0,0,0
1,325.69,32569,1.1754123,-2.20132256,0.29729578,-51.87572861,-17.77873039,-239.56629944,0,0,0,99.84289551,-15.92058754,56.85560608,1,0,0,0,-1.46485043,1.2585299,-0.13230026,0,0,0,0
1,325.7,32570,0.12304635,-1.17121565,0.78196698,-24.63612556,27.796772,-209.36883545,0,0,0,99.43198395,-13.90371704,57.50537109,1,0,0,0,-0.37566975,0.21751925,-0.61904144,0,0,0,0
1,325.71,32571,0.20984186,-0.34311345,0.27434963,-62.13670349,75.1886673,-189.10205078,0,0,0,98.58807373,-12.09536552,58.55711746,1,0,0,0,-0.4309842,-0.62049985,-0.12449861,0,0,0,0
1,325.72,32572,0.44814169,-0.68795955,0.28294837,10.44245148,79.58155823,-170.51452637,0,0,0,98.48492432,-10.52676487,59.61708069,1,0,0,0,-0.64087701,-0.28248852,-0.13794537,0,0,0,0
1,325.73,32573,0.30761984,-0.74619454,0.52498895,29.14651871,102.51327515,-170.40312195,0,0,0,98.55919647,-8.99322033,60.90159988,1,0,0,0,-0.47369811,-0.2290089,-0.37890258,0,0,0,0
1,325.74,32574,0.49833682,-0.76388335,0.60079432,10.22672176,99.32038879,-152.46502686,0,0,0,98.48483276,-7.63350725,62.12365341,1,0,0,0,-0.63959968,-0.21505249,-0.45352912,0,0,0,0
1,325.75,32575,0.97882527,-1.00602567,0.04744243,-33.90469742,75.16252899,-132.92562866,0,0,0,98.02993774,-6.42623854,63.06560898,1,0,0,0,-1.09866476,0.02341469,0.09424141,0,0,0,0
1,325.76,32576,0.76520407,-1.19077551,0.02405846,-41.23083115,29.94407272,-142.24111938,0,0,0,97.57202148,-4.99863482,63.55063629,1,0,0,0,-0.86226434,0.20459706,0.11001204,0,0,0,0
1,325.77,32577,0.49952289,-0.95337611,0.01519668,-36.64046097,7.67351246,-123.0483017,0,0,0,97.18761444,-3.78815913,63.78519058,1,0,0,0,-0.57312965,-0.03578562,0.1117114,0,0,0,0
1,325.78,32578,0.73874938,-1.1074003,0.02701011,-7.74738693,-44.66827393,-101.88258362,0,0,0,97.12714386,-2.72174621,63.46820831,1,0,0,0,-0.79321504,0.11663242,0.09702736,0,0,0,0
1,325.79,32579,0.457791,-1.06830907,0.13097705,-13.77092934,-93.04875946,-88.74739838,0,0,0,97.02053833,-1.72638893,62.65362167,1,0,0,0,-0.49430859,0.07658078,-0.00802187,0,0,0,0
1,325.8,32580,0.22228979,-0.87178117,0.13732149,-6.02362776,-95.66632843,-75.67871857,0,0,0,96.97961426,-0.85884148,61.79590607,1,0,0,0,-0.24274449,-0.12058708,-0.01579057,0,0,0,0
1,325.81,32581,0.19614069,-0.969042,0.08236039,3.26936865,-82.28967285,-62.89537811,0,0,0,97.00655365,-0.09324751,61.05774689,1,0,0,0,-0.2028812,-0.02347162,0.03953156,0,0,0,0
1,325.82,32582,0.14587125,-1.00050068,0.07997136,5.68137598,-62.8462677,-55.50352097,0,0,0,97.06139374,0.53450263,60.50191116,1,0,0,0,-0.1405426,0.00805047,0.04252338,0,0,0,0
1,325.83,32583,0.09672015,-0.99525863,0.11865643,13.72092056,-32.81473923,-51.03056717,0,0,0,97.19508362,1.08150721,60.23952484,1,0,0,0,-0.08132307,0.00313307,0.00561133,0,0,0,0
1,325.84,32584,0.1399532,-0.99534589,0.18140696,18.89382935,-11.7110405,-47.1002655,0,0,0,97.3828125,1.563519,60.18305969,1,0,0,0,-0.11574198,0.0037659,-0.05421969,0,0,0,0
1,325.85,32585,0.20723566,-0.99699253,0.22235231,20.61408806,-2.33063316,-44.10587311,0,0,0,97.59005737,2.00383496,60.21743393,1,0,0,0,-0.17509601,0.0060908,-0.09168001,0,0,0,0
1,325.86,32586,0.18385413,-0.95256412,0.20968416,20.3803215,5.70284796,-39.26602936,0,0,0,97.84957123,2.45233655,60.26057434,1,0,0,0,-0.14429992,-0.03756584,-0.07525434,0,0,0,0
1,325.87,32587,0.19280507,-0.91596019,0.2575109,22.93416786,10.33246326,-31.63057327,0,0,0,98.08556366,2.75126243,60.40686417,1,0,0,0,-0.14667168,-0.07326221,-0.11855997,0,0,0,0
1,325.88,32588,0.22790274,-0.93336338,0.29254708,21.46095848,13.55756378,-27.0072422,0,0,0,98.30886078,2.99923944,60.57976913,1,0,0,0,-0.17711642,-0.05506757,-0.14963934,0,0,0,0
1,325.89,32589,0.28610334,-0.95163685,0.29959136,19.7575798,12.57312107,-21.81824684,0,0,0,98.51487732,3.19670224,60.73628998,1,0,0,0,-0.23158348,-0.03606623,-0.15307085,0,0,0,0
1,325.9,32590,0.3237409,-0.98433036,0.29588163,19.7960434,1.61400664,-16.19069862,0,0,0,98.71511078,3.35439324,60.77655411,1,0,0,0,-0.26619422,-0.00267848,-0.14588022,0,0,0,0
1,325.91,32591,0.3077361,-0.98000854,0.31115654,18.99020386,-13.46656132,-9.56895542,0,0,0,98.99806213,3.60736489,60.53755951,1,0,0,0,-0.24732493,-0.00626376,-0.15749264,0,0,0,0
1,325.92,32592,0.26046187,-0.96697438,0.28713992,17.85861206,-26.08934021,-3.99919629,0,0,0,99.16059113,3.68806148,60.28572845,1,0,0,0,-0.19662526,-0.01841949,-0.12926908,0,0,0,0
1,325.93,32593,0.21134621,-0.96140301,0.25243005,16.31863594,-34.55228043,-0.44029599,0,0,0,99.30164337,3.7478559,59.944664,1,0,0,0,-0.14635314,-0.02351022,-0.09205161,0,0,0,0
1,325.94,32594,0.1351137,-0.96745414,0.24703357,17.45965576,-36.75891113,0.27218717,0,0,0,99.45227051,3.80505991,59.58074951,1,0,0,0,-0.06913463,-0.01698357,-0.08415756,0,0,0,0
1,325.95,32595,0.09691247,-0.96994811,0.24677262,18.2415638,-34.08146286,-1.78821707,0,0,0,99.61233521,3.87912226,59.24684525,1,0,0,0,-0.02978501,-0.01396237,-0.08120288,0,0,0,0
1,325.96,32596,0.06567901,-0.96317917,0.27593786,17.83508301,-28.96955872,-5.15281057,0,0,0,99.85351562,3.9742012,58.90449905,1,0,0,0,0.0030011,-0.0200997,-0.10728534,0,0,0,0
1,325.97,32597,0.04861993,-0.93930173,0.31218067,16.33912468,-24.87054634,-8.77849579,0,0,0,100.00068665,4.10354471,58.67409134,1,0,0,0,0.02206041,-0.04320364,-0.13988256,0,0,0,0
1,325.98,32598,0.05878695,-0.92129803,0.33205932,14.24361801,-20.70454407,-11.52109814,0,0,0,100.12969971,4.25315666,58.48987961,1,0,0,0,0.0143843,-0.06062393,-0.15748975,0,0,0,0
1,325.99,32599,0.08919191,-0.93160021,0.32986605,14.05311584,-14.97040176,-13.90104485,0,0,0,100.26092529,4.41646433,58.36680603,1,0,0,0,-0.01328704,-0.04971352,-0.15305866,0,0,0,0
1,326,32600,0.13273115,-0.93778044,0.33775994,11.99091148,-15.42950726,-15.78862476,0,0,0,100.37110901,4.59942389,58.24290085,1,0,0,0,-0.05377122,-0.04293983,-0.15900892,0,0,0,0
1,326.01,32601,0.1777181,-0.95906496,0.33441505,11.82658672,-20.11501122,-17.66176605,0,0,0,100.56003571,4.86952209,57.98758698,1,0,0,0,-0.09501887,-0.02094972,-0.15350395,0,0,0,0
1,326.02,32602,0.18656324,-0.97051573,0.2854948,10.68794823,-26.28322983,-18.98048592,0,0,0,100.64739227,5.10447025,57.76333237,1,0,0,0,-0.09915274,-0.00860333,-0.10196342,0,0,0,0
1,326.03,32603,0.1707847,-0.95941591,0.28600153,9.23639011,-34.11519623,-19.35254097,0,0,0,100.71231842,5.35788012,57.46271515,1,0,0,0,-0.07909111,-0.01908934,-0.10129081,0,0,0,0
1,326.04,32604,0.14558169,-0.95619392,0.29332197,8.34352112,-41.18788528,-21.19240952,0,0,0,100.76059723,5.64283323,57.09584427,1,0,0,0,-0.04916073,-0.02169755,-0.10777049,0,0,0,0
1,326.05,32605,0.10225588,-0.96117759,0.29834154,7.80595636,-42.95164108,-24.32147217,0,0,0,100.80042267,5.96208906,56.71747589,1,0,0,0,-0.00051097,-0.01605812,-0.11218067,0,0,0,0
1,326.06,32606,0.06996381,-0.96303302,0.31154135,6.19310284,-39.85785294,-28.25506401,0,0,0,100.88854218,6.30219698,56.33732224,1,0,0,0,0.03763761,-0.01344068,-0.12467785,0,0,0,0
1,326.07,32607,0.09092019,-0.95464939,0.32916433,5.26006365,-33.74560928,-31.9864006,0,0,0,100.91036987,6.68009138,56.06469345,1,0,0,0,0.02291366,-0.02092004,-0.14127432,0,0,0,0
1,326.08,32608,0.08228026,-0.94477254,0.32346025,4.2371316,-29.88168907,-36.68809509,0,0,0,100.92572784,7.09692478,55.83916855,1,0,0,0,0.03850084,-0.02992909,-0.13540584,0,0,0,0
1,326.09,32609,0.06776149,-0.94639158,0.3111445,3.10357308,-26.59362411,-41.92020416,0,0,0,100.93345642,7.55895233,55.65606689,1,0,0,0,0.06071762,-0.02731928,-0.12306236,0,0,0,0
1,326.1,32610,0.07523414,-0.96475542,0.33185333,-0.59811729,-22.81666565,-47.29010391,0,0,0,100.90907288,8.06651783,55.52038956,1,0,0,0,0.06172934,-0.00788055,-0.14419954,0,0,0,0
1,326.11,32611,0.10708907,-0.99863017,0.33918718,-4.91147327,-19.38750458,-53.26908875,0,0,0,100.89823914,8.61550903,55.4000206,1,0,0,0,0.03915889,0.0271882,-0.15235901,0,0,0,0
1,326.12,32612,0.12664504,-1.03373587,0.34462583,-9.06867981,-19.23360634,-58.39614487,0,0,0,100.79514313,9.22524166,55.32009125,1,0,0,0,0.02967118,0.06365409,-0.15889139,0,0,0,0
1,326.13,32613,0.12068912,-1.06073189,0.3644495,-16.645895,-23.43010902,-62.71016312,0,0,0,100.6095047,9.88495159,55.20478439,1,0,0,0,0.04664667,0.09193611,-0.18163298,0,0,0,0
1,326.14,32614,0.12154312,-1.08465004,0.35314384,-25.09283829,-26.86045265,-67.5994873,0,0,0,100.33303833,10.5985136,55.06127167,1,0,0,0,0.05772176,0.11715037,-0.17483401,0,0,0,0
1,326.15,32615,0.09578185,-1.12034416,0.32507998,-32.86791229,-32.21932602,-73.76219177,0,0,0,99.96802521,11.38138866,54.87067795,1,0,0,0,0.09642503,0.15424477,-0.15277156,0,0,0,0
1,326.16,32616,0.0477553,-1.13932717,0.27122027,-41.4682312,-35.51499176,-82.25286865,0,0,0,99.51636505,12.22181034,54.66893768,1,0,0,0,0.15861592,0.17482886,-0.10650226,0,0,0,0
1,326.17,32617,0.02640394,-1.15488255,0.24217251,-49.15973282,-34.88447952,-90.97086334,0,0,0,98.98021698,13.17581558,54.46589279,1,0,0,0,0.19534519,0.19229656,-0.08652246,0,0,0,0
1,326.18,32618,0.05288129,-1.17288029,0.24107501,-57.44728088,-30.21950912,-100.80644989,0,0,0,98.37008667,14.21799946,54.31493759,1,0,0,0,0.18599248,0.2127745,-0.09581245,0,0,0,0
1,326.19,32619,0.10646658,-1.20939231,0.36955884,-60.50487137,-24.89173889,-108.31834412,0,0,0,97.74015045,15.32541275,54.21697617,1,0,0,0,0.15077981,0.25241226,-0.23548727,0,0,0,0
1,326.2,32620,0.20149007,-1.27965117,0.43068036,-59.10688019,-19.26503181,-114.04384613,0,0,0,97.1367569,16.48122406,54.17189407,1,0,0,0,0.07492241,0.32656208,-0.307484,0,0,0,0
1,326.21,32621,0.32294202,-1.33845282,0.43577474,-60.54699707,-24.89690971,-117.74993134,0,0,0,96.51638794,17.67389488,54.05434799,1,0,0,0,-0.02685038,0.38993135,-0.32355103,0,0,0,0
1,326.22,32622,0.32603005,-1.39738178,0.42310777,-64.11048126,-38.66465759,-121.49095917,0,0,0,95.79101562,18.9231472,53.7867012,1,0,0,0,-0.0095141,0.4541418,-0.32277358,0,0,0,0
1,326.23,32623,0.25717551,-1.49216044,0.40174702,-66.39302826,-49.55121994,-123.67378235,0,0,0,94.99292755,20.20090675,53.3864975,1,0,0,0,0.0802343,0.55485106,-0.31483901,0,0,0,0
1,326.24,32624,0.18212095,-1.61372745,0.39818853,-71.40253448,-53.27509308,-126.28121948,0,0,0,94.11484528,21.50208855,52.92561722,1,0,0,0,0.17642918,0.68306351,-0.32573462,0,0,0,0
1,326.25,32625,0.06644899,-1.65899861,0.43505377,-75.82507324,-53.0453949,-131.96411133,0,0,0,93.17498016,22.85277939,52.4444809,1,0,0,0,0.31365463,0.73584366,-0.37809807,0,0,0,0
1,326.26,32626,-0.04161785,-1.66344309,0.33679014,-73.42672729,-56.99713135,-138.7247467,0,0,0,92.22688293,24.24066353,51.91189957,1,0,0,0,0.44396538,0.74892044,-0.29554942,0,0,0,0
1,326.27,32627,-0.12077079,-1.79251051,0.21075493,-70.10349274,-67.70748901,-144.17643738,0,0,0,91.23065186,25.7020874,51.21327209,1,0,0,0,0.54574913,0.88770401,-0.18530419,0,0,0,0
1,326.28,32628,-0.23746648,-1.95920289,0.21460114,-69.57170105,-76.96409607,-152.35917664,0,0,0,90.16075134,27.23482323,50.37414551,1,0,0,0,0.68610001,1.06557441,-0.20576233,0,0,0,0
1,326.29,32629,-0.41865075,-2.09221888,0.31888297,-63.30503845,-83.88640594,-158.29220581,0,0,0,89.07529449,28.81197739,49.41174316,1,0,0,0,0.891482,1.21114755,-0.32681787,0,0,0,0
1,326.3,32630,-0.49681625,-2.12968707,0.38408887,-54.78004074,-96.86274719,-156.83460999,0,0,0,87.9540863,30.35446739,48.25138092,1,0,0,0,0.99350488,1.262151,-0.40863189,0,0,0,0
1,326.31,32631,-0.45330107,-2.08020806,0.32959154,-48.70093536,-121.1062088,-152.8200531,0,0,0,86.69995117,31.80352592,46.77667236,1,0,0,0,0.97240371,1.22656953,-0.37149361,0,0,0,0
1,326.32,32632,-0.35495231,-1.86832905,0.43813241,-59.50616837,-138.64752197,-156.69190979,0,0,0,85.15187836,33.26851273,45.00459671,1,0,0,0,0.89537942,1.02930212,-0.50041032,0,0,0,0
1,326.33,32633,-0.0793161,-1.58266461,0.63133651,-73.67460632,-112.9400177,-170.44224548,0,0,0,83.54289246,34.85407257,43.44530487,1,0,0,0,0.64204073,0.76040256,-0.71573824,0,0,0,0
1,326.34,32634,0.27024445,-1.52938974,0.67664307,-76.60175323,-60.51816559,-189.66743469,0,0,0,82.17591095,36.66134644,42.41444016,1,0,0,0,0.3170622,0.72671789,-0.77999443,0,0,0,0
1,326.35,32635,0.31617299,-1.67053092,0.59538108,-79.11123657,-18.80932999,-200.46694946,0,0,0,81.01616669,38.61736298,41.80953979,1,0,0,0,0.29771283,0.88998967,-0.7128011,0,0,0,0
1,326.36,32636,0.39478153,-1.63521004,0.54833263,-80.74443054,5.78154325,-206.38673401,0,0,0,80.00337982,40.64404678,41.46622086,1,0,0,0,0.24652719,0.87881362,-0.67669207,0,0,0,0
1,326.37,32637,0.28390935,-1.48156846,0.6686179,-71.5271759,3.88902426,-193.85249329,0,0,0,79.00784302,42.55703735,41.04468155,1,0,0,0,0.38330692,0.74953961,-0.80594355,0,0,0,0
1,326.38,32638,0.28119546,-1.34595311,0.6960507,-50.39128494,1.7751559,-171.43969727,0,0,0,78.19987488,44.24111557,40.60222626,1,0,0,0,0.40872684,0.63666356,-0.84041953,0,0,0,0
1,326.39,32639,0.03401787,-1.02448428,0.81970745,-44.75718307,-31.50643921,-143.70988464,0,0,0,77.13832855,45.57743454,39.73464966,1,0,0,0,0.67458022,0.3354308,-0.97149903,0,0,0,0
1,326.4,32640,-0.49920824,-0.47771865,0.5831207,-27.35871696,-84.49617004,-88.865242,0,0,0,75.80082703,46.24333572,38.25517654,1,0,0,0,1.21911919,-0.19662443,-0.74731761,0,0,0,0
1,326.41,32641,-0.42953691,-0.20911156,0.29370248,-11.75934887,-118.18534088,-45.11048508,0,0,0,74.46299744,46.2989502,36.65011597,1,0,0,0,1.15293789,-0.457553,-0.47322702,0,0,0,0
1,326.42,32642,-0.38375261,-0.48641312,0.57324141,0.00894432,-124.79590607,-23.75600433,0,0,0,73.14208984,46.17879868,34.82160187,1,0,0,0,1.10600543,-0.1771286,-0.76828963,0,0,0,0
1,326.43,32643,-0.67406815,-0.39410681,0.61589372,9.59890652,-107.72174835,6.42645979,0,0,0,72.1929245,45.79629898,33.3692131,1,0,0,0,1.39298987,-0.26885441,-0.82474911,0,0,0,0
1,326.44,32644,-0.84562176,-0.09248906,0.44068879,25.33190346,-101.67979431,49.63303375,0,0,0,71.62184906,45.0084343,32.21229553,1,0,0,0,1.55687189,-0.57529986,-0.66014528,0,0,0,0
1,326.45,32645,-0.70766693,-0.02256959,0.27386349,49.83960724,-105.97264099,91.05293274,0,0,0,71.41817474,43.80872726,31.20950127,1,0,0,0,1.4058249,-0.65625578,-0.50131696,0,0,0,0
1,326.46,32646,-0.4802565,-0.19205317,0.14018017,61.24701691,-109.21263885,112.66156769,0,0,0,71.42461395,42.32352448,30.43687057,1,0,0,0,1.1612041,-0.5020057,-0.3737126,0,0,0,0
1,326.47,32647,-0.3465215,-0.294772,0.11313995,67.7020874,-111.6699295,130.56021118,0,0,0,71.53097534,40.73065948,29.57657433,1,0,0,0,1.00706387,-0.41708788,-0.35162857,0,0,0,0
1,326.48,32648,-0.31566525,-0.35238513,0.15474725,77.88986206,-110.18171692,148.63467407,0,0,0,71.82652283,38.97310638,28.82287216,1,0,0,0,0.95364261,-0.37867558,-0.3965297,0,0,0,0
1,326.49,32649,-0.31794068,-0.40965822,0.1967265,88.3236618,-98.76343536,165.12579346,0,0,0,72.37114716,37.09791565,28.27426147,1,0,0,0,0.93095112,-0.34231463,-0.43893549,0,0,0,0
1,326.5,32650,-0.34089437,-0.44481874,0.18542591,97.31534576,-78.7190094,182.54121399,0,0,0,73.18938446,35.12095261,28.01252365,1,0,0,0,0.92682034,-0.32951266,-0.42416459,0,0,0,0
1,326.51,32651,-0.36420131,-0.48385072,0.17122976,104.71110535,-57.00928879,199.08586121,0,0,0,74.27810669,32.98432159,28.13737106,1,0,0,0,0.92070067,-0.31409329,-0.40244791,0,0,0,0
1,326.52,32652,-0.36983937,-0.55172372,0.17609498,113.50867462,-31.28100777,211.98587036,0,0,0,75.5679245,30.85569,28.43137741,1,0,0,0,0.89464498,-0.27067813,-0.39540267,0,0,0,0
1,326.53,32653,-0.308956,-0.61643451,0.17664807,119.06420898,-0.37270954,222.92173767,0,0,0,77.05738068,28.68836212,29.03499413,1,0,0,0,0.80141544,-0.22971249,-0.38003373,0,0,0,0
1,326.54,32654,-0.24164104,-0.65741217,0.21189179,125.88384247,36.24618149,234.53947449,0,0,0,78.75705719,26.47033691,29.98931885,1,0,0,0,0.70038319,-0.21197705,-0.39504027,0,0,0,0
1,326.55,32655,-0.18872431,-0.72347772,0.21953228,134.04129028,64.85202789,245.66131592,0,0,0,80.60716248,24.16926956,31.18196297,1,0,0,0,0.61193812,-0.16842696,-0.37828046,0,0,0,0
1,326.56,32656,-0.15701489,-0.83103931,0.2357613,140.79774475,86.77363586,256.12658691,0,0,0,82.56144714,21.73159981,32.55410385,1,0,0,0,0.54235363,-0.08222392,-0.36707056,0,0,0,0
1,326.57,32657,-0.13270605,-0.95670432,0.24118347,145.91841125,105.95418549,267.0869751,0,0,0,84.52542114,19.19647598,33.99821091,1,0,0,0,0.47727707,0.02357663,-0.3427099,0,0,0,0
1,326.58,32658,-0.09223076,-1.08905089,0.2431765,147.76803589,120.18118286,277.206604,0,0,0,86.45949554,16.52718925,35.48551941,1,0,0,0,0.39355704,0.13829505,-0.31398499,0,0,0,0
1,326.59,32659,-0.03792544,-1.25065839,0.27601612,148.83647156,127.28340912,287.46179199,0,0,0,88.32728577,13.71339989,36.93766785,1,0,0,0,0.29302502,0.2847057,-0.31591347,0,0,0,0
1,326.6,32660,-0.00462555,-1.43667996,0.2505801,149.11091614,130.4834137,296.99816895,0,0,0,90.11032867,10.76129055,38.31376266,1,0,0,0,0.2104277,0.45827496,-0.25998673,0,0,0,0
1,326.61,32661,0.05393377,-1.59177721,0.21253814,145.90914917,139.96266174,306.31869507,0,0,0,91.79159546,7.67261362,39.67957687,1,0,0,0,0.09975597,0.60401237,-0.19238722,0,0,0,0
1,326.62,32662,0.15488005,-1.73552871,0.17124647,146.87347412,153.76516724,311.0718689,0,0,0,93.40872192,4.49500132,41.08218002,1,0,0,0,-0.05570224,0.74180478,-0.12252626,0,0,0,0
1,326.63,32663,0.26089713,-1.91622508,0.13646342,147.51893616,154.41375732,312.4715271,0,0,0,94.95100403,1.2664001,42.39597702,1,0,0,0,-0.2176266,0.9202283,-0.06021689,0,0,0,0
1,326.64,32664,0.32866898,-2.12609053,0.22620295,149.76409912,139.60914612,313.16201782,0,0,0,96.44257355,-1.98807669,43.47431946,1,0,0,0,-0.34204233,1.13160181,-0.12369111,0,0,0,0
1,326.65,32665,0.42445192,-2.44945765,0.39392772,152.62695312,138.74171448,309.17944336,0,0,0,97.90634155,-5.22902203,44.46664047,1,0,0,0,-0.49447644,1.46028328,-0.26613659,0,0,0,0
1,326.66,32666,0.65734589,-2.56394315,0.54551256,142.50605774,149.12559509,302.74105835,0,0,0,99.20983124,-8.43876743,45.49315643,1,0,0,0,-0.78328663,1.58357465,-0.39473462,0,0,0,0
1,326.67,32667,0.96741503,-2.18853021,0.53545791,118.31097412,149.02172852,307.5506897,0,0,0,100.22492981,-11.72171402,46.45676804,1,0,0,0,-1.14942074,1.21989632,-0.36710632,0,0,0,0
1,326.68,32668,1.13072395,-1.88166821,0.44697186,114.9934845,139.61268616,303.78808594,0,0,0,101.18362427,-14.96582031,47.28705597,1,0,0,0,-1.36848354,0.92774844,-0.26465952,0,0,0,0
1,326.69,32669,1.22837412,-1.7570982,0.42344138,125.49882507,132.49047852,286.11138916,0,0,0,102.22581482,-18.03603745,48.03578186,1,0,0,0,-1.51912618,0.82072866,-0.22740303,0,0,0,0
1,326.7,32670,1.55761254,-1.83210981,0.44960549,134.67932129,127.94694519,248.25227356,0,0,0,103.32642365,-20.73989105,48.77730179,1,0,0,0,-1.89572203,0.9149099,-0.2392873,0,0,0,0
1,326.71,32671,1.98075032,-1.92516708,0.20859092,119.48023987,89.87147522,204.59152222,0,0,0,104.36659241,-22.92914391,49.19391632,1,0,0,0,-2.35769677,1.02643478,0.01515346,0,0,0,0
1,326.72,32672,2.37233186,-1.82912338,-0.03628787,99.14639282,58.94348526,175.26965332,0,0,0,105.30501556,-24.77413559,49.32605743,1,0,0,0,-2.78072405,0.947317,0.2719546,0,0,0,0
1,326.73,32673,2.63354993,-1.48358369,-0.15627474,72.65390015,30.40421867,149.91870117,0,0,0,106.08608246,-26.29942131,49.20069885,1,0,0,0,-3.0680778,0.61702108,0.40161335,0,0,0,0
1,326.74,32674,2.74794817,-1.17574263,-0.17205922,49.37306213,-9.90544987,105.08808899,0,0,0,106.77845764,-27.2790947,48.76148605,1,0,0,0,-3.20138764,0.32127774,0.42554316,0,0,0,0
1,326.75,32675,2.59141564,-1.01027894,-0.22567916,23.77408791,-41.94077682,39.15692902,0,0,0,107.28403473,-27.53057671,48.18083954,1,0,0,0,-3.05315924,0.16248634,0.48651558,0,0,0,0
1,326.76,32676,2.26612306,-1.14487886,-0.19820863,14.74098206,-44.13025665,-26.71263885,0,0,0,107.60137939,-27.12179565,47.81476593,1,0,0,0,-2.7251749,0.29763848,0.46550584,0,0,0,0
1,326.77,32677,2.06590772,-1.1631757,-0.25021961,-10.31274319,-24.91235924,-85.06407166,0,0,0,107.4890976,-26.23557472,47.83616257,1,0,0,0,-2.51369309,0.31073171,0.52004516,0,0,0,0
1,326.78,32678,1.80838013,-1.32186186,-0.24119774,-25.68159485,-7.18248844,-132.75463867,0,0,0,107.07646179,-24.94657707,48.19742584,1,0,0,0,-2.23827982,0.45960313,0.50887215,0,0,0,0
1,326.79,32679,0.97748494,-1.41193593,-0.19474159,-45.11385727,3.28577495,-164.27682495,0,0,0,106.39873505,-23.38308907,48.75143433,1,0,0,0,-1.38415408,0.53693038,0.45725471,0,0,0,0
1,326.8,32680,-2.01690245,-1.686409,0.44944534,-75.69075775,-25.72384262,-195.84805298,0,0,0,105.52026367,-21.42995071,49.06642151,1,0,0,0,1.63914597,0.79574573,-0.19664608,0,0,0,0
1,326.81,32681,-4.0433917,-2.43651843,1.13065314,-95.84777069,41.81159973,-175.80107117,0,0,0,104.24353027,-19.83903313,49.98619843,1,0,0,0,3.69645238,1.52972126,-0.8913582,0,0,0,0
1,326.82,32682,-0.15829577,-1.98351419,-1.73382115,-59.25332642,193.60112,1.40705121,0,0,0,102.96591949,-20.30552292,51.98746109,1,0,0,0,-0.18479836,1.06976414,1.95132899,0,0,0,0
1,326.83,32683,3.65850234,-2.19792414,-0.9450196,-113.2241745,188.70303345,-125.10397339,0,0,0,101.05956268,-19.48098755,54.22171402,1,0,0,0,-4.00159311,1.2783097,1.13600779,0,0,0,0
1,326.84,32684,1.03877032,-2.26246047,0.42118061,-38.39829636,-51.38284302,-257.81903076,0,0,0,100.68541718,-16.85198593,54.19797134,1,0,0,0,-1.34430182,1.32705593,-0.24367388,0,0,0,0
1,326.85,32685,0.12028133,-1.07468092,0.74200433,-44.93602371,32.50444031,-215.95950317,0,0,0,100.03682709,-14.7866478,54.93729401,1,0,0,0,-0.38833535,0.12710491,-0.56841755,0,0,0,0
1,326.86,32686,0.17395413,-0.47274566,0.07707496,-67.39401245,74.98456573,-197.08970642,0,0,0,99.11322784,-12.90916729,56.00954819,1,0,0,0,-0.40939328,-0.48610032,0.08130767,0,0,0,0
1,326.87,32687,0.22390001,-0.79493052,0.46861944,8.05642986,83.70618439,-178.11882019,0,0,0,98.95811462,-11.28098011,57.14015579,1,0,0,0,-0.42963272,-0.17162211,-0.31568491,0,0,0,0
1,326.88,32688,0.13813953,-0.5054034,0.84172279,25.25734138,118.74816895,-160.31208801,0,0,0,98.94533539,-9.88229179,58.58730698,1,0,0,0,-0.31844613,-0.46619475,-0.6886152,0,0,0,0
1,326.89,32689,0.70985037,-0.50646007,0.76748973,-19.01817703,92.57683563,-131.04760742,0,0,0,98.57223511,-8.72885609,59.71751022,1,0,0,0,-0.86873007,-0.46934664,-0.61740941,0,0,0,0
1,326.9,32690,1.0837332,-0.89976096,-0.03220658,-28.60813332,63.25780869,-128.94850159,0,0,0,98.16880798,-7.54528189,60.53910065,1,0,0,0,-1.22318482,-0.08005176,0.17531902,0,0,0,0
1,326.91,32691,0.79766095,-1.42385864,-0.12691675,-47.53900909,12.47619724,-148.03956604,0,0,0,97.64109039,-6.05629826,60.87687683,1,0,0,0,-0.9132477,0.4399367,0.26283932,0,0,0,0
1,326.92,32692,0.38848743,-1.07703996,0.09834944,-54.71598053,-7.71859837,-131.70561218,0,0,0,97.08531952,-4.74014807,60.96909714,1,0,0,0,-0.47935337,0.08919734,0.02760495,0,0,0,0
1,326.93,32693,0.62928981,-1.0147084,-0.07659619,-14.11406994,-20.19731903,-108.18334961,0,0,0,96.94832611,-3.64187479,60.90021515,1,0,0,0,-0.69995934,0.02460532,0.19772966,0,0,0,0
1,326.94,32694,0.60971558,-1.19395936,0.10206986,-10.45512295,-81.03153229,-96.10095215,0,0,0,96.88052368,-2.59025908,60.21063995,1,0,0,0,-0.66164744,0.20258124,0.01812496,0,0,0,0
1,326.95,32695,0.30117935,-0.90306157,0.19063643,-11.11158657,-97.56038666,-82.21845245,0,0,0,96.80147552,-1.65779543,59.33926392,1,0,0,0,-0.33594617,-0.08923967,-0.07185167,0,0,0,0
1,326.96,32696,0.2411083,-0.91652697,0.03918127,2.29845643,-84.52785492,-64.01232147,0,0,0,96.81162262,-0.8688249,58.58925247,1,0,0,0,-0.26156333,-0.07618757,0.07949792,0,0,0,0
1,326.97,32697,0.15513238,-0.94571722,-0.00608624,5.94373417,-64.70239258,-54.74114609,0,0,0,96.87677765,-0.24825604,58.01198578,1,0,0,0,-0.16342486,-0.04710931,0.12532449,0,0,0,0
1,326.98,32698,0.11686946,-0.97327757,0.10450478,15.59759235,-40.19330215,-50.35306168,0,0,0,97.03279114,0.30012852,57.67388535,1,0,0,0,-0.11511825,-0.0193342,0.01678471,0,0,0,0
1,326.99,32699,0.16620618,-0.99567139,0.1813293,24.19127083,-13.42184925,-45.27786636,0,0,0,97.27409363,0.76603395,57.59703064,1,0,0,0,-0.15577877,0.00356676,-0.05637597,0,0,0,0
1,327,32700,0.2183049,-1.00857222,0.20909213,26.21904945,-2.77228308,-43.07723618,0,0,0,97.5368042,1.19676185,57.62505722,1,0,0,0,-0.20020056,0.01715305,-0.07965441,0,0,0,0
1,327.01,32701,0.21171261,-0.96058345,0.22385351,25.41792679,6.8684659,-39.54143906,0,0,0,97.84061432,1.6590445,57.6780014,1,0,0,0,-0.18619597,-0.03005119,-0.08974765,0,0,0,0
1,327.02,32702,0.19884074,-0.91438651,0.25326982,27.7810154,10.66015148,-31.68603325,0,0,0,98.12316132,1.95803857,57.82761002,1,0,0,0,-0.16653922,-0.07532434,-0.11389593,0,0,0,0
1,327.03,32703,0.25345206,-0.92881083,0.31089804,26.97721672,11.66224384,-25.87216187,0,0,0,98.39848328,2.19731092,57.9802742,1,0,0,0,-0.21660466,-0.06005061,-0.1667026,0,0,0,0
1,327.04,32704,0.30737427,-0.96082348,0.30853686,25.16229439,11.33292866,-19.1516571,0,0,0,98.65569305,2.36992908,58.12084579,1,0,0,0,-0.26708087,-0.02722791,-0.15977958,0,0,0,0
1,327.05,32705,0.34275258,-0.98814279,0.33510989,24.05858994,0.76387703,-11.77310944,0,0,0,98.89733887,2.48516726,58.14636993,1,0,0,0,-0.30006549,0.00083469,-0.18214324,0,0,0,0
1,327.06,32706,0.32161632,-0.99116445,0.32617709,21.56664848,-14.7696743,-4.17361689,0,0,0,99.21087646,2.71692777,57.86941147,1,0,0,0,-0.27675921,0.00463147,-0.16890112,0,0,0,0
1,327.07,32707,0.26853764,-0.9703151,0.30481595,17.33362579,-29.17788887,1.86803293,0,0,0,99.37030792,2.74565053,57.57810974,1,0,0,0,-0.22079781,-0.01537451,-0.14314809,0,0,0,0
1,327.08,32708,0.20282757,-0.94800806,0.29357788,15.70505714,-37.82389832,4.93588209,0,0,0,99.50901031,2.75900364,57.19645309,1,0,0,0,-0.15476638,-0.0372629,-0.12947153,0,0,0,0
1,327.09,32709,0.14437242,-0.9625178,0.29433608,16.40501022,-40.96514511,5.46775389,0,0,0,99.65314484,2.77326918,56.78292847,1,0,0,0,-0.09609756,-0.02232826,-0.12776107,0,0,0,0
1,327.1,32710,0.08753774,-0.97503424,0.2961466,15.67773056,-39.79257965,3.18059063,0,0,0,99.79055786,2.8091104,56.38487244,1,0,0,0,-0.03879327,-0.00938118,-0.12717986,0,0,0,0
1,327.11,32711,0.05806483,-0.96723574,0.32078537,14.03371716,-35.95006943,-0.27131605,0,0,0,100.00971985,2.88016081,55.95565796,1,0,0,0,-0.00837753,-0.01667799,-0.14919469,0,0,0,0
1,327.12,32712,0.03694644,-0.93746269,0.32586038,11.67603874,-32.02519989,-4.51847792,0,0,0,100.11075592,2.98059821,55.64783096,1,0,0,0,0.01434092,-0.04582207,-0.15115999,0,0,0,0
1,327.13,32713,0.05510494,-0.92076981,0.32473367,10.78923893,-23.297369,-8.18454552,0,0,0,100.2072525,3.10225534,55.43264771,1,0,0,0,-0.0018077,-0.06211174,-0.14837468,0,0,0,0
1,327.14,32714,0.10042046,-0.9064852,0.34055448,10.01253986,-19.90320969,-10.21742344,0,0,0,100.29754639,3.23821783,55.25471115,1,0,0,0,-0.04485143,-0.07599497,-0.16266645,0,0,0,0
1,327.15,32715,0.14683519,-0.91572833,0.33272654,9.73304272,-20.56529617,-12.47919846,0,0,0,100.38444519,3.3979063,55.07450867,1,0,0,0,-0.08864723,-0.06632353,-0.15331821,0,0,0,0
1,327.16,32716,0.1706765,-0.93759632,0.3033348,8.76864719,-26.29870796,-14.86237621,0,0,0,100.53178406,3.65521669,54.75876999,1,0,0,0,-0.10905831,-0.04394828,-0.1223074,0,0,0,0
1,327.17,32717,0.15147026,-0.95368487,0.27827099,7.76186085,-32.12372208,-16.47614861,0,0,0,100.59060669,3.87607384,54.47255707,1,0,0,0,-0.08534856,-0.02719559,-0.09524026,0,0,0,0
1,327.18,32718,0.13381608,-0.95627904,0.28643915,6.68857908,-35.97901917,-18.36337662,0,0,0,100.63512421,4.12284374,54.15196609,1,0,0,0,-0.06358023,-0.02416503,-0.10260545,0,0,0,0
1,327.19,32719,0.113107,-0.96841985,0.30458078,5.33164072,-38.77516556,-21.79206848,0,0,0,100.6630249,4.40868139,53.8102417,1,0,0,0,-0.03813912,-0.01157393,-0.12021716,0,0,0,0
1,327.2,32720,0.07205226,-0.96359158,0.32796201,4.52290487,-37.38902283,-24.96817398,0,0,0,100.68264771,4.72328377,53.48804855,1,0,0,0,0.0081937,-0.01593015,-0.14331284,0,0,0,0
1,327.21,32721,0.0666865,-0.96814632,0.32771996,3.437958,-34.36106491,-29.83645821,0,0,0,100.75218964,5.07145452,53.16962051,1,0,0,0,0.0194196,-0.01080024,-0.14266276,0,0,0,0
1,327.22,32722,0.05304895,-0.97305632,0.3108283,1.79497063,-28.3983326,-35.25828552,0,0,0,100.75053406,5.47082233,52.95550919,1,0,0,0,0.03962788,-0.00515601,-0.12506604,0,0,0,0
1,327.23,32723,0.04713142,-0.97255492,0.31973404,0.59354943,-23.34470749,-40.88872528,0,0,0,100.74124908,5.91607428,52.801651,1,0,0,0,0.05298478,-0.00497055,-0.13421862,0,0,0,0
1,327.24,32724,0.06554319,-0.98204136,0.32943913,-1.35678935,-17.56611824,-46.41395569,0,0,0,100.71842957,6.40480661,52.71498489,1,0,0,0,0.04276342,0.0053038,-0.14437824,0,0,0,0
1,327.25,32725,0.09544884,-0.98814106,0.33877975,-3.79766321,-13.69976997,-51.72824097,0,0,0,100.67597198,6.93853951,52.6761322,1,0,0,0,0.02183062,0.01228859,-0.15452321,0,0,0,0
1,327.26,32726,0.13522291,-1.00448513,0.36454663,-5.55193329,-12.51327229,-56.45254898,0,0,0,100.68403625,7.52197981,52.61460495,1,0,0,0,-0.00819985,0.02970204,-0.18109515,0,0,0,0
1,327.27,32727,0.15466923,-1.01717412,0.36658254,-8.24965096,-14.71088505,-60.29525375,0,0,0,100.59693146,8.14173126,52.58106613,1,0,0,0,-0.01712998,0.04368711,-0.18383545,0,0,0,0
1,327.28,32728,0.15576513,-1.02847576,0.36341476,-12.35256577,-20.17916298,-63.98432541,0,0,0,100.46123505,8.80767059,52.49872971,1,0,0,0,-0.00700936,0.05621614,-0.18293819,0,0,0,0
1,327.29,32729,0.14023972,-1.08492076,0.34704906,-18.884552,-25.43591309,-67.53617096,0,0,0,100.25157166,9.51775551,52.36838531,1,0,0,0,0.0204429,0.11396022,-0.16983916,0,0,0,0
1,327.3,32730,0.12264933,-1.12832785,0.31780472,-32.63895798,-31.85638237,-72.46578217,0,0,0,99.89253998,10.28697205,52.17873764,1,0,0,0,0.05087292,0.15857935,-0.14616543,0,0,0,0
1,327.31,32731,0.08725465,-1.18425012,0.28624287,-41.76797867,-36.54328918,-79.61894989,0,0,0,99.44055939,11.1111269,51.95751572,1,0,0,0,0.10019943,0.21578217,-0.12220134,0,0,0,0
1,327.32,32732,0.05566499,-1.20348704,0.25737685,-50.77553177,-37.27355194,-87.63691711,0,0,0,98.88610077,12.03573036,51.72444153,1,0,0,0,0.1468118,0.23654681,-0.10245264,0,0,0,0
1,327.33,32733,0.05225225,-1.20601261,0.24418862,-59.22297287,-35.55044556,-97.24274445,0,0,0,98.24796295,13.05030823,51.51275253,1,0,0,0,0.16697404,0.2410551,-0.10009783,0,0,0,0
1,327.34,32734,0.10685394,-1.21526062,0.28128281,-66.6844101,-32.91390228,-104.81995392,0,0,0,97.53716278,14.13383675,51.32542801,1,0,0,0,0.13037543,0.2528303,-0.14933515,0,0,0,0
1,327.35,32735,0.16264386,-1.233935,0.33770141,-68.04060364,-28.73231316,-110.28379822,0,0,0,96.81814575,15.26397038,51.17313385,1,0,0,0,0.09341061,0.27468264,-0.21841723,0,0,0,0
1,327.36,32736,0.25949916,-1.25773668,0.40535277,-71.53092957,-29.11203957,-113.78037262,0,0,0,96.07894897,16.41993713,51.00092316,1,0,0,0,0.0159076,0.3023355,-0.29897881,0,0,0,0
1,327.37,32737,0.31455487,-1.28306592,0.43215215,-70.53768921,-35.90015793,-117.14491272,0,0,0,95.29963684,17.62112236,50.74869919,1,0,0,0,-0.01938231,0.33219403,-0.33904877,0,0,0,0
1,327.38,32738,0.31468514,-1.34326637,0.4320344,-67.71781921,-44.08984375,-118.74589539,0,0,0,94.51095581,18.8418026,50.39304733,1,0,0,0,0.00069871,0.397668,-0.35248643,0,0,0,0
1,327.39,32739,0.266121,-1.43962812,0.35893345,-66.54923248,-53.12246704,-119.81163788,0,0,0,93.68835449,20.07475471,49.92192078,1,0,0,0,0.06949404,0.49995232,-0.29320133,0,0,0,0
1,327.4,32740,0.18596429,-1.58234596,0.34431493,-70.11949921,-58.36868286,-122.08718872,0,0,0,92.79303741,21.32671547,49.37282944,1,0,0,0,0.17004505,0.64929181,-0.29319847,0,0,0,0
1,327.41,32741,0.08161023,-1.63447702,0.39167973,-75.76371765,-56.80731583,-126.04200745,0,0,0,91.8391571,22.58736038,48.83027267,1,0,0,0,0.29491648,0.70878208,-0.3561869,0,0,0,0
1,327.42,32742,-0.04203011,-1.62697506,0.32091412,-72.79603577,-60.3508873,-131.19485474,0,0,0,90.86507416,23.91305351,48.20713043,1,0,0,0,0.43938383,0.7095542,-0.30121812,0,0,0,0
1,327.43,32743,-0.10029346,-1.71102309,0.2107183,-66.37667084,-71.31669617,-134.4125824,0,0,0,89.87860107,25.26160431,47.43235016,1,0,0,0,0.51900524,0.80294734,-0.20669572,0,0,0,0
1,327.44,32744,-0.19457316,-1.87285149,0.22160766,-64.98587036,-87.39606476,-139.69392395,0,0,0,88.79519653,26.64823151,46.44238281,1,0,0,0,0.6348623,0.97511917,-0.23396721,0,0,0,0
1,327.45,32745,-0.42613882,-2.00351954,0.36707273,-63.00152206,-102.2621994,-145.56318665,0,0,0,87.61225891,28.07092285,45.24002457,1,0,0,0,0.88845491,1.11735415,-0.39707178,0,0,0,0
1,327.46,32746,-0.54001689,-2.11365652,0.47447452,-53.50051117,-113.7922287,-142.38557434,0,0,0,86.41912079,29.41565132,43.87787628,1,0,0,0,1.02364135,1.23972654,-0.52228707,0,0,0,0
1,327.47,32747,-0.48746613,-2.06887436,0.42025003,-54.48184967,-137.17868042,-144.29420471,0,0,0,85.01917267,30.75247002,42.17284012,1,0,0,0,0.99122417,1.20765126,-0.48690584,0,0,0,0
1,327.48,32748,-0.32674947,-1.73436105,0.49318251,-71.31375885,-137.51399231,-155.27409363,0,0,0,83.37374878,32.15881729,40.38516998,1,0,0,0,0.85106468,0.88756126,-0.58222407,0,0,0,0
1,327.49,32749,0.11499472,-1.46348703,0.50217915,-81.03529358,-94.32661438,-172.5125885,0,0,0,81.81411743,33.74864197,39.00518799,1,0,0,0,0.43156189,0.6335122,-0.61315453,0,0,0,0
1,327.5,32750,0.3182112,-1.512501,0.49198684,-82.14724731,-47.49331284,-192.33335876,0,0,0,80.46427917,35.57635117,38.07430267,1,0,0,0,0.25352171,0.70231825,-0.62088716,0,0,0,0
1,327.51,32751,0.2356174,-1.56276631,0.52977866,-83.42273712,-1.93529403,-208.7898407,0,0,0,79.37814331,37.60574341,37.62740326,1,0,0,0,0.36395127,0.77529472,-0.67222059,0,0,0,0
1,327.52,32752,0.36653763,-1.488258,0.52892816,-78.48937988,25.11907005,-202.45904541,0,0,0,78.47992706,39.64097595,37.44557571,1,0,0,0,0.26126483,0.72473693,-0.67989767,0,0,0,0
1,327.53,32753,0.32902423,-1.39091361,0.57835555,-66.16081238,17.51437759,-185.55041504,0,0,0,77.63568878,41.49240112,37.16527939,1,0,0,0,0.32458955,0.6508323,-0.73640573,0,0,0,0
1,327.54,32754,0.37081456,-1.30774522,0.68257618,-50.97320175,2.69298649,-164.0196228,0,0,0,76.81965637,43.09788513,36.71062469,1,0,0,0,0.30488014,0.58911771,-0.84671974,0,0,0,0
1,327.55,32755,-0.01656029,-0.9536525,0.76286316,-45.04461288,-49.88185501,-126.28385162,0,0,0,75.61862183,44.20505524,35.6254921,1,0,0,0,0.7092706,0.25360253,-0.93617755,0,0,0,0
1,327.56,32756,-0.43297344,-0.42297867,0.51606363,-22.07491684,-94.78061676,-70.22206879,0,0,0,74.43339539,44.53896332,34.37159729,1,0,0,0,1.13385201,-0.26545733,-0.70262945,0,0,0,0
1,327.57,32757,-0.34225091,-0.29305398,0.37120554,-7.1699934,-120.31987762,-32.80242157,0,0,0,73.1346283,44.51771927,32.62251663,1,0,0,0,1.04377139,-0.39064497,-0.57221437,0,0,0,0
1,327.58,32758,-0.37957048,-0.51363003,0.60898054,4.28059816,-123.42893982,-14.58761501,0,0,0,71.9810257,44.28673553,30.91313553,1,0,0,0,1.07908571,-0.16750109,-0.82513297,0,0,0,0
1,327.59,32759,-0.62729037,-0.34954962,0.56913263,13.18427658,-107.17750549,14.6135931,0,0,0,71.1733551,43.80915451,29.56269073,1,0,0,0,1.32211471,-0.33223951,-0.79797578,0,0,0,0
1,327.6,32760,-0.74004382,-0.15531081,0.41666862,31.40245438,-103.93205261,55.90187073,0,0,0,70.73104858,42.94124985,28.46224022,1,0,0,0,1.4258337,-0.53228414,-0.65517086,0,0,0,0
1,327.61,32761,-0.61983287,-0.16813204,0.28651661,51.68167114,-111.02764893,90.02584076,0,0,0,70.61343384,41.64447784,27.65546989,1,0,0,0,1.2913003,-0.53090739,-0.53234535,0,0,0,0
1,327.62,32762,-0.41470489,-0.30082327,0.19117092,58.43250275,-118.22298431,109.68492126,0,0,0,70.54692078,40.21688461,26.66232681,1,0,0,0,1.06764567,-0.41340351,-0.44315982,0,0,0,0
1,327.63,32763,-0.30791673,-0.37526545,0.15206566,64.50154877,-120.05679321,127.12316895,0,0,0,70.60856628,38.61860657,25.74402428,1,0,0,0,0.94030523,-0.35524118,-0.40971443,0,0,0,0
1,327.64,32764,-0.29098505,-0.39444178,0.19707978,76.2037735,-112.91312408,146.03323364,0,0,0,70.91744232,36.86752701,25.00452042,1,0,0,0,0.90017176,-0.35434645,-0.4581008,0,0,0,0
1,327.65,32765,-0.30361399,-0.42461684,0.2099866,86.23571777,-95.96018219,161.73706055,0,0,0,71.49835968,35.02693176,24.52613068,1,0,0,0,0.88745093,-0.34416685,-0.47079033,0,0,0,0
1,327.66,32766,-0.31102461,-0.46464524,0.19633517,93.82254028,-74.98181915,175.55836487,0,0,0,72.36454773,33.06232452,24.43658829,1,0,0,0,0.86769402,-0.32540143,-0.45292455,0,0,0,0
1,327.67,32767,-0.31076786,-0.51358837,0.18584743,102.85328674,-54.21596909,188.51953125,0,0,0,73.4154892,31.10075188,24.47981262,1,0,0,0,0.83830035,-0.29879093,-0.4341158,0,0,0,0
1,327.68,32768,-0.30900934,-0.56276429,0.17468747,110.74456787,-31.4948349,200.15275574,0,0,0,74.6659317,29.089468,24.76609802,1,0,0,0,0.80666512,-0.2717011,-0.41107807,0,0,0,0
1,327.69,32769,-0.27262741,-0.61434174,0.18989244,119.89878082,-3.61678267,209.18894958,0,0,0,76.12689972,27.05560303,25.32440948,1,0,0,0,0.73929411,-0.24209228,-0.41035357,0,0,0,0
1,327.7,32770,-0.21730316,-0.64509153,0.20107852,127.62270355,28.65117264,218.53939819,0,0,0,77.77965546,24.99084282,26.18413544,1,0,0,0,0.65200883,-0.23284104,-0.40135196,0,0,0,0
1,327.71,32771,-0.17342834,-0.72040576,0.21356741,135.27522278,52.7960434,227.93493652,0,0,0,79.59174347,22.82003784,27.29008293,1,0,0,0,0.5746423,-0.17833881,-0.38993207,0,0,0,0
1,327.72,32772,-0.15629025,-0.81660974,0.24641919,143.15655518,79.92440033,240.1802063,0,0,0,81.49393463,20.58193588,28.56332397,1,0,0,0,0.52161765,-0.10213292,-0.3955901,0,0,0,0
1,327.73,32773,-0.15069503,-0.93064582,0.26949942,149.29888916,98.61679077,251.01742554,0,0,0,83.44696808,18.22232246,29.94843292,1,0,0,0,0.47818404,-0.00646637,-0.38931489,0,0,0,0
1,327.74,32774,-0.12870978,-1.06871367,0.27688974,152.2973938,113.87939453,260.66265869,0,0,0,85.39339447,15.7384634,31.39817619,1,0,0,0,0.41572422,0.11505289,-0.36589855,0,0,0,0
1,327.75,32775,-0.07456592,-1.1883142,0.29938987,154.17713928,126.60919952,271.84918213,0,0,0,87.30485535,13.10590935,32.88117599,1,0,0,0,0.31825399,0.22030202,-0.35700741,0,0,0,0
1,327.76,32776,-0.00123492,-1.3399359,0.31395379,155.73658752,133.58966064,283.77682495,0,0,0,89.1673584,10.30313683,34.33726501,1,0,0,0,0.19833356,0.36003822,-0.34011099,0,0,0,0
1,327.77,32777,0.02505039,-1.51524067,0.25322852,155.8523407,140.16783142,290.41516113,0,0,0,90.94387817,7.39740801,35.75252914,1,0,0,0,0.12263535,0.52635753,-0.24826814,0,0,0,0
1,327.78,32778,0.05186409,-1.63814139,0.22245811,155.26608276,150.93582153,295.88653564,0,0,0,92.64281464,4.39255762,37.17582321,1,0,0,0,0.04445169,0.64354563,-0.18755633,0,0,0,0
1,327.79,32779,0.10067394,-1.79835296,0.14369814,157.62239075,168.90940857,301.21432495,0,0,0,94.29337311,1.28338087,38.68112183,1,0,0,0,-0.0578111,0.8014797,-0.07958434,0,0,0,0
1,327.8,32780,0.19611715,-2.05258536,0.14527023,157.69621277,175.91212463,304.21835327,0,0,0,95.86295319,-1.90239918,40.16399002,1,0,0,0,-0.2084396,1.0570507,-0.0532991,0,0,0,0
1,327.81,32781,0.36658338,-2.44361496,0.27428925,162.22193909,175.45794678,299.94030762,0,0,0,97.40010834,-5.08051395,41.56090546,1,0,0,0,-0.43448502,1.45314026,-0.15573949,0,0,0,0
1,327.82,32782,0.64728904,-2.63980985,0.4092125,152.98638916,176.10424805,293.21881104,0,0,0,98.77510071,-8.2318182,42.89949417,1,0,0,0,-0.76999438,1.65786719,-0.26619649,0,0,0,0
1,327.83,32783,0.98064095,-2.29099226,0.41511351,119.94921875,168.0408783,301.35021973,0,0,0,99.77242279,-11.47680473,44.08837891,1,0,0,0,-1.15855551,1.32035005,-0.25409678,0,0,0,0
1,327.84,32784,1.17465901,-1.96422613,0.36119235,107.03826904,148.08926392,303.8979187,0,0,0,100.62973022,-14.72972679,45.03216934,1,0,0,0,-1.40839159,1.00775433,-0.1872247,0,0,0,0
1,327.85,32785,1.2700994,-1.77848673,0.4074083,112.16710663,133.01742554,288.27566528,0,0,0,101.53198242,-17.81417656,45.81557083,1,0,0,0,-1.55702066,0.83885366,-0.22159769,0,0,0,0
1,327.86,32786,1.4847666,-1.72599375,0.58627886,123.82113647,130.35092163,260.06796265,0,0,0,102.51592255,-20.61273384,46.5891037,1,0,0,0,-1.82011724,0.80507421,-0.38817394,0,0,0,0
1,327.87,32787,1.80111229,-1.79867983,0.48340398,121.6124649,109.97184753,219.55418396,0,0,0,103.50143433,-22.99908257,47.21136093,1,0,0,0,-2.17798162,0.89671075,-0.27299398,0,0,0,0
1,327.88,32788,2.2677269,-1.88970387,0.08842135,109.82740021,75.49997711,182.49131775,0,0,0,104.47045898,-24.95209503,47.53056335,1,0,0,0,-2.67847061,1.00553286,0.13389763,0,0,0,0
1,327.89,32789,2.55033541,-1.65270174,-0.2152686,84.7722168,42.52090454,150.59570312,0,0,0,105.30753326,-26.51632309,47.55692673,1,0,0,0,-2.98811245,0.78431058,0.44803804,0,0,0,0
1,327.9,32790,2.72837663,-1.29253244,-0.26004773,52.31026459,-5.51427841,114.16848755,0,0,0,106.01599121,-27.60036087,47.15116501,1,0,0,0,-3.18609166,0.43687847,0.50154209,0,0,0,0
1,327.91,32791,2.69210649,-1.06987822,-0.20215289,25.86871529,-52.98218155,62.13499832,0,0,0,106.6321106,-28.03239441,46.39018631,1,0,0,0,-3.16047335,0.22235975,0.45182234,0,0,0,0
1,327.92,32792,2.36293745,-1.10279572,-0.2238775,13.16568089,-70.20399475,0.61291456,0,0,0,107.12142944,-27.83441925,45.62791061,1,0,0,0,-2.831707,0.25784028,0.48136428,0,0,0,0
1,327.93,32793,2.05592585,-1.18078625,-0.27940872,-5.81447315,-58.93183136,-55.68414688,0,0,0,107.27099609,-27.12804031,45.17918777,1,0,0,0,-2.51656437,0.33315367,0.54268962,0,0,0,0
1,327.94,32794,1.88577604,-1.13668287,-0.37394226,-25.44545937,-33.15974426,-106.86753082,0,0,0,107.01794434,-26.00898743,45.17722321,1,0,0,0,-2.33132172,0.28118849,0.63773054,0,0,0,0
1,327.95,32795,1.57723188,-1.38116145,-0.20067063,-33.16769028,-15.12076283,-145.67097473,0,0,0,106.5562439,-24.57056618,45.48212051,1,0,0,0,-2.0018208,0.51411319,0.46123856,0,0,0,0
1,327.96,32796,0.29989427,-1.39391875,-0.05838107,-55.12146378,-5.62143946,-170.83903503,0,0,0,105.80793762,-22.92041016,45.96131134,1,0,0,0,-0.69970632,0.51349831,0.31318969,0,0,0,0
1,327.97,32797,-2.61142993,-1.6811322,1.00995171,-76.80375671,-20.86330605,-198.97947693,0,0,0,104.9085083,-20.94647408,46.31233978,1,0,0,0,2.24154162,0.78481197,-0.76565957,0,0,0,0
1,327.98,32798,-3.75207329,-2.35858536,0.50475913,-85.43003082,66.95041656,-117.46499634,0,0,0,103.70802307,-19.97208023,47.31815338,1,0,0,0,3.4079845,1.44839656,-0.27430141,0,0,0,0
1,327.99,32799,1.92706072,-1.89554286,-1.71849847,-57.43220901,233.42900085,19.72094536,0,0,0,102.30471802,-20.69050407,49.69533157,1,0,0,0,-2.27663493,0.98238373,1.92797685,0,0,0,0
1,328,32800,3.0526557,-2.26936936,-0.95853186,-121.78029633,77.98859406,-190.00143433,0,0,0,100.66261292,-18.98906708,50.89983368,1,0,0,0,-3.39325905,1.34668565,1.13876891,0,0,0,0
1,328.01,32801,0.79836786,-1.99041235,1.09677863,-13.86010361,-23.75030136,-240.18946838,0,0,0,100.49075317,-16.55700302,51.08570862,1,0,0,0,-1.09703612,1.05234706,-0.9215433,0,0,0,0
1,328.02,32802,0.05063384,-0.64808041,0.42497391,-73.65660858,63.15895844,-210.85430908,0,0,0,99.47984314,-14.59020901,52.11274719,1,0,0,0,-0.31483248,-0.3019278,-0.25895244,0,0,0,0
1,328.03,32803,0.1916309,-0.54560232,0.08842481,-42.61488342,69.39627075,-188.79679871,0,0,0,98.8134613,-12.83522415,53.12424469,1,0,0,0,-0.4247877,-0.41490296,0.06319659,0,0,0,0
1,328.04,32804,0.12751874,-0.74561495,0.53631496,14.8789196,98.49588776,-167.68597412,0,0,0,98.70056152,-11.32772541,54.38054657,1,0,0,0,-0.33330172,-0.22159448,-0.3876299,0,0,0,0
1,328.05,32805,0.35002276,-0.50159329,0.77468777,11.7101717,114.46442413,-145.18251038,0,0,0,98.56291199,-10.0647192,55.75451279,1,0,0,0,-0.53245175,-0.47045693,-0.62703282,0,0,0,0
1,328.06,32806,0.96159291,-0.65697861,0.41918868,-22.51807022,81.27770233,-119.41356659,0,0,0,98.17723083,-8.89836025,56.74560165,1,0,0,0,-1.1245501,-0.31925467,-0.27644295,0,0,0,0
1,328.07,32807,0.965886,-1.15012634,-0.01840407,-33.80796814,37.63738251,-138.68893433,0,0,0,97.75627899,-7.57739925,57.31671143,1,0,0,0,-1.10671663,0.16957322,0.15490949,0,0,0,0
1,328.08,32808,0.56760961,-1.29590178,-0.01573536,-59.27681732,1.50923443,-139.5381012,0,0,0,97.13941956,-6.19595432,57.51442719,1,0,0,0,-0.68424869,0.31098187,0.14330702,0,0,0,0
1,328.09,32809,0.50472879,-0.99683326,0.01117247,-41.55504608,-8.38349152,-117.38523865,0,0,0,96.71799469,-5.02059889,57.57259369,1,0,0,0,-0.59956938,0.0084504,0.10744531,0,0,0,0
1,328.1,32810,0.65869206,-1.13926256,-0.0381384,-13.12137222,-53.67820358,-101.85303497,0,0,0,96.61830902,-3.94678783,57.15634918,1,0,0,0,-0.73451036,0.14885563,0.15354292,0,0,0,0
1,328.11,32811,0.4270083,-1.04202569,0.18291999,-14.73080063,-92.45063019,-89.56855774,0,0,0,96.54000854,-2.88967299,56.30069351,1,0,0,0,-0.48452935,0.05024071,-0.06878285,0,0,0,0
1,328.12,32812,0.26697907,-0.90040684,0.14019585,-8.59232044,-89.08818817,-73.90731049,0,0,0,96.48856354,-2.05439639,55.49857712,1,0,0,0,-0.30805239,-0.09231642,-0.02706867,0,0,0,0
1,328.13,32813,0.24957441,-0.96091747,-0.00144721,-4.06799078,-77.94911194,-59.79704285,0,0,0,96.46904755,-1.37234747,54.79117584,1,0,0,0,-0.27780819,-0.03230791,0.11412244,0,0,0,0
1,328.14,32814,0.12700315,-0.97517997,0.00639794,4.60923576,-60.47994614,-52.94261551,0,0,0,96.52545166,-0.77798092,54.24996567,1,0,0,0,-0.14436999,-0.01824692,0.10670907,0,0,0,0
1,328.15,32815,0.1557014,-0.98554325,0.1135914,13.653965,-32.34010315,-48.4342804,0,0,0,96.66455078,-0.25977868,53.98423386,1,0,0,0,-0.16351816,-0.00778617,0.00142574,0,0,0,0
1,328.16,32816,0.22072819,-0.99669462,0.16524695,21.39408302,-15.36437893,-44.79405212,0,0,0,96.9046402,0.29512531,53.82268524,1,0,0,0,-0.21978298,0.00374022,-0.04679418,0,0,0,0
1,328.17,32817,0.22881576,-0.98098129,0.19666138,22.53494835,-7.11292028,-43.10081482,0,0,0,97.12988281,0.73156929,53.80472565,1,0,0,0,-0.21884193,-0.01141813,-0.07403098,0,0,0,0
1,328.18,32818,0.18600801,-0.92874211,0.21958566,22.04704094,1.39316487,-37.21983719,0,0,0,97.35135651,1.09903681,53.86544037,1,0,0,0,-0.16913,-0.06308095,-0.09310233,0,0,0,0
1,328.19,32819,0.20302609,-0.91442484,0.27612916,23.42219734,4.25224829,-31.14825821,0,0,0,97.58740234,1.40233731,53.94809723,1,0,0,0,-0.18046948,-0.07676877,-0.14565691,0,0,0,0
1,328.2,32820,0.24215429,-0.93651801,0.31262407,21.13457108,8.76772213,-26.46474648,0,0,0,97.80200195,1.65285552,54.0704689,1,0,0,0,-0.21490967,-0.05403826,-0.17825989,0,0,0,0
1,328.21,32821,0.28989747,-0.96169645,0.32614717,17.96482658,8.19793415,-22.04037857,0,0,0,98.11544037,2.03274131,54.01705551,1,0,0,0,-0.25797793,-0.02818611,-0.18792303,0,0,0,0
1,328.22,32822,0.3193171,-0.97819459,0.34344056,17.31892586,0.66394043,-16.15408325,0,0,0,98.28969574,2.19171929,54.04668808,1,0,0,0,-0.28203419,-0.01082936,-0.20047116,0,0,0,0
1,328.23,32823,0.30227119,-0.98300058,0.32455218,13.62986374,-15.40839481,-8.12630749,0,0,0,98.42045593,2.29453993,53.90593338,1,0,0,0,-0.26285839,-0.00556667,-0.17901573,0,0,0,0
1,328.24,32824,0.25439414,-0.96871555,0.29288128,10.25964642,-25.62723541,-3.04328108,0,0,0,98.51290894,2.36239791,53.65673447,1,0,0,0,-0.21358755,-0.01952454,-0.14551745,0,0,0,0
1,328.25,32825,0.19355218,-0.95993358,0.25381374,9.18703461,-31.77416229,-0.89772749,0,0,0,98.59171295,2.41852689,53.34358597,1,0,0,0,-0.15171021,-0.02805819,-0.10508152,0,0,0,0
1,328.26,32826,0.14498861,-0.97365946,0.23964362,10.68319511,-33.41174316,-1.16283488,0,0,0,98.74800873,2.54421473,52.93653107,1,0,0,0,-0.10186505,-0.01400995,-0.08915061,0,0,0,0
1,328.27,32827,0.09283276,-0.98284739,0.24891949,10.85630131,-32.28165054,-3.54901505,0,0,0,98.84241486,2.62865186,52.62263489,1,0,0,0,-0.04756697,-0.00434569,-0.09594736,0,0,0,0
1,328.28,32828,0.05029005,-0.97444803,0.28723055,10.10844326,-27.65497398,-7.77260828,0,0,0,98.93123627,2.74816513,52.36112976,1,0,0,0,-0.00316813,-0.01241904,-0.13272354,0,0,0,0
1,328.29,32829,0.02748079,-0.94823623,0.31397638,7.80296516,-22.37792587,-12.21445751,0,0,0,98.99932098,2.90368462,52.15887451,1,0,0,0,0.02211152,-0.03830698,-0.15818064,0,0,0,0
1,328.3,32830,0.05490491,-0.94066375,0.32523587,8.01452446,-15.52205944,-16.26602173,0,0,0,99.07279205,3.08870268,52.03095627,1,0,0,0,-0.00226285,-0.04552631,-0.16821009,0,0,0,0
1,328.31,32831,0.1366587,-0.94514215,0.31323117,7.28313875,-11.44211578,-18.5538559,0,0,0,99.27770996,3.38627958,51.80894852,1,0,0,0,-0.08018817,-0.04055558,-0.15446463,0,0,0,0
1,328.32,32832,0.19724938,-0.94747943,0.30551699,6.26205635,-14.11401653,-20.90024757,0,0,0,99.3338623,3.61536074,51.70326233,1,0,0,0,-0.13573378,-0.03746822,-0.14398509,0,0,0,0
1,328.33,32833,0.20532876,-0.94736362,0.30890128,5.5827322,-19.65130615,-22.54963303,0,0,0,99.37937927,3.86981821,51.54570007,1,0,0,0,-0.13953242,-0.03717266,-0.14655158,0,0,0,0
1,328.34,32834,0.19194762,-0.95656043,0.28972611,4.54566383,-25.99702644,-23.224226,0,0,0,99.40952301,4.14138794,51.32659912,1,0,0,0,-0.12151804,-0.02756384,-0.12682292,0,0,0,0
1,328.35,32835,0.19713514,-0.97296417,0.29892081,3.34570003,-30.46409607,-23.40219498,0,0,0,99.42334747,4.42210054,51.06362534,1,0,0,0,-0.12188193,-0.01075408,-0.13572311,0,0,0,0
1,328.36,32836,0.16366309,-0.9829821,0.2865994,2.29998899,-34.66730881,-24.6288929,0,0,0,99.48571014,4.75824547,50.70217514,1,0,0,0,-0.08318028,-0.00027561,-0.12312548,0,0,0,0
1,328.37,32837,0.15906771,-0.99036592,0.29804912,1.62555337,-36.72958755,-26.67485428,0,0,0,99.47457886,5.08184242,50.38264847,1,0,0,0,-0.0726314,0.00771172,-0.13398558,0,0,0,0
1,328.38,32838,0.1535157,-0.9814654,0.28637317,0.90528423,-35.19428253,-29.39529991,0,0,0,99.45618439,5.42967224,50.08258057,1,0,0,0,-0.06120734,-0.00071007,-0.1226431,0,0,0,0
1,328.39,32839,0.14156008,-0.96105677,0.28444254,-0.14798349,-33.30726624,-32.86000061,0,0,0,99.42769623,5.80847168,49.80660629,1,0,0,0,-0.04284598,-0.02058129,-0.12122817,0,0,0,0
1,328.4,32840,0.14610417,-0.95600742,0.28900439,-1.14854443,-31.40545082,-36.11516571,0,0,0,99.38980865,6.21610117,49.55442429,1,0,0,0,-0.04052345,-0.02503987,-0.12653923,0,0,0,0
1,328.41,32841,0.13355312,-0.95573395,0.30390161,-3.55239773,-29.91042709,-40.14542007,0,0,0,99.39024353,6.66442823,49.28894043,1,0,0,0,-0.02049386,-0.02459283,-0.14212388,0,0,0,0
1,328.42,32842,0.11727561,-0.94892347,0.33272573,-7.07820559,-27.63006401,-44.69515991,0,0,0,99.29524994,7.15031576,49.08742142,1,0,0,0,0.00399083,-0.03055295,-0.171746,0,0,0,0
1,328.43,32843,0.12022026,-0.97573453,0.33436984,-10.70488739,-26.222435,-49.06146622,0,0,0,99.16479492,7.67665052,48.90578461,1,0,0,0,0.0098919,-0.00296152,-0.17556921,0,0,0,0
1,328.44,32844,0.12128121,-1.02907038,0.31243992,-14.91485691,-25.66146088,-53.72809219,0,0,0,98.99209595,8.24769783,48.73555374,1,0,0,0,0.01841219,0.05123687,-0.15649538,0,0,0,0
1,328.45,32845,0.14846748,-1.08094311,0.30299872,-24.44239998,-26.98403358,-57.82687378,0,0,0,98.7209549,8.86063766,48.55604935,1,0,0,0,0.00153308,0.10398841,-0.15118192,0,0,0,0
1,328.46,32846,0.15110527,-1.11257744,0.29184914,-34.36612701,-32.29520035,-63.01776886,0,0,0,98.36088562,9.52330112,48.32362366,1,0,0,0,0.01003759,0.13648587,-0.14602581,0,0,0,0
1,328.47,32847,0.10961918,-1.17038107,0.28725663,-47.04366302,-39.89495468,-69.32188416,0,0,0,97.83856964,10.26583767,48.02193069,1,0,0,0,0.06371767,0.19522294,-0.14941423,0,0,0,0
1,328.48,32848,0.10090592,-1.20385301,0.28144047,-58.99169159,-43.17303085,-77.91138458,0,0,0,97.18716431,11.09474659,47.69003677,1,0,0,0,0.08608628,0.22977029,-0.15427917,0,0,0,0
1,328.49,32849,0.09046648,-1.21060181,0.25211012,-66.72888184,-44.83675003,-86.27088165,0,0,0,96.44987488,12.00463486,47.34020233,1,0,0,0,0.1115911,0.23799846,-0.13729504,0,0,0,0
1,328.5,32850,0.09855659,-1.19361854,0.2534788,-70.96917725,-42.47035217,-94.06569672,0,0,0,95.66864014,12.98490334,47.00928879,1,0,0,0,0.11978535,0.22304739,-0.15208273,0,0,0,0
1,328.51,32851,0.122584,-1.19173181,0.30572701,-74.47881317,-38.74845123,-101.24101257,0,0,0,94.87774658,14.01259327,46.71230316,1,0,0,0,0.11306806,0.2238639,-0.21820298,0,0,0,0
1,328.52,32852,0.16443604,-1.22064567,0.36299914,-74.15499115,-31.1413517,-107.29750061,0,0,0,94.07733154,15.10661983,46.47808456,1,0,0,0,0.0891721,0.25618756,-0.28910604,0,0,0,0
1,328.53,32853,0.2250133,-1.25560033,0.42276141,-76.23045349,-29.71193886,-112.05001068,0,0,0,93.25193024,16.24383354,46.24442673,1,0,0,0,0.04752937,0.29533589,-0.36303765,0,0,0,0
1,328.54,32854,0.26923329,-1.33249342,0.42289954,-74.5148468,-32.81600571,-115.09996796,0,0,0,92.42475891,17.40958023,45.96149445,1,0,0,0,0.02262821,0.37714893,-0.37722486,0,0,0,0
1,328.55,32855,0.23034926,-1.49395001,0.41180149,-74.96530914,-42.07948685,-119.28096008,0,0,0,91.55166626,18.61617279,45.56277847,1,0,0,0,0.08133113,0.54430354,-0.38057229,0,0,0,0
1,328.56,32856,0.16306597,-1.65892816,0.44352549,-79.64270782,-47.77637482,-123.56066895,0,0,0,90.6100235,19.84638596,45.09128952,1,0,0,0,0.16884503,0.71578157,-0.42758644,0,0,0,0
1,328.57,32857,0.054932,-1.72409225,0.40325221,-83.1944809,-55.07659531,-131.70536804,0,0,0,89.57265472,21.16416931,44.5054245,1,0,0,0,0.29795036,0.78845942,-0.40378672,0,0,0,0
1,328.58,32858,-0.03351541,-1.78786433,0.25160742,-81.84402466,-70.46412659,-137.85301208,0,0,0,88.4618988,22.5302124,43.72087479,1,0,0,0,0.40836626,0.86099195,-0.26961479,0,0,0,0
1,328.59,32859,-0.12018875,-1.92427814,0.19289128,-83.52293396,-86.08036041,-143.66880798,0,0,0,87.23399353,23.93345261,42.72608948,1,0,0,0,0.51740032,1.00733006,-0.22964665,0,0,0,0
1,328.6,32860,-0.30364937,-2.05665684,0.26957145,-83.84317017,-96.75785065,-150.66793823,0,0,0,85.91062927,25.3794651,41.56410599,1,0,0,0,0.72360039,1.15093422,-0.32633811,0,0,0,0
1,328.61,32861,-0.46165261,-2.1332171,0.41179806,-76.57341003,-106.03466034,-154.41860962,0,0,0,84.57151031,26.81375694,40.26295471,1,0,0,0,0.90451431,1.23998785,-0.48882124,0,0,0,0
1,328.62,32862,-0.51950914,-2.10946107,0.49033391,-67.77709198,-116.44680023,-149.11930847,0,0,0,83.20801544,28.17234421,38.77873611,1,0,0,0,0.98387027,1.22916138,-0.58709687,0,0,0,0
1,328.63,32863,-0.53783244,-1.92434192,0.51766127,-65.41646576,-134.26945496,-151.6506958,0,0,0,81.71110535,29.49953842,37.03208923,1,0,0,0,1.02264762,1.0576874,-0.63505101,0,0,0,0
1,328.64,32864,-0.29236224,-1.57275379,0.61868697,-70.5200119,-126.52455902,-161.43644714,0,0,0,80.13148499,30.8946228,35.29179001,1,0,0,0,0.79777288,0.7212196,-0.75782138,0,0,0,0
1,328.65,32865,0.06718927,-1.41397238,0.62264949,-72.59546661,-71.48856354,-177.35139465,0,0,0,78.77268219,32.50802994,34.0836792,1,0,0,0,0.46088403,0.57973087,-0.78103113,0,0,0,0
1,328.66,32866,0.31174928,-1.49542463,0.50147867,-69.89551544,-14.79014587,-191.31030273,0,0,0,77.75650787,34.33300781,33.4736557,1,0,0,0,0.24224712,0.68082428,-0.67299449,0,0,0,0
1,328.67,32867,0.42305994,-1.51115847,0.5436092,-68.90491486,13.25505829,-196.29405212,0,0,0,76.85411072,36.27730942,33.1033783,1,0,0,0,0.15819567,0.71778005,-0.72413409,0,0,0,0
1,328.68,32868,0.50798947,-1.42953086,0.52107942,-63.46056366,24.95343208,-186.72073364,0,0,0,76.0716095,38.15096664,32.85928345,1,0,0,0,0.10027155,0.65820646,-0.70812738,0,0,0,0
1,328.69,32869,0.4353818,-1.37072182,0.63042349,-53.60306168,10.84207535,-163.90885925,0,0,0,75.29260254,39.76592255,32.47290421,1,0,0,0,0.1964052,0.62007332,-0.82356721,0,0,0,0
1,328.7,32870,0.46107653,-1.22727537,0.66614711,-39.99985886,-4.60965443,-140.77365112,0,0,0,74.54166412,41.11295319,31.93325996,1,0,0,0,0.19007494,0.49473569,-0.86448419,0,0,0,0
1,328.71,32871,-0.06731828,-0.98534238,0.69837952,-39.23453522,-68.0286026,-112.84957123,0,0,0,73.42610931,41.92602921,30.85914993,1,0,0,0,0.73253214,0.26825121,-0.90632218,0,0,0,0
1,328.72,32872,-0.55624479,-0.40181857,0.43423349,-24.53277397,-99.76950073,-63.82861328,0,0,0,72.14875793,42.24015427,29.3206768,1,0,0,0,1.22759366,-0.30539334,-0.65586466,0,0,0,0
1,328.73,32873,-0.44959447,-0.20233996,0.31679145,-3.67225337,-95.51652527,-25.51815605,0,0,0,71.21642303,42.18190765,27.98817825,1,0,0,0,1.12161803,-0.50006485,-0.55131578,0,0,0,0
1,328.74,32874,-0.39698729,-0.41281724,0.58983958,8.65386391,-99.01821136,-4.39633656,0,0,0,70.44631958,41.89822006,26.70940208,1,0,0,0,1.06640196,-0.28842491,-0.83506089,0,0,0,0
1,328.75,32875,-0.58816767,-0.28904819,0.57526344,15.81523609,-85.2640152,22.88935089,0,0,0,69.95949554,41.39390182,25.73957253,1,0,0,0,1.25213933,-0.41409832,-0.82965958,0,0,0,0
