SensorId,TimeStamp (s),FrameNumber,AccX (g),AccY (g),AccZ (g),GyroX (deg/s),GyroY (deg/s),GyroZ (deg/s),MagX (uT),MagY (uT),MagZ (uT),EulerX (deg),EulerY (deg),EulerZ (deg),QuatW,QuatX,QuatY,QuatZ,LinAccX (g),LinAccY (g),LinAccZ (g),Pressure (kPa),Altitude (m),Temperature (degC),HeaveMotion (m)
1,264.1,26410,-0.07032709,-0.93194431,0.23260047,-17.43226624,7.73692846,-143.37168884,0,0,0,106.2516098,-10.15383244,149.09587097,1,0,0,0,-0.1146917,-0.01109932,0.04378956,0,0,0,0
1,264.11,26411,-0.18069319,-0.90680385,0.35696813,-6.81759834,32.61102676,-136.78616333,0,0,0,106.07777405,-8.93111134,149.80122375,1,0,0,0,0.01792787,-0.04093553,-0.08262716,0,0,0,0
1,264.12,26412,-0.15135701,-0.59822822,0.70676273,-4.99705839,74.86101532,-119.73863983,0,0,0,105.87245941,-7.98580551,150.86186218,1,0,0,0,0.00663926,-0.35317695,-0.43498403,0,0,0,0
1,264.13,26413,0.02758578,-0.54090214,0.72516543,-1.3755827,86.95104218,-103.75120544,0,0,0,105.70935059,-7.22421694,151.99093628,1,0,0,0,-0.15810572,-0.41318649,-0.45559955,0,0,0,0
1,264.14,26414,0.4357326,-0.69864309,0.43123883,-20.53359795,72.26946259,-98.09008026,0,0,0,105.38851166,-6.47323656,152.95721436,1,0,0,0,-0.55342764,-0.2581839,-0.16550666,0,0,0,0
1,264.15,26415,0.62515104,-0.92295885,0.1913718,-29.94041443,45.05907059,-100.85060883,0,0,0,105.01460266,-5.61825991,153.66030884,1,0,0,0,-0.7287944,-0.03707473,0.06857505,0,0,0,0
1,264.16,26416,0.52501613,-1.13004482,0.16043997,-26.15834999,22.21151161,-103.42365265,0,0,0,104.70343781,-4.65664864,154.13569641,1,0,0,0,-0.61262912,0.16701846,0.09427467,0,0,0,0
1,264.17,26417,0.3918249,-1.25476301,0.08784271,-23.68799973,0.29901895,-99.73990631,0,0,0,104.44769287,-3.69218898,154.39028931,1,0,0,0,-0.46254227,0.28924039,0.16263978,0,0,0,0
1,264.18,26418,0.37246016,-1.23792553,0.09234832,-23.9442215,-23.25923347,-92.33238983,0,0,0,104.20767975,-2.74012446,154.39341736,1,0,0,0,-0.42642233,0.27031043,0.15420073,0,0,0,0
1,264.19,26419,0.35416493,-1.05779779,0.10461506,-18.8866272,-53.0215683,-79.62080383,0,0,0,104.03118134,-1.83875263,154.0730896,1,0,0,0,-0.39210254,0.08858894,0.13864391,0,0,0,0
1,264.2,26420,0.27999499,-0.91861326,0.11894803,-8.23258591,-75.15248108,-70.02009583,0,0,0,103.96237946,-0.9776305,153.51300049,1,0,0,0,-0.30260062,-0.05149552,0.12263127,0,0,0,0
1,264.21,26421,0.15519084,-0.86916065,0.14232963,-0.88500899,-76.89571381,-62.78093338,0,0,0,103.95354462,-0.17828536,152.91503906,1,0,0,0,-0.16343793,-0.10130553,0.09873552,0,0,0,0
1,264.22,26422,-0.0028277,-0.90983093,0.12850265,8.23904133,-56.92770767,-56.68998718,0,0,0,104.03491974,0.5093956,152.49967957,1,0,0,0,0.00735414,-0.06045012,0.11341316,0,0,0,0
1,264.23,26423,0.0200699,-0.9864648,0.17262374,14.63285923,-29.7578392,-55.64296722,0,0,0,104.17927551,1.12151468,152.34661865,1,0,0,0,-0.00443401,0.01680109,0.07129993,0,0,0,0
1,264.24,26424,0.06732827,-1.02939487,0.25597924,18.1436882,-9.09086227,-56.71973038,0,0,0,104.36213684,1.69357407,152.39833069,1,0,0,0,-0.04145604,0.06067599,-0.00918784,0,0,0,0
1,264.25,26425,0.09278566,-0.96169341,0.28441551,17.77706146,9.21768188,-55.37944794,0,0,0,104.54777527,2.2067914,152.6259613,1,0,0,0,-0.05754479,-0.00594594,-0.03456533,0,0,0,0
1,264.26,26426,0.1423168,-0.89128333,0.30451149,18.32187462,17.14743996,-51.33782196,0,0,0,104.75308228,2.67237616,152.9225769,1,0,0,0,-0.0987653,-0.0751842,-0.05145492,0,0,0,0
1,264.27,26427,0.20944887,-0.90117049,0.36193481,19.07461357,15.21939087,-48.72739029,0,0,0,104.95753479,3.10436654,153.19494629,1,0,0,0,-0.15809622,-0.06402205,-0.10549571,0,0,0,0
1,264.28,26428,0.25981605,-0.95415187,0.37201244,17.33010101,5.05830908,-44.32854843,0,0,0,105.1402359,3.51934409,153.35916138,1,0,0,0,-0.20110875,-0.00976136,-0.11235864,0,0,0,0
1,264.29,26429,0.27425942,-1.01053691,0.34439611,11.86049557,-11.39919472,-37.15847397,0,0,0,105.25792694,3.90785193,153.34658813,1,0,0,0,-0.20860405,0.04769665,-0.08243356,0,0,0,0
1,264.3,26430,0.25842398,-1.00343394,0.31915519,5.55270147,-29.04176521,-30.41210175,0,0,0,105.2990799,4.2777729,153.14607239,1,0,0,0,-0.18622272,0.0413356,-0.05619053,0,0,0,0
1,264.31,26431,0.19134301,-0.97912776,0.27784121,1.63675094,-37.83953476,-24.86816025,0,0,0,105.29189301,4.62783384,152.8433075,1,0,0,0,-0.1129576,0.01753174,-0.01480902,0,0,0,0
1,264.32,26432,0.13821658,-0.95753527,0.26891991,-2.53339481,-37.83307648,-20.65224457,0,0,0,105.24060059,4.9266963,152.53163147,1,0,0,0,-0.05423006,-0.00379236,-0.00663476,0,0,0,0
1,264.33,26433,0.12607875,-0.95011097,0.26509911,-2.6513567,-29.4323597,-18.9243412,0,0,0,105.19335938,5.18655872,152.29638672,1,0,0,0,-0.03733182,-0.01105078,-0.00377452,0,0,0,0
1,264.34,26434,0.15261275,-0.95805746,0.26738083,-3.04346395,-22.04646492,-18.20249748,0,0,0,105.14759827,5.4199357,152.13053894,1,0,0,0,-0.05964426,-0.0029406,-0.00692294,0,0,0,0
1,264.35,26435,0.18440022,-0.94080675,0.31078991,-1.88322794,-15.70538807,-17.12699127,0,0,0,105.11843109,5.62626219,152.02311707,1,0,0,0,-0.08766767,-0.02002059,-0.05107334,0,0,0,0
1,264.36,26436,0.20037894,-0.93188983,0.30656505,0.79876262,-12.82514,-15.11345673,0,0,0,105.12896729,5.83542633,151.93635559,1,0,0,0,-0.10024311,-0.02864473,-0.04705568,0,0,0,0
1,264.37,26437,0.2320772,-0.94677615,0.2928378,2.11380124,-14.7537756,-13.10488892,0,0,0,105.13887787,6.00044727,151.82754517,1,0,0,0,-0.12858376,-0.01335701,-0.03315958,0,0,0,0
1,264.38,26438,0.22669466,-0.94774055,0.29980877,3.96228671,-19.0632,-11.30591011,0,0,0,105.16202545,6.15939283,151.67222595,1,0,0,0,-0.12045103,-0.01203114,-0.03990503,0,0,0,0
1,264.39,26439,0.21466734,-0.94605392,0.27841261,4.53301811,-24.71416283,-9.10462666,0,0,0,105.18388367,6.31195354,151.45625305,1,0,0,0,-0.10570873,-0.0133201,-0.01816472,0,0,0,0
1,264.4,26440,0.19389355,-0.95007211,0.28313875,2.63089347,-28.38101959,-8.02212906,0,0,0,105.18186951,6.46371555,151.20179749,1,0,0,0,-0.08230321,-0.00898753,-0.02284753,0,0,0,0
1,264.41,26441,0.15928949,-0.94761676,0.30275398,2.57850552,-29.78404808,-7.88053751,0,0,0,105.18740082,6.62602139,150.93618774,1,0,0,0,-0.04501818,-0.01116852,-0.04261504,0,0,0,0
1,264.42,26442,0.15183285,-0.96866286,0.31371528,3.33449292,-28.1499939,-7.87052536,0,0,0,105.19124603,6.77572155,150.68341064,1,0,0,0,-0.03482096,0.01022355,-0.05351952,0,0,0,0
1,264.43,26443,0.16107383,-0.97713345,0.32248932,3.44869971,-26.67072868,-9.00942707,0,0,0,105.19762421,6.93256998,150.44795227,1,0,0,0,-0.04139552,0.01903313,-0.062258,0,0,0,0
1,264.44,26444,0.15931255,-0.98074126,0.32332951,3.27698374,-26.25401115,-9.54488659,0,0,0,105.20230865,7.09351826,150.21791077,1,0,0,0,-0.03688328,0.02298892,-0.06309727,0,0,0,0
1,264.45,26445,0.15138406,-0.97309732,0.31844485,2.8005178,-26.18712044,-10.81570435,0,0,0,105.20204926,7.2665596,149.99179077,1,0,0,0,-0.02602828,0.01570374,-0.05828574,0,0,0,0
1,264.46,26446,0.1617967,-0.95945573,0.31168652,2.37303686,-26.24486351,-11.56361675,0,0,0,105.20617676,7.45359087,149.76997375,1,0,0,0,-0.03334569,0.00243601,-0.05166187,0,0,0,0
1,264.47,26447,0.1517738,-0.94951457,0.30153853,1.33017695,-28.3640995,-12.50329304,0,0,0,105.18755341,7.64861393,149.52693176,1,0,0,0,-0.01997753,-0.00710151,-0.0417031,0,0,0,0
1,264.48,26448,0.14134847,-0.95318747,0.29464376,0.21913394,-29.57891083,-15.1463871,0,0,0,105.15624237,7.87221432,149.27882385,1,0,0,0,-0.0058606,-0.00307322,-0.03540006,0,0,0,0
1,264.49,26449,0.12350048,-0.95938045,0.30653441,-0.63918585,-30.57602501,-17.54502106,0,0,0,105.11483002,8.121418,149.02703857,1,0,0,0,0.01610297,0.00350469,-0.04805655,0,0,0,0
1,264.5,26450,0.10859497,-0.9609288,0.32295188,-2.62239099,-30.11152077,-21.55757523,0,0,0,105.05452728,8.40793896,148.78994751,1,0,0,0,0.03573374,0.00547244,-0.06552155,0,0,0,0
1,264.51,26451,0.08358997,-0.95386273,0.32985917,-4.42271042,-29.07159233,-25.07561111,0,0,0,104.98944855,8.71433735,148.57989502,1,0,0,0,0.06597725,-0.00115152,-0.073783,0,0,0,0
1,264.52,26452,0.08223154,-0.95180207,0.32882348,-5.98056269,-25.97716904,-29.14986038,0,0,0,104.90216827,9.06297398,148.40196228,1,0,0,0,0.07299072,-0.00270273,-0.07421887,0,0,0,0
1,264.53,26453,0.10136029,-0.96213686,0.31340751,-6.65838861,-23.0290947,-33.1491127,0,0,0,104.81317902,9.44243622,148.26255798,1,0,0,0,0.06019938,0.00822207,-0.06054133,0,0,0,0
1,264.54,26454,0.11943658,-0.98049158,0.27988425,-7.67069435,-21.2378273,-37.47289658,0,0,0,104.71781158,9.858922,148.15110779,1,0,0,0,0.04903859,0.0272869,-0.02886128,0,0,0,0
1,264.55,26455,0.14459117,-0.99066818,0.2765182,-7.96754551,-18.17193794,-41.70290756,0,0,0,104.62568665,10.30838585,148.07983398,1,0,0,0,0.03142703,0.03833029,-0.02738964,0,0,0,0
1,264.56,26456,0.17337751,-1.00532913,0.26983228,-8.56540394,-17.58731842,-45.39852142,0,0,0,104.53111267,10.79088593,148.02397156,1,0,0,0,0.0107263,0.05402406,-0.02261089,0,0,0,0
1,264.57,26457,0.18927927,-1.01690757,0.28387448,-11.0612793,-19.48324585,-46.73775864,0,0,0,104.40648651,11.29212093,147.95075989,1,0,0,0,0.00325434,0.06669198,-0.03889588,0,0,0,0
1,264.58,26458,0.17230301,-1.02773249,0.3061021,-18.25309563,-23.79762268,-49.7104454,0,0,0,104.20192719,11.83262539,147.84080505,1,0,0,0,0.0292229,0.07854186,-0.06440775,0,0,0,0
1,264.59,26459,0.1849121,-1.04003596,0.32430166,-25.50555992,-26.35940361,-51.55929565,0,0,0,103.91885376,12.39680767,147.70744324,1,0,0,0,0.02614538,0.09172639,-0.08733252,0,0,0,0
1,264.6,26460,0.16256678,-1.04716742,0.32925767,-32.07344437,-29.00721931,-56.18239975,0,0,0,103.56469727,13.01146221,147.55545044,1,0,0,0,0.05858068,0.09969571,-0.09821901,0,0,0,0
1,264.61,26461,0.15379243,-1.04858661,0.31539053,-39.29339218,-32.85619736,-59.55174255,0,0,0,103.13270569,13.66067123,147.37184143,1,0,0,0,0.07822525,0.10196537,-0.09164573,0,0,0,0
1,264.62,26462,0.13091882,-1.04723763,0.28950152,-43.87596512,-34.16303635,-65.35577393,0,0,0,102.64722443,14.37398434,147.17886353,1,0,0,0,0.11274026,0.10160333,-0.07412209,0,0,0,0
1,264.63,26463,0.11901709,-1.04807472,0.27140388,-47.4467926,-32.29341507,-71.83470917,0,0,0,102.13030243,15.14491463,147.01210022,1,0,0,0,0.13728729,0.10378455,-0.06499746,0,0,0,0
1,264.64,26464,0.13541007,-1.03347635,0.2929953,-50.53168488,-28.95582771,-78.56477356,0,0,0,101.59111786,15.97335052,146.88554382,1,0,0,0,0.13450016,0.09092809,-0.09619997,0,0,0,0
1,264.65,26465,0.1653813,-1.03010798,0.3443715,-52.27666855,-24.74480057,-85.02095795,0,0,0,101.04608917,16.85562515,146.80654907,1,0,0,0,0.11897014,0.08982828,-0.15730715,0,0,0,0
1,264.66,26466,0.18155125,-1.0362004,0.40824512,-55.08002853,-21.60346603,-91.12680817,0,0,0,100.49253082,17.78456116,146.77037048,1,0,0,0,0.11805823,0.09873523,-0.23114175,0,0,0,0
1,264.67,26467,0.21541843,-1.08599377,0.4566282,-55.98996353,-22.39001846,-96.11219788,0,0,0,99.9160614,18.77012253,146.71759033,1,0,0,0,0.1001755,0.15191889,-0.28967309,0,0,0,0
1,264.68,26468,0.27940446,-1.17903841,0.43765229,-57.61322403,-27.12462997,-100.54044342,0,0,0,99.30496216,19.80663872,146.61206055,1,0,0,0,0.05297625,0.24894838,-0.28137779,0,0,0,0
1,264.69,26469,0.29614159,-1.2980243,0.36132872,-58.41633606,-34.83987808,-103.35144806,0,0,0,98.65288544,20.88179588,146.41705322,1,0,0,0,0.0536835,0.37250835,-0.2163935,0,0,0,0
1,264.7,26470,0.26622418,-1.44301867,0.25629997,-59.33061981,-42.2033577,-105.15947723,0,0,0,97.95513153,21.98325729,146.1315918,1,0,0,0,0.10138484,0.52261877,-0.12330191,0,0,0,0
1,264.71,26471,0.1936111,-1.58315778,0.21655546,-62.25936508,-45.9570961,-106.72531128,0,0,0,97.20194244,23.09586143,145.79196167,1,0,0,0,0.19193769,0.66836172,-0.09630816,0,0,0,0
1,264.72,26472,0.1285331,-1.58743656,0.17748955,-64.54174042,-47.27504349,-111.94515228,0,0,0,96.40879059,24.26342392,145.42417908,1,0,0,0,0.2753281,0.67890638,-0.07061028,0,0,0,0
1,264.73,26473,0.06472888,-1.58934367,0.10676096,-64.177742,-51.91997528,-117.21913147,0,0,0,95.58428955,25.48339272,144.98995972,1,0,0,0,0.35823512,0.68802011,-0.01365713,0,0,0,0
1,264.74,26474,-0.002479,-1.61716092,0.10870654,-65.24702454,-56.06968689,-122.71469116,0,0,0,94.71195984,26.75589943,144.49060059,1,0,0,0,0.44513586,0.72396976,-0.02989862,0,0,0,0
1,264.75,26475,-0.07766859,-1.63812065,0.22397645,-63.23778152,-57.25350952,-128.70292664,0,0,0,93.83308411,28.08198547,143.95532227,1,0,0,0,0.54066736,0.75413048,-0.1596567,0,0,0,0
1,264.76,26476,-0.0992684,-1.64555836,0.33412579,-56.57922745,-57.29694366,-133.54473877,0,0,0,93.00003815,29.4400444,143.39738464,1,0,0,0,0.58301705,0.77184165,-0.28362852,0,0,0,0
1,264.77,26477,-0.12260408,-1.6975069,0.3914057,-47.23534393,-67.26971436,-136.34906006,0,0,0,92.17284393,30.83232498,142.69129944,1,0,0,0,0.62725008,0.83502781,-0.35393977,0,0,0,0
1,264.78,26478,-0.16360174,-1.7464689,0.42936775,-40.35362625,-87.3044281,-137.52694702,0,0,0,91.25852966,32.23294067,141.71565247,1,0,0,0,0.6891858,0.89609981,-0.40544295,0,0,0,0
1,264.79,26479,-0.13170898,-1.76541233,0.40548518,-38.20438766,-110.37010956,-138.64764404,0,0,0,90.17245483,33.63310242,140.42147827,1,0,0,0,0.6778928,0.92783326,-0.39671707,0,0,0,0
1,264.8,26480,-0.03444649,-1.66819477,0.43637118,-45.63899612,-117.97141266,-142.9510498,0,0,0,88.9024353,35.05335236,138.97900391,1,0,0,0,0.60106117,0.84430426,-0.44512659,0,0,0,0
1,264.81,26481,0.18062869,-1.46884215,0.52203137,-52.23785019,-95.65158844,-155.46903992,0,0,0,87.66651917,36.57110596,137.75164795,1,0,0,0,0.40708932,0.66026086,-0.54858577,0,0,0,0
1,264.82,26482,0.41172841,-1.37197483,0.49807352,-52.88331604,-66.30764008,-166.45463562,0,0,0,86.56817627,38.20039368,136.8127594,1,0,0,0,0.19815192,0.58064049,-0.53995812,0,0,0,0
1,264.83,26483,0.48127726,-1.41902995,0.46069705,-54.26081467,-45.91921616,-169.1897583,0,0,0,85.5605011,39.85695648,136.07374573,1,0,0,0,0.15127108,0.64650822,-0.51559174,0,0,0,0
1,264.84,26484,0.53834569,-1.36455512,0.4400622,-54.78116989,-31.3815155,-164.6546936,0,0,0,84.62321472,41.47069168,135.47592163,1,0,0,0,0.11595233,0.61127263,-0.50628817,0,0,0,0
1,264.85,26485,0.48978326,-1.25446522,0.51911247,-55.70110703,-32.55295181,-158.51506042,0,0,0,83.62442017,43.01408768,134.81929016,1,0,0,0,0.18502095,0.52054375,-0.59611315,0,0,0,0
1,264.86,26486,0.43445739,-1.16632402,0.60265809,-47.18284607,-29.02461433,-143.07347107,0,0,0,82.74061584,44.38991928,134.21087646,1,0,0,0,0.25889218,0.45105922,-0.68989789,0,0,0,0
1,264.87,26487,0.36350814,-0.95097059,0.62321317,-40.45808792,-38.45720673,-125.76782227,0,0,0,81.78513336,45.58414841,133.43264771,1,0,0,0,0.34544253,0.25232315,-0.71931851,0,0,0,0
1,264.88,26488,-0.09685519,-0.61203033,0.62816888,-29.34571648,-74.94033813,-96.09540558,0,0,0,80.57108307,46.41845703,132.15437317,1,0,0,0,0.81799197,-0.07228822,-0.736049,0,0,0,0
1,264.89,26489,-0.36320034,-0.182065,0.36125827,-4.63109446,-106.7146225,-44.99250793,0,0,0,79.33195496,46.67503738,130.51234436,1,0,0,0,1.08999574,-0.49389887,-0.48301065,0,0,0,0
1,264.9,26490,-0.27101037,-0.07393581,0.14258239,2.87029696,-120.00350952,-13.49751949,0,0,0,78.08689117,46.57230377,128.76034546,1,0,0,0,0.99791425,-0.59914142,-0.27881622,0,0,0,0
1,264.91,26491,-0.16570659,-0.28216383,0.42378861,20.90376091,-131.00480652,-4.18840837,0,0,0,76.9944458,46.30815887,126.9414444,1,0,0,0,0.89014614,-0.39046675,-0.57458937,0,0,0,0
1,264.92,26492,-0.43705311,-0.37150401,0.49310365,29.10548401,-112.41828156,10.6296196,0,0,0,76.17331696,45.94375992,125.39917755,1,0,0,0,1.15755796,-0.3026579,-0.6554864,0,0,0,0
1,264.93,26493,-0.57113475,-0.26196313,0.37898365,35.97895432,-100.89816284,39.53741074,0,0,0,75.63066101,45.31428146,124.13743591,1,0,0,0,1.28528917,-0.41665667,-0.55057943,0,0,0,0
1,264.94,26494,-0.48382649,-0.24937363,0.24743557,50.0140686,-93.27752686,67.99658203,0,0,0,75.40076447,44.42241669,123.10312653,1,0,0,0,1.18811512,-0.43781278,-0.42556995,0,0,0,0
1,264.95,26495,-0.32168666,-0.36085346,0.08871964,55.89400864,-93.5245285,84.07343292,0,0,0,75.29349518,43.37241364,122.14248657,1,0,0,0,1.01352715,-0.33764264,-0.27156579,0,0,0,0
1,264.96,26496,-0.24202231,-0.41932788,0.02929026,55.58673477,-93.56304169,97.06110382,0,0,0,75.24853516,42.17478561,121.25382233,1,0,0,0,0.91942847,-0.29202873,-0.21652666,0,0,0,0
1,264.97,26497,-0.25215974,-0.39865601,0.03542033,59.50689697,-78.71982574,110.69747925,0,0,0,75.41667938,40.90423203,120.61097717,1,0,0,0,0.91329384,-0.32710728,-0.22549821,0,0,0,0
1,264.98,26498,-0.27157617,-0.39962432,0.04368382,67.26879883,-52.07648849,123.81344604,0,0,0,75.92127991,39.57542801,120.35162354,1,0,0,0,0.91538227,-0.34184903,-0.23258719,0,0,0,0
1,264.99,26499,-0.2567822,-0.4528974,0.03415396,74.81230164,-24.66966438,135.8911438,0,0,0,76.73471832,38.19644928,120.45641327,1,0,0,0,0.88227117,-0.30545458,-0.21748298,0,0,0,0
1,265,26500,-0.23494805,-0.50337821,0.03925953,81.59095764,-0.70108038,148.97013855,0,0,0,77.79670715,36.74160385,120.8615799,1,0,0,0,0.84083074,-0.27291942,-0.2130383,0,0,0,0
1,265.01,26501,-0.20362377,-0.5465011,0.06297469,88.56130981,22.48164177,161.72251892,0,0,0,79.08573151,35.18310547,121.54225922,1,0,0,0,0.78829539,-0.24866842,-0.22353144,0,0,0,0
1,265.02,26502,-0.14966857,-0.59244078,0.08632018,94.77310181,47.85554504,173.11009216,0,0,0,80.56438446,33.56343079,122.48342133,1,0,0,0,0.7113992,-0.22224741,-0.22999337,0,0,0,0
1,265.03,26503,-0.0842355,-0.63889599,0.10585468,98.10015106,75.40593719,183.36868286,0,0,0,82.20036316,31.86310577,123.69602203,1,0,0,0,0.62163585,-0.19526848,-0.22936308,0,0,0,0
1,265.04,26504,-0.04317225,-0.69959879,0.11257676,103.03106689,99.89494324,193.74655151,0,0,0,83.96529388,30.05967903,125.12448883,1,0,0,0,0.55437249,-0.15391144,-0.21287817,0,0,0,0
1,265.05,26505,-0.01529731,-0.79122341,0.13731739,106.93328857,124.4756012,204.62809753,0,0,0,85.82555389,28.1318531,126.75163269,1,0,0,0,0.49803939,-0.08127792,-0.21179742,0,0,0,0
1,265.06,26506,0.03372125,-0.93678689,0.15370071,110.47620392,152.15403748,217.6854248,0,0,0,87.77346039,26.03580284,128.59797668,1,0,0,0,0.41769382,0.04575975,-0.19970627,0,0,0,0
1,265.07,26507,0.09472695,-1.07499826,0.13668342,109.77619171,164.99226379,227.22485352,0,0,0,89.66130066,23.80067825,130.47245789,1,0,0,0,0.32232589,0.1663692,-0.15311897,0,0,0,0
1,265.08,26508,0.16929069,-1.18480885,0.10102548,105.9829483,170.65686035,235.33518982,0,0,0,91.42312622,21.43102455,132.29653931,1,0,0,0,0.21059513,0.25996721,-0.08847137,0,0,0,0
1,265.09,26509,0.24147205,-1.27030647,0.08298251,101.79912567,165.63737488,241.34695435,0,0,0,93.01618195,18.95515251,133.96005249,1,0,0,0,0.09876132,0.33091998,-0.04304978,0,0,0,0
1,265.1,26510,0.2918857,-1.34401655,0.11947484,98.50578308,150.73452759,246.11134338,0,0,0,94.43057251,16.40144539,135.37072754,1,0,0,0,0.00653323,0.39191225,-0.0543202,0,0,0,0
1,265.11,26511,0.29884964,-1.40215814,0.17586431,94.08229828,131.37815857,251.02949524,0,0,0,95.66634369,13.78485107,136.49736023,1,0,0,0,-0.04390249,0.43931344,-0.08791368,0,0,0,0
1,265.12,26512,0.30516797,-1.46588838,0.23903081,89.74394989,112.57209015,257.5105896,0,0,0,96.75006104,11.10328293,137.35798645,1,0,0,0,-0.09530417,0.49426195,-0.13086036,0,0,0,0
1,265.13,26513,0.30619028,-1.55021822,0.32725528,88.09215546,100.56435394,263.77639771,0,0,0,97.74552155,8.35984802,138.03231812,1,0,0,0,-0.14300571,0.57189351,-0.20057032,0,0,0,0
1,265.14,26514,0.33616033,-1.62155128,0.39374134,87.04946136,88.27689362,270.03149414,0,0,0,98.67613983,5.56127691,138.52381897,1,0,0,0,-0.22096123,0.63879758,-0.24980706,0,0,0,0
1,265.15,26515,0.40214819,-1.65558279,0.4411411,86.03618622,82.04204559,276.42758179,0,0,0,99.56381226,2.70204163,138.89660645,1,0,0,0,-0.33628118,0.67078924,-0.28104842,0,0,0,0
1,265.16,26516,0.46604303,-1.65982902,0.45725751,86.0990448,78.05030823,279.19711304,0,0,0,100.43229675,-0.17968044,139.18022156,1,0,0,0,-0.45031816,0.67557597,-0.28180742,0,0,0,0
1,265.17,26517,0.50393516,-1.66428268,0.49991667,92.92221832,78.50998688,277.35162354,0,0,0,101.35442352,-3.05157685,139.42753601,1,0,0,0,-0.53847885,0.68335497,-0.30920285,0,0,0,0
1,265.18,26518,0.58229488,-1.71410286,0.53477687,103.67490387,85.51726532,267.06564331,0,0,0,102.36849213,-5.84100819,139.71697998,1,0,0,0,-0.66602075,0.73941875,-0.32796186,0,0,0,0
1,265.19,26519,0.71060157,-1.86403286,0.58966523,112.99649811,92.36881256,252.64801025,0,0,0,103.45604706,-8.50998974,140.05583191,1,0,0,0,-0.84143144,0.89830029,-0.36594951,0,0,0,0
1,265.2,26520,0.89193058,-1.94000602,0.46387142,118.42201996,95.26093292,245.94850159,0,0,0,104.58326721,-11.12722683,140.38832092,1,0,0,0,-1.06821358,0.98576373,-0.22271793,0,0,0,0
1,265.21,26521,1.28404367,-1.72583139,0.11724368,108.02233124,78.68771362,224.21646118,0,0,0,105.62400055,-13.49030685,140.56756592,1,0,0,0,-1.50273168,0.78430265,0.13877401,0,0,0,0
1,265.22,26522,1.41993284,-1.73343074,-0.12261743,112.10225677,52.69158936,197.27885437,0,0,0,106.75715637,-15.53139973,140.52197266,1,0,0,0,-1.67515445,0.8056646,0.39462304,0,0,0,0
1,265.23,26523,1.57595265,-1.57811368,-0.1406842,92.75787354,27.7828331,174.92802429,0,0,0,107.75990295,-17.2841053,140.25744629,1,0,0,0,-1.86242533,0.66387731,0.42706466,0,0,0,0
1,265.24,26524,1.60374093,-1.35805428,-0.08862983,80.25968933,8.3277359,152.69769287,0,0,0,108.69264984,-18.76028252,139.83851624,1,0,0,0,-1.91655564,0.45654655,0.38756633,0,0,0,0
1,265.25,26525,1.60672426,-1.27569485,-0.0121116,65.82021332,-12.94398499,127.17987823,0,0,0,109.54032898,-19.91934967,139.2674408,1,0,0,0,-1.94073224,0.38577852,0.32266557,0,0,0,0
1,265.26,26526,1.64041305,-1.2076205,0.0085905,42.07381439,-20.08681679,90.25312805,0,0,0,110.14173126,-20.68740654,138.73635864,1,0,0,0,-1.98955333,0.32672259,0.31094202,0,0,0,0
1,265.27,26527,1.61800492,-1.11437523,0.01437629,22.01620674,-12.77788544,42.79459381,0,0,0,110.46417236,-21.04445839,138.44923401,1,0,0,0,-1.97542763,0.23879619,0.31059527,0,0,0,0
1,265.28,26528,1.5640192,-1.08351517,0.04427169,12.70163155,-4.49255514,-7.58377504,0,0,0,110.59714508,-20.95772171,138.43278503,1,0,0,0,-1.92281318,0.20959356,0.28364125,0,0,0,0
1,265.29,26529,1.41911411,-1.19794941,0.17381054,10.32575417,7.39781141,-45.65016937,0,0,0,110.61334229,-20.55651093,138.67871094,1,0,0,0,-1.77287841,0.32253465,0.15557633,0,0,0,0
1,265.3,26530,1.29693115,-1.06647909,-0.00305954,-14.18463516,18.75159836,-80.75709534,0,0,0,110.30282593,-19.8654747,139.16679382,1,0,0,0,-1.64146733,0.18680651,0.33086404,0,0,0,0
1,265.31,26531,0.97337615,-1.16602182,-0.17627491,-30.28120804,28.47157288,-116.75623322,0,0,0,109.75036621,-18.84556389,139.87019348,1,0,0,0,-1.30324113,0.27885425,0.49890172,0,0,0,0
1,265.32,26532,-0.29976127,-1.50738025,-0.41299406,-56.5069313,16.01819992,-139.57595825,0,0,0,108.98240662,-17.58242035,140.51698303,1,0,0,0,-0.01051833,0.61013162,0.72702855,0,0,0,0
1,265.33,26533,-2.60043597,-1.82824087,0.29958928,-86.51122284,23.71558571,-136.23060608,0,0,0,107.9185791,-16.36435127,141.20391846,1,0,0,0,2.31175685,0.9195143,0.00177504,0,0,0,0
1,265.34,26534,-1.58988023,-1.55479074,-0.27803352,-93.64017487,168.89935303,-75.86204529,0,0,0,106.44882202,-16.13760185,143.1194458,1,0,0,0,1.31176853,0.6363554,0.55924368,0,0,0,0
1,265.35,26535,1.23181021,-1.54643834,-0.76674724,-71.95965576,196.03300476,-100.90130615,0,0,0,105.1095047,-15.69913578,145.36509705,1,0,0,0,-1.50681067,0.62041241,1.02521181,0,0,0,0
1,265.36,26536,1.62403941,-1.86185217,-0.28368598,-45.73445129,55.54870224,-163.46060181,0,0,0,104.39291382,-14.25366116,146.3487854,1,0,0,0,-1.88030982,0.92642361,0.5270685,0,0,0,0
1,265.37,26537,0.4467839,-1.7052964,0.38560614,-18.06274414,19.88640022,-175.75167847,0,0,0,104.06270599,-12.59916115,146.99157715,1,0,0,0,-0.67527819,0.76152706,-0.14681104,0,0,0,0
1,265.38,26538,0.25995734,-0.79603034,0.35907409,-31.47339439,35.52357864,-146.31958008,0,0,0,103.60182953,-11.26310635,147.7015686,1,0,0,0,-0.46335608,-0.15492558,-0.12612043,0,0,0,0
1,265.39,26539,0.29826745,-0.77585119,0.34877628,16.97515106,57.65414047,-137.62211609,0,0,0,103.6057663,-10.06015968,148.59980774,1,0,0,0,-0.4807784,-0.17999579,-0.1185337,0,0,0,0
1,265.4,26540,-0.16829044,-0.8865509,0.5243876,41.12265778,75.12618256,-149.57611084,0,0,0,103.83742523,-8.78573227,149.69961548,1,0,0,0,0.00738426,-0.07203236,-0.2894668,0,0,0,0
1,265.41,26541,-0.20317701,-0.70879722,0.58449477,13.78459454,99.84424591,-137.8031311,0,0,0,103.8082962,-7.68058729,151.01295471,1,0,0,0,0.06270763,-0.25254893,-0.34773692,0,0,0,0
1,265.42,26542,0.57493186,-0.72849423,0.43369246,-19.90189743,98.62892151,-113.6062851,0,0,0,103.45313263,-6.80939722,152.24934387,1,0,0,0,-0.69908619,-0.23593248,-0.20035671,0,0,0,0
1,265.43,26543,0.86550909,-0.92109436,0.19707084,-20.68759346,36.2568779,-114.54197693,0,0,0,103.17694092,-5.77834606,152.86936951,1,0,0,0,-0.97336704,-0.04654782,0.03097902,0,0,0,0
1,265.44,26544,0.52423549,-1.10261905,0.25207916,-23.42865944,-18.8864193,-120.58327484,0,0,0,102.93417358,-4.56113529,152.95852661,1,0,0,0,-0.61162186,0.13215451,-0.02730033,0,0,0,0
1,265.45,26545,0.33983645,-1.02056861,0.20647036,-39.72558212,-54.0055275,-108.16345215,0,0,0,102.55628967,-3.38722229,152.66972351,1,0,0,0,-0.4064534,0.04719408,0.01277478,0,0,0,0
1,265.46,26546,0.37687907,-1.03438294,0.01306441,-20.56678391,-91.18070984,-87.15476227,0,0,0,102.37498474,-2.32367039,151.96012878,1,0,0,0,-0.42443109,0.0589406,0.20193261,0,0,0,0
1,265.47,26547,0.31773895,-1.16978633,-0.10747763,-20.62123108,-119.08800507,-79.38100433,0,0,0,102.19989014,-1.29445195,150.96516418,1,0,0,0,-0.34698811,0.19308503,0.32001787,0,0,0,0
1,265.48,26548,0.0070421,-1.01478434,0.13340016,-27.72846222,-112.96074677,-75.49445343,0,0,0,101.93639374,-0.31999865,150.01815796,1,0,0,0,-0.01884015,0.03681248,0.07494564,0,0,0,0
1,265.49,26549,-0.14473672,-0.89789021,0.24213248,-11.52754688,-58.24189758,-71.75780487,0,0,0,101.82092285,0.50214082,149.59588623,1,0,0,0,0.14828111,-0.08074887,-0.03661524,0,0,0,0
1,265.5,26550,-0.00664631,-0.94825011,0.21754533,-10.49341202,-16.2286396,-66.20039368,0,0,0,101.71594238,1.18337464,149.57206726,1,0,0,0,0.02302829,-0.03062841,-0.01378633,0,0,0,0
1,265.51,26551,0.15085569,-0.99769688,0.17434053,-17.87186432,10.4113903,-60.86125565,0,0,0,101.54122162,1.77483761,149.79257202,1,0,0,0,-0.12373872,0.01852155,0.02683478,0,0,0,0
1,265.52,26552,0.18535262,-0.95188785,0.17489058,-16.94102478,22.34387779,-59.40203476,0,0,0,101.38385773,2.31260681,150.12982178,1,0,0,0,-0.14851899,-0.02756429,0.02337532,0,0,0,0
1,265.53,26553,0.25008136,-0.90453011,0.23989025,-15.55348492,24.10372353,-56.82588959,0,0,0,101.24391174,2.8225677,150.47795105,1,0,0,0,-0.204124,-0.07507934,-0.04432198,0,0,0,0
1,265.54,26554,0.30739793,-0.94473588,0.28507516,-9.90106487,13.40560913,-50.35402679,0,0,0,101.15704346,3.29046631,150.70759583,1,0,0,0,-0.25301668,-0.03480691,-0.09133966,0,0,0,0
1,265.55,26555,0.3406131,-0.98311949,0.29224017,-8.38179207,-3.72955251,-42.19253922,0,0,0,101.0758667,3.7116456,150.75242615,1,0,0,0,-0.27853295,0.00374036,-0.09999493,0,0,0,0
1,265.56,26556,0.33788419,-1.00170147,0.30450618,-8.06348705,-24.0625,-34.64902496,0,0,0,100.99810791,4.12708426,150.58041382,1,0,0,0,-0.26878867,0.02250537,-0.1137282,0,0,0,0
1,265.57,26557,0.27665094,-0.98267734,0.29473326,-10.10515785,-36.56526566,-30.04666328,0,0,0,100.87425995,4.49146366,150.27755737,1,0,0,0,-0.20068708,0.00363266,-0.10579514,0,0,0,0
1,265.58,26558,0.21074349,-0.96393859,0.27756843,-11.84461308,-38.44395065,-26.2502079,0,0,0,100.72904968,4.82136583,149.94805908,1,0,0,0,-0.12878756,-0.01509415,-0.09108791,0,0,0,0
1,265.59,26559,0.16535997,-0.96844852,0.26855645,-12.77609158,-32.731987,-23.10911179,0,0,0,100.57707214,5.10900068,149.6680603,1,0,0,0,-0.07813469,-0.01063083,-0.08472785,0,0,0,0
1,265.6,26560,0.13123284,-0.97427332,0.26256099,-12.66187954,-24.53835678,-21.43898773,0,0,0,100.43193817,5.36454916,149.46502686,1,0,0,0,-0.03936385,-0.00486907,-0.08134753,0,0,0,0
1,265.61,26561,0.12090398,-0.98785973,0.24723336,-11.70991898,-17.52768898,-20.42303467,0,0,0,100.31769562,5.60485935,149.33314514,1,0,0,0,-0.02482935,0.00869335,-0.06834435,0,0,0,0
1,265.62,26562,0.14295232,-1.00549901,0.21911134,-10.84170723,-12.16734886,-20.31796837,0,0,0,100.20091248,5.82646179,149.24919128,1,0,0,0,-0.04288216,0.02637906,-0.04216917,0,0,0,0
1,265.63,26563,0.1660172,-1.00991631,0.19882467,-9.21427155,-10.49951553,-21.29817581,0,0,0,100.10192871,6.05461216,149.18301392,1,0,0,0,-0.06203293,0.03086428,-0.02377351,0,0,0,0
1,265.64,26564,0.19811293,-1.01195824,0.19164361,-7.65752745,-11.62349987,-21.69796562,0,0,0,100.01705933,6.28855324,149.10601807,1,0,0,0,-0.09010865,0.03305636,-0.01819355,0,0,0,0
1,265.65,26565,0.21389073,-0.99143589,0.19270298,-6.6320343,-16.64428329,-21.75220871,0,0,0,99.93653107,6.53161812,148.97898865,1,0,0,0,-0.10173734,0.01274395,-0.02070855,0,0,0,0
1,265.66,26566,0.2214964,-0.96328861,0.19451362,-6.82836819,-21.17744064,-21.38327217,0,0,0,99.85411835,6.79931498,148.80369568,1,0,0,0,-0.10497953,-0.01516065,-0.02404671,0,0,0,0
1,265.67,26567,0.21250026,-0.9398638,0.20990783,-6.09651327,-23.18846321,-21.0659523,0,0,0,99.76977539,7.04640818,148.60969543,1,0,0,0,-0.09143858,-0.03829251,-0.04093228,0,0,0,0
1,265.68,26568,0.21528417,-0.92809421,0.22524555,-5.15192318,-21.93887329,-20.31031799,0,0,0,99.69538116,7.28367186,148.42637634,1,0,0,0,-0.09001224,-0.04977916,-0.05770697,0,0,0,0
1,265.69,26569,0.21006821,-0.93559754,0.22444056,-4.02544594,-20.79014778,-19.97808266,0,0,0,99.63285828,7.5155158,148.25350952,1,0,0,0,-0.08077586,-0.0419599,-0.05811644,0,0,0,0
1,265.7,26570,0.20489882,-0.94112027,0.20606032,-3.23593354,-19.19314766,-19.67143059,0,0,0,99.57954407,7.7414937,148.09570312,1,0,0,0,-0.0716655,-0.03608879,-0.04080281,0,0,0,0
1,265.71,26571,0.20766076,-0.95391476,0.1889822,-2.6220324,-20.61950493,-19.59076309,0,0,0,99.53488159,7.98606396,147.92173767,1,0,0,0,-0.07041587,-0.02289437,-0.02464656,0,0,0,0
1,265.72,26572,0.20309924,-0.97096121,0.18189114,-2.85228205,-22.30508232,-20.20278931,0,0,0,99.4797821,8.22215652,147.73324585,1,0,0,0,-0.06163335,-0.00540099,-0.01848122,0,0,0,0
1,265.73,26573,0.20207904,-0.97228348,0.2029901,-3.39721632,-23.55437088,-21.47078705,0,0,0,99.41689301,8.47262096,147.53404236,1,0,0,0,-0.05638306,-0.00364561,-0.0407141,0,0,0,0
1,265.74,26574,0.20960757,-0.96948987,0.21021323,-3.81936288,-23.33575439,-22.5479908,0,0,0,99.34942627,8.73312855,147.33836365,1,0,0,0,-0.05945489,-0.00596844,-0.04917441,0,0,0,0
1,265.75,26575,0.20629349,-0.96140045,0.2121696,-3.67808437,-22.54255104,-23.48532486,0,0,0,99.28387451,9.00137234,147.15170288,1,0,0,0,-0.05159277,-0.01355064,-0.05236917,0,0,0,0
1,265.76,26576,0.21530288,-0.96266717,0.20096874,-3.08865809,-21.73925209,-24.13053513,0,0,0,99.23168945,9.28643131,146.97439575,1,0,0,0,-0.0558612,-0.01170754,-0.04231748,0,0,0,0
1,265.77,26577,0.21840835,-0.96746784,0.19623758,-2.39196086,-21.07294273,-24.88367081,0,0,0,99.17984772,9.56577206,146.8039093,1,0,0,0,-0.05405418,-0.00624637,-0.03854708,0,0,0,0
1,265.78,26578,0.23134211,-0.96958399,0.19340301,-1.59494507,-21.36198997,-26.03427696,0,0,0,99.13488007,9.85679054,146.63197327,1,0,0,0,-0.06203772,-0.00343433,-0.03665703,0,0,0,0
1,265.79,26579,0.23322077,-0.97961175,0.19076245,-1.35395777,-22.79533577,-26.7015934,0,0,0,99.0891037,10.15654469,146.4463501,1,0,0,0,-0.05882426,0.0073508,-0.03490324,0,0,0,0
1,265.8,26580,0.24240811,-0.98744494,0.20048857,-2.19611049,-24.01886559,-26.61821556,0,0,0,99.03163147,10.45723343,146.24787903,1,0,0,0,-0.06284285,0.01595569,-0.0456894,0,0,0,0
1,265.81,26581,0.23269193,-0.99185741,0.22165178,-2.55158567,-24.51615715,-28.0546608,0,0,0,98.98163605,10.77731419,146.05157471,1,0,0,0,-0.04779702,0.02119024,-0.06797461,0,0,0,0
1,265.82,26582,0.23134464,-1.00534153,0.23868868,-3.55405617,-23.80269432,-30.32636833,0,0,0,98.90976715,11.11391163,145.86012268,1,0,0,0,-0.0407851,0.03558815,-0.08616835,0,0,0,0
1,265.83,26583,0.2031921,-1.00503373,0.25025025,-4.49914217,-25.01911354,-30.95911026,0,0,0,98.82498169,11.45837116,145.65672302,1,0,0,0,-0.00678562,0.03620535,-0.09927669,0,0,0,0
1,265.84,26584,0.20427847,-1.03076732,0.25808325,-5.91599464,-24.89259911,-34.10762405,0,0,0,98.72585297,11.83343983,145.45866394,1,0,0,0,-0.00164239,0.06294811,-0.10888165,0,0,0,0
1,265.85,26585,0.19871174,-1.05761719,0.24899074,-7.28756714,-28.07740784,-36.05329132,0,0,0,98.60538483,12.23217201,145.23042297,1,0,0,0,0.01058343,0.09089917,-0.10185979,0,0,0,0
1,265.86,26586,0.18053779,-1.07197106,0.22084174,-10.49276924,-32.16896057,-39.80712128,0,0,0,98.44904327,12.66584969,144.96977234,1,0,0,0,0.03594005,0.10643503,-0.07636911,0,0,0,0
1,265.87,26587,0.1377597,-1.06341648,0.20447336,-14.67796898,-34.93432999,-45.51071548,0,0,0,98.23817444,13.16684341,144.68293762,1,0,0,0,0.08674027,0.09920433,-0.06345032,0,0,0,0
1,265.88,26588,0.0977691,-1.04798889,0.20106442,-19.23812294,-35.27408981,-50.42866898,0,0,0,97.97935486,13.71587086,144.39704895,1,0,0,0,0.13576916,0.08529818,-0.06439767,0,0,0,0
1,265.89,26589,0.05448842,-1.02061498,0.22398043,-24.47213554,-30.37793922,-58.89896774,0,0,0,97.67959595,14.34080124,144.16958618,1,0,0,0,0.18913896,0.05971557,-0.0924256,0,0,0,0
1,265.9,26590,0.03341459,-1.01609516,0.30443394,-30.57819748,-20.45127106,-68.64672089,0,0,0,97.34432983,15.04818249,144.05276489,1,0,0,0,0.22161686,0.05738065,-0.17869329,0,0,0,0
1,265.91,26591,0.06617597,-1.05709755,0.40336376,-34.13964844,-9.15868187,-77.13207245,0,0,0,97.02397919,15.81091118,144.07241821,1,0,0,0,0.20147917,0.101055,-0.28366804,0,0,0,0
1,265.92,26592,0.16723207,-1.14330304,0.42424184,-36.50730515,-3.83085132,-85.47489166,0,0,0,96.67752075,16.66412544,144.13899231,1,0,0,0,0.1140749,0.19046503,-0.31046236,0,0,0,0
1,265.93,26593,0.24903145,-1.23594892,0.39816141,-39.63579941,-8.66016388,-91.05825043,0,0,0,96.28623199,17.57862663,144.15653992,1,0,0,0,0.04720175,0.28686947,-0.29106158,0,0,0,0
1,265.94,26594,0.25690004,-1.32788169,0.32082757,-42.84756851,-20.84560013,-96.2723465,0,0,0,95.82302856,18.55787086,144.04530334,1,0,0,0,0.05520774,0.38305837,-0.22148055,0,0,0,0
1,265.95,26595,0.20115775,-1.44733071,0.24654961,-46.05106354,-32.58705902,-99.39892578,0,0,0,95.28356171,19.5786953,143.80393982,1,0,0,0,0.12757905,0.50726223,-0.15615144,0,0,0,0
1,265.96,26596,0.10959769,-1.53237271,0.22221643,-50.76794434,-37.32105255,-104.24427032,0,0,0,94.67456818,20.64109802,143.50712585,1,0,0,0,0.23637217,0.59758341,-0.14197347,0,0,0,0
1,265.97,26597,0.03314253,-1.54077244,0.18939377,-53.17525101,-34.89254761,-111.46582794,0,0,0,94.04071045,21.77906418,143.22473145,1,0,0,0,0.33086097,0.61199236,-0.11990105,0,0,0,0
1,265.98,26598,0.00125271,-1.55610442,0.1416117,-52.98518372,-33.8220787,-118.94515991,0,0,0,93.40365601,22.98796272,142.94316101,1,0,0,0,0.3818602,0.63429403,-0.08290628,0,0,0,0
1,265.99,26599,-0.0297847,-1.61902797,0.15031174,-53.57637024,-35.2211113,-126.7065506,0,0,0,92.74372101,24.2720871,142.63339233,1,0,0,0,0.43309623,0.70523977,-0.10253727,0,0,0,0
1,266,26600,-0.0452936,-1.64768505,0.21204835,-52.23851395,-37.19777679,-133.18592834,0,0,0,92.0743866,25.61835861,142.28515625,1,0,0,0,0.46962196,0.74295199,-0.17529058,0,0,0,0
1,266.01,26601,-0.04153869,-1.63587308,0.27296963,-47.50366974,-44.6682663,-137.1817627,0,0,0,91.40266418,26.99282646,141.8379364,1,0,0,0,0.48741424,0.74118125,-0.24712536,0,0,0,0
1,266.02,26602,-0.02210654,-1.62399244,0.29397354,-41.0041275,-60.18379211,-138.40667725,0,0,0,90.68961334,28.38749313,141.1867981,1,0,0,0,0.48947605,0.74008685,-0.27911377,0,0,0,0
1,266.03,26603,-0.04442319,-1.6238457,0.31271282,-35.81129837,-82.23217773,-138.08270264,0,0,0,89.87745667,29.77226448,140.25366211,1,0,0,0,0.53310347,0.75142109,-0.30975074,0,0,0,0
1,266.04,26604,-0.02849409,-1.62867725,0.27681983,-38.71974945,-106.62230682,-136.30474854,0,0,0,88.85428619,31.12354088,138.99977112,1,0,0,0,0.53782284,0.7682128,-0.28787923,0,0,0,0
1,266.05,26605,0.02616652,-1.5138911,0.31630895,-36.42258072,-116.55054474,-137.97235107,0,0,0,87.7424469,32.46823883,137.58106995,1,0,0,0,0.50322253,0.66598272,-0.34338081,0,0,0,0
1,266.06,26606,0.38045231,-1.39088464,0.3244997,-41.45845032,-105.71824646,-144.87017822,0,0,0,86.60185242,33.85968781,136.24324036,1,0,0,0,0.16899876,0.55652553,-0.36785454,0,0,0,0
1,266.07,26607,0.48057726,-1.37061846,0.45347607,-39.73512268,-74.0762558,-161.45739746,0,0,0,85.61876678,35.42039871,135.21157837,1,0,0,0,0.09040309,0.55172449,-0.51109391,0,0,0,0
1,266.08,26608,0.22311935,-1.41205025,0.38255531,-45.54924774,-54.19297791,-163.86419678,0,0,0,84.66668701,37.00746155,134.37049866,1,0,0,0,0.37059325,0.61045986,-0.4524526,0,0,0,0
1,266.09,26609,0.43579987,-1.26917958,0.42084166,-40.63876343,-28.58810043,-153.96289062,0,0,0,83.9217453,38.51114273,133.81695557,1,0,0,0,0.17918763,0.48473746,-0.50071722,0,0,0,0
1,266.1,26610,0.47900623,-1.21832395,0.47417697,-36.23978424,-27.44780922,-150.48596191,0,0,0,83.19832611,39.97565079,133.24687195,1,0,0,0,0.15612736,0.45095223,-0.56185412,0,0,0,0
1,266.11,26611,0.35045421,-1.12247181,0.52916664,-31.69281197,-33.63259506,-138.47012329,0,0,0,82.47938538,41.29073715,132.61080933,1,0,0,0,0.30315411,0.37175682,-0.62496173,0,0,0,0
1,266.12,26612,0.31008807,-1.04932475,0.52206671,-17.89827728,-29.96501923,-125.57633972,0,0,0,81.88083649,42.49403763,131.98236084,1,0,0,0,0.35973358,0.31388542,-0.62419355,0,0,0,0
1,266.13,26613,0.18751399,-0.83005536,0.5018968,-13.43496609,-49.639328,-109.88619232,0,0,0,81.13652802,43.50748062,131.08921814,1,0,0,0,0.49636596,0.10859823,-0.61041749,0,0,0,0
1,266.14,26614,-0.0107935,-0.46121532,0.3572093,-9.54967308,-88.34741211,-77.43917847,0,0,0,80.08247375,44.12722015,129.70610046,1,0,0,0,0.7046479,-0.24899103,-0.47616696,0,0,0,0
1,266.15,26615,-0.02468613,-0.25402191,0.07686431,1.64688039,-123.12148285,-41.67544556,0,0,0,78.84585571,44.31158829,127.91067505,1,0,0,0,0.72284764,-0.4495334,-0.20937866,0,0,0,0
1,266.16,26616,-0.09813195,-0.34178221,0.19471924,8.06229973,-160.05714417,-15.55570126,0,0,0,77.405159,44.11289597,125.71347046,1,0,0,0,0.7955147,-0.35907698,-0.34447402,0,0,0,0
1,266.17,26617,-0.24147615,-0.38245627,0.39571568,15.58623981,-153.22341919,0.51449627,0,0,0,76.12464905,43.75691986,123.64386749,1,0,0,0,0.9348579,-0.31840351,-0.5630337,0,0,0,0
1,266.18,26618,-0.37132475,-0.26800355,0.35602999,20.04364204,-123.14967346,20.43104362,0,0,0,75.23995209,43.25415421,122.068367,1,0,0,0,1.05915427,-0.43487114,-0.53725469,0,0,0,0
1,266.19,26619,-0.40062621,-0.21972679,0.17510049,32.12982178,-112.68255615,46.2877655,0,0,0,74.66183472,42.51433563,120.74732208,1,0,0,0,1.08017874,-0.4884209,-0.36671847,0,0,0,0
1,266.2,26620,-0.3350547,-0.27989593,0.02015691,38.31407928,-108.33465576,64.67243958,0,0,0,74.2593689,41.60088348,119.57492065,1,0,0,0,1.00355601,-0.4363952,-0.22018328,0,0,0,0
1,266.21,26621,-0.28678781,-0.35383084,-0.08083571,40.95055771,-95.91551971,75.28607178,0,0,0,74.04322815,40.58634567,118.62404633,1,0,0,0,0.94259578,-0.37222975,-0.12586753,0,0,0,0
1,266.22,26622,-0.26265004,-0.38825944,-0.07991993,44.30854034,-73.66815186,85.674263,0,0,0,74.08789825,39.56004333,118.00584412,1,0,0,0,0.9047178,-0.34884039,-0.1308111,0,0,0,0
1,266.23,26623,-0.26532966,-0.41524568,-0.00847411,51.97771835,-44.21149063,95.86720276,0,0,0,74.47272491,38.51714325,117.79247284,1,0,0,0,0.89339936,-0.3338508,-0.2021303,0,0,0,0
1,266.24,26624,-0.25979331,-0.43958041,0.10334025,61.4365654,-2.0947001,109.42481232,0,0,0,75.2937088,37.45501709,118.12898254,1,0,0,0,0.87345403,-0.3229228,-0.30820909,0,0,0,0
1,266.25,26625,-0.22185832,-0.4709467,0.18902302,70.57159424,33.95262146,121.14743042,0,0,0,76.46826172,36.36265945,118.91049194,1,0,0,0,0.82052398,-0.30623734,-0.3827574,0,0,0,0
1,266.26,26626,-0.19271407,-0.50392383,0.22610019,77.47122955,69.02288818,131.76593018,0,0,0,77.95729828,35.21102905,120.11663818,1,0,0,0,0.77560079,-0.28893778,-0.40370893,0,0,0,0
1,266.27,26627,-0.17221108,-0.53184521,0.24069783,83.9287796,100.32944489,143.0629425,0,0,0,79.66695404,34.00193024,121.64971161,1,0,0,0,0.73806679,-0.27748567,-0.39788109,0,0,0,0
1,266.28,26628,-0.11921584,-0.58842063,0.2460483,90.6764679,132.2769928,155.06393433,0,0,0,81.59830475,32.6868782,123.51412201,1,0,0,0,0.66660988,-0.23776914,-0.37895542,0,0,0,0
1,266.29,26629,-0.04579232,-0.65943867,0.22607419,95.80036163,159.2436676,167.48106384,0,0,0,83.67542267,31.22957802,125.6284256,1,0,0,0,0.57255697,-0.18396375,-0.33126074,0,0,0,0
1,266.3,26630,0.03082615,-0.72766632,0.20476905,99.56690216,177.68586731,180.40927124,0,0,0,85.80702209,29.59563637,127.87166595,1,0,0,0,0.47252864,-0.13305303,-0.27993256,0,0,0,0
1,266.31,26631,0.09530843,-0.81563479,0.20401023,102.17071533,187.49620056,194.17738342,0,0,0,87.91794586,27.7519455,130.13221741,1,0,0,0,0.38125825,-0.06230892,-0.24798763,0,0,0,0
1,266.32,26632,0.14198516,-0.92866266,0.17836861,103.26494598,186.3387146,208.37715149,0,0,0,89.90947723,25.70375252,132.26199341,1,0,0,0,0.30399972,0.03381257,-0.19119911,0,0,0,0
1,266.33,26633,0.18747717,-1.05591655,0.1375967,101.17584991,175.97846985,220.54751587,0,0,0,91.71300507,23.47348595,134.16226196,1,0,0,0,0.22437483,0.14492111,-0.12079602,0,0,0,0
1,266.34,26634,0.24152821,-1.15240085,0.1025686,93.77334595,158.32481384,231.9269104,0,0,0,93.25866699,21.08773232,135.7623291,1,0,0,0,0.13294786,0.22629479,-0.05885333,0,0,0,0
1,266.35,26635,0.30957833,-1.21569169,0.09051923,87.25069427,132.25283813,240.72892761,0,0,0,94.54946899,18.59625244,136.99049377,1,0,0,0,0.02480178,0.27574456,-0.02338529,0,0,0,0
1,266.36,26636,0.34819406,-1.26005876,0.10676783,83.54449463,97.59892273,247.80291748,0,0,0,95.62091827,16.04159355,137.77844238,1,0,0,0,-0.05580644,0.30784464,-0.01948471,0,0,0,0
1,266.37,26637,0.33012527,-1.28386319,0.15396871,75.54212952,62.81015015,253.72038269,0,0,0,96.4716568,13.45268726,138.14759827,1,0,0,0,-0.08100398,0.321089,-0.04990617,0,0,0,0
1,266.38,26638,0.27259627,-1.32407367,0.22073157,70.71644592,34.27491379,260.56518555,0,0,0,97.1862793,10.82503033,138.17863464,1,0,0,0,-0.06787478,0.3524839,-0.10272177,0,0,0,0
1,266.39,26639,0.25513801,-1.4042623,0.28274897,69.85096741,16.4953804,268.90576172,0,0,0,97.85404205,8.13772202,137.98762512,1,0,0,0,-0.09615277,0.42575872,-0.15209091,0,0,0,0
1,266.4,26640,0.24356239,-1.4808383,0.35912734,71.75504303,4.40790415,276.29962158,0,0,0,98.53056335,5.39676619,137.63526917,1,0,0,0,-0.13162504,0.49755892,-0.21615396,0,0,0,0
1,266.41,26641,0.22340958,-1.51769853,0.4118782,75.63925171,-0.8746655,281.52706909,0,0,0,99.25816345,2.61850023,137.19078064,1,0,0,0,-0.15954275,0.53207088,-0.25611493,0,0,0,0
1,266.42,26642,0.2086249,-1.55892396,0.42326671,80.54026031,0.00498174,284.88973999,0,0,0,100.05348969,-0.1900624,136.71310425,1,0,0,0,-0.19354373,0.57357866,-0.25396255,0,0,0,0
1,266.43,26643,0.22113205,-1.63977039,0.41055939,87.21251678,4.60226011,285.36978149,0,0,0,100.93865967,-3.00449634,136.2386322,1,0,0,0,-0.25516796,0.65750653,-0.22673413,0,0,0,0
1,266.44,26644,0.30053425,-1.73623133,0.48888692,94.06864166,20.52304268,277.31893921,0,0,0,101.90518951,-5.76373959,135.89007568,1,0,0,0,-0.38303709,0.75986719,-0.28962997,0,0,0,0
1,266.45,26645,0.49666446,-1.80934227,0.50594103,106.05151367,42.86281204,264.48626709,0,0,0,102.98397827,-8.43906784,135.73808289,1,0,0,0,-0.62621731,0.8416388,-0.29014057,0,0,0,0
1,266.46,26646,0.71083117,-1.83366179,0.4380624,114.6318512,52.99692917,253.09126282,0,0,0,104.14328003,-11.01812267,135.65777588,1,0,0,0,-0.88550287,0.87714654,-0.20486753,0,0,0,0
1,266.47,26647,0.85442311,-1.92758393,0.3844547,129.39242554,49.65725327,248.1464386,0,0,0,105.47057343,-13.5441761,135.50048828,1,0,0,0,-1.07261777,0.9848814,-0.13244216,0,0,0,0
1,266.48,26648,1.24694192,-1.76728499,0.00587677,117.70308685,38.53646088,226.30200195,0,0,0,106.71630859,-15.82464409,135.23551941,1,0,0,0,-1.50575888,0.83995676,0.26416337,0,0,0,0
1,266.49,26649,1.32031345,-1.71144354,-0.21466464,114.47931671,-6.86664677,201.58732605,0,0,0,108.06376648,-17.72712517,134.53785706,1,0,0,0,-1.61341476,0.79999816,0.50317597,0,0,0,0
1,266.5,26650,1.4177016,-1.55138528,-0.15785697,92.02602386,-32.30389404,182.75068665,0,0,0,109.28353882,-19.35469246,133.59793091,1,0,0,0,-1.73941529,0.65528488,0.46349263,0,0,0,0
1,266.51,26651,1.51738203,-1.30760264,-0.1021505,75.66815186,-45.37182617,156.09309387,0,0,0,110.38510132,-20.65652084,132.57745361,1,0,0,0,-1.86263442,0.42562214,0.42285091,0,0,0,0
1,266.52,26652,1.57484365,-1.2272253,-0.12176219,58.98551559,-55.764328,120.86148834,0,0,0,111.34294891,-21.58711815,131.55749512,1,0,0,0,-1.93762875,0.35727048,0.45572209,0,0,0,0
1,266.53,26653,1.50518811,-1.13642716,-0.16091578,38.67730713,-47.01655579,75.45291138,0,0,0,112.01677704,-22.11460114,130.78652954,1,0,0,0,-1.87891579,0.2751562,0.50519216,0,0,0,0
1,266.54,26654,1.41672218,-1.04782701,-0.17667708,25.95267105,-21.02250862,28.17741585,0,0,0,112.39922333,-22.29614258,130.46136475,1,0,0,0,-1.79544973,0.19139616,0.52751738,0,0,0,0
1,266.55,26655,1.41660559,-1.05972219,-0.19942378,14.08321571,3.5345695,-20.07044411,0,0,0,112.4954071,-22.12422943,130.57955933,1,0,0,0,-1.79472625,0.20433269,0.55344653,0,0,0,0
1,266.56,26656,1.39052904,-1.25126839,-0.17811802,-2.06689191,15.18141365,-63.41335297,0,0,0,112.31531525,-21.57892036,130.98823547,1,0,0,0,-1.76214242,0.39293063,0.53188449,0,0,0,0
1,266.57,26657,1.23073113,-1.23263061,-0.14377074,-15.60356712,22.40014458,-85.80647278,0,0,0,111.95308685,-20.86873245,131.55802917,1,0,0,0,-1.59158492,0.36870778,0.49506253,0,0,0,0
1,266.58,26658,0.80530095,-1.1860429,-0.36256135,-47.23653412,21.11609268,-118.52532959,0,0,0,111.2457428,-19.84445,132.23260498,1,0,0,0,-1.15147173,0.31322864,0.70654321,0,0,0,0
1,266.59,26659,-1.01109004,-1.48770428,0.08358684,-58.2990799,-3.85045385,-135.86843872,0,0,0,110.50609589,-18.56151962,132.70739746,1,0,0,0,0.68476093,0.60399669,0.25185096,0,0,0,0
1,266.6,26660,-3.45792937,-1.77537525,0.56127548,-63.1020813,22.26924324,-118.61503601,0,0,0,109.67534637,-17.52364922,133.35665894,1,0,0,0,3.15125442,0.8810274,-0.23561664,0,0,0,0
1,266.61,26661,-1.3271445,-1.51159787,-0.49458587,-93.52681732,148.90013123,-30.75889969,0,0,0,108.24430084,-17.70690727,134.9385376,1,0,0,0,1.02559352,0.60913235,0.80210853,0,0,0,0
1,266.62,26662,1.93723357,-1.68428349,-0.93217927,-75.11963654,176.1308136,-89.58281708,0,0,0,106.87236023,-17.3842392,136.98129272,1,0,0,0,-2.24028587,0.77482396,1.21677339,0,0,0,0
1,266.63,26663,1.31453824,-1.96178591,-0.01950219,-34.69868088,9.44698524,-161.09434509,0,0,0,106.36009216,-15.86722088,137.5544281,1,0,0,0,-1.59787738,1.04214489,0.29137921,0,0,0,0
1,266.64,26664,0.23033662,-1.53748083,0.56635416,-16.10360146,21.21150017,-162.91564941,0,0,0,106.02139282,-14.36231518,138.23727417,1,0,0,0,-0.4878661,0.60959697,-0.29681408,0,0,0,0
1,266.65,26665,0.07037262,-0.75803435,0.37344307,-35.69318771,64.81771088,-143.12271118,0,0,0,105.4182663,-13.15915203,139.27809143,1,0,0,0,-0.30516222,-0.17814969,-0.11192221,0,0,0,0
1,266.66,26666,0.19369128,-0.91186976,0.50779927,35.48461914,113.09284973,-130.77288818,0,0,0,105.45937347,-12.18887711,140.75009155,1,0,0,0,-0.41121453,-0.02908216,-0.24843431,0,0,0,0
1,266.67,26667,-0.14815818,-0.90615934,0.67401683,30.43275261,120.46779633,-143.38096619,0,0,0,105.44554901,-11.12870407,142.32627869,1,0,0,0,-0.05152493,-0.03813395,-0.41246307,0,0,0,0
1,266.68,26668,0.03776962,-0.74845165,0.65512383,-17.52379227,136.1504364,-124.4974823,0,0,0,104.96071625,-10.28531837,143.99627686,1,0,0,0,-0.22133505,-0.20026301,-0.39778781,0,0,0,0
1,266.69,26669,0.67492682,-0.68616062,0.29242176,-36.74755478,123.74445343,-100.71459961,0,0,0,104.3378067,-9.62389851,145.47026062,1,0,0,0,-0.84649611,-0.26737976,-0.04482218,0,0,0,0
1,266.7,26670,0.68856561,-0.87704688,0.31355494,-12.93447399,56.8429451,-107.09703064,0,0,0,104.07603455,-8.72502518,146.2943573,1,0,0,0,-0.84646124,-0.08044508,-0.0721918,0,0,0,0
1,266.71,26671,0.45355517,-1.10463655,0.19153878,-19.81727219,5.57567024,-109.48960876,0,0,0,103.82299805,-7.64765453,146.60821533,1,0,0,0,-0.59384835,0.14368087,0.04689846,0,0,0,0
1,266.72,26672,0.49710789,-1.07991564,0.10554393,-41.56427765,-40.87438202,-97.52163696,0,0,0,103.42767334,-6.60384703,146.43945312,1,0,0,0,-0.61876148,0.11507367,0.12737522,0,0,0,0
1,266.73,26673,0.47663194,-1.07209539,0.05147215,-22.66705513,-95.77105713,-79.78102875,0,0,0,103.28006744,-5.60680056,145.68737793,1,0,0,0,-0.58085895,0.1042905,0.17758313,0,0,0,0
1,266.74,26674,0.3422693,-1.09379017,0.12341207,-23.99641037,-153.65711975,-70.5951767,0,0,0,103.15808868,-4.56811333,144.34786987,1,0,0,0,-0.42870703,0.12391166,0.10426679,0,0,0,0
1,266.75,26675,0.17763485,-0.96950835,0.20108959,-21.7400322,-155.13500977,-58.32081604,0,0,0,103.03967285,-3.64855433,142.9654541,1,0,0,0,-0.24705786,-0.00218621,0.02467719,0,0,0,0
1,266.76,26676,0.00494876,-0.92477614,0.1190217,-24.42593575,-133.47465515,-52.17036057,0,0,0,102.86029053,-2.8394084,141.77908325,1,0,0,0,-0.05967614,-0.04835758,0.10458374,0,0,0,0
1,266.77,26677,-0.07196163,-0.9151904,0.19036056,-23.05056763,-91.98901367,-47.32331848,0,0,0,102.6647644,-2.17461109,140.98565674,1,0,0,0,0.02990765,-0.05935715,0.02981677,0,0,0,0
1,266.78,26678,-0.10640047,-0.97125757,0.17243145,-15.29499626,-45.59485245,-46.08382797,0,0,0,102.52351379,-1.62538016,140.64094543,1,0,0,0,0.07455151,-0.00425828,0.04516242,0,0,0,0
1,266.79,26679,-0.03411311,-1.011392,0.25287077,-11.60762405,-5.48562813,-47.05602646,0,0,0,102.40648651,-1.15402353,140.6889801,1,0,0,0,0.01098798,0.03517388,-0.03732939,0,0,0,0
1,266.8,26680,0.07534836,-0.94077247,0.30566636,-10.38918877,21.37599945,-47.85670471,0,0,0,102.29759216,-0.73221821,141.00019836,1,0,0,0,-0.09083393,-0.03602111,-0.09205432,0,0,0,0
1,266.81,26681,0.14804825,-0.86864787,0.31034037,-8.14346886,28.94929314,-48.17988586,0,0,0,102.23184967,-0.29408538,141.3848114,1,0,0,0,-0.15623292,-0.10855092,-0.09818286,0,0,0,0
1,266.82,26682,0.22850707,-0.90084594,0.32177928,-4.6417551,25.31167603,-44.88829803,0,0,0,102.18482208,0.09114553,141.72709656,1,0,0,0,-0.22938061,-0.07657628,-0.11049356,0,0,0,0
1,266.83,26683,0.28932258,-0.97979087,0.33526373,-2.82841539,9.00777626,-36.28312683,0,0,0,102.1572113,0.42682433,141.8916626,1,0,0,0,-0.28403556,0.00226983,-0.12449835,0,0,0,0
1,266.84,26684,0.31994918,-1.03390288,0.31629279,-4.05544472,-9.91761303,-29.52656364,0,0,0,102.11619568,0.73633021,141.85679626,1,0,0,0,-0.30907962,0.05630371,-0.10610355,0,0,0,0
1,266.85,26685,0.30082324,-1.00761044,0.26058179,-6.59778452,-30.20289612,-22.1749649,0,0,0,102.04632568,1.0163703,141.60783386,1,0,0,0,-0.28487945,0.02985941,-0.05142447,0,0,0,0
1,266.86,26686,0.23425491,-0.96879822,0.23516385,-8.07351112,-47.48002625,-15.8859005,0,0,0,101.96151733,1.29737616,141.17234802,1,0,0,0,-0.21360251,-0.0091657,-0.02741874,0,0,0,0
1,266.87,26687,0.13418433,-0.95164973,0.22908297,-8.06433296,-52.859478,-12.7645874,0,0,0,101.86873627,1.53139317,140.68132019,1,0,0,0,-0.10895967,-0.02653863,-0.02290386,0,0,0,0
1,266.88,26688,0.05499576,-0.96082699,0.21790983,-5.46717072,-47.36371994,-12.53909397,0,0,0,101.80155182,1.75124836,140.24328613,1,0,0,0,-0.02585926,-0.01753886,-0.01309278,0,0,0,0
1,266.89,26689,0.01758587,-0.97717172,0.21793188,-2.14317966,-34.48532486,-14.56284618,0,0,0,101.77019501,1.96424568,139.93527222,1,0,0,0,0.01530155,-0.00123923,-0.01389914,0,0,0,0
1,266.9,26690,0.02375166,-0.99182469,0.24180846,1.07365167,-20.30060005,-17.23485374,0,0,0,101.77505493,2.17437887,139.77160645,1,0,0,0,0.0128141,0.01350868,-0.03794628,0,0,0,0
1,266.91,26691,0.06163704,-1.00101066,0.25194722,4.77389574,-5.90449333,-19.19282341,0,0,0,101.84941101,2.39360428,139.75871277,1,0,0,0,-0.02143695,0.02297199,-0.04744077,0,0,0,0
1,266.92,26692,0.13033034,-0.97098988,0.29057097,5.96955442,0.54144895,-20.44390106,0,0,0,101.91117096,2.59255123,139.80613708,1,0,0,0,-0.08641047,-0.0066203,-0.08478373,0,0,0,0
1,266.93,26693,0.18775859,-0.96044159,0.29426751,5.85422182,-3.82987046,-21.106493,0,0,0,101.96997833,2.8069787,139.81234741,1,0,0,0,-0.14021513,-0.01678552,-0.08746909,0,0,0,0
1,266.94,26694,0.21318202,-0.9529736,0.29725221,4.85038948,-12.80456734,-20.36005402,0,0,0,102.01422119,3.03274679,139.72929382,1,0,0,0,-0.1617512,-0.02388617,-0.08964977,0,0,0,0
1,266.95,26695,0.2154789,-0.95806509,0.27597669,4.80487776,-22.36235428,-18.54727173,0,0,0,102.05233765,3.26076984,139.54899597,1,0,0,0,-0.16009611,-0.01843971,-0.06772234,0,0,0,0
1,266.96,26696,0.19411689,-0.95364845,0.2547282,4.41735554,-31.33817863,-18.40335846,0,0,0,102.086586,3.53064084,139.27783203,1,0,0,0,-0.13449594,-0.02249818,-0.04596717,0,0,0,0
1,266.97,26697,0.16111141,-0.9658767,0.24451242,5.02840948,-36.65906525,-18.87604713,0,0,0,102.11645508,3.79206204,138.95831299,1,0,0,0,-0.09668559,-0.0098561,-0.03524474,0,0,0,0
1,266.98,26698,0.13308044,-0.97580945,0.24319813,5.98621082,-36.84993362,-19.69498634,0,0,0,102.1544342,4.06207275,138.63870239,1,0,0,0,-0.06402271,0.00050606,-0.03340654,0,0,0,0
1,266.99,26699,0.11377832,-0.97470671,0.2468752,6.71857166,-32.42361069,-22.22413826,0,0,0,102.20179749,4.34770441,138.36791992,1,0,0,0,-0.03982792,-9.309e-05,-0.0364121,0,0,0,0
1,267,26700,0.12579592,-0.96882516,0.25485373,7.10062695,-26.58127403,-23.927351,0,0,0,102.2563858,4.63784456,138.15817261,1,0,0,0,-0.04683372,-0.00540891,-0.04359348,0,0,0,0
1,267.01,26701,0.12870567,-0.95690161,0.27319431,7.17713499,-22.41082001,-25.75153351,0,0,0,102.32899475,4.94736385,137.99737549,1,0,0,0,-0.04457202,-0.0166921,-0.06098159,0,0,0,0
1,267.02,26702,0.14035699,-0.95368582,0.28728813,6.71783924,-18.11174393,-27.98761559,0,0,0,102.38574219,5.25950527,137.87988281,1,0,0,0,-0.05074902,-0.01918916,-0.07402223,0,0,0,0
1,267.03,26703,0.1557249,-0.95258379,0.28790155,6.72874451,-16.32200813,-29.3140831,0,0,0,102.44390106,5.5808835,137.78308105,1,0,0,0,-0.06059125,-0.01957749,-0.07377646,0,0,0,0
1,267.04,26704,0.15523785,-0.95988292,0.28033587,6.96654463,-15.57262516,-31.25056648,0,0,0,102.50505829,5.91964817,137.69810486,1,0,0,0,-0.05435804,-0.0114992,-0.06530744,0,0,0,0
1,267.05,26705,0.15635224,-0.96450776,0.28307632,7.54335546,-15.18470001,-33.31795502,0,0,0,102.57238007,6.27784491,137.62179565,1,0,0,0,-0.04933754,-0.00600579,-0.0670943,0,0,0,0
1,267.06,26706,0.17761488,-0.97922081,0.27830681,7.73286343,-15.49593639,-35.16135025,0,0,0,102.65046692,6.66592836,137.54870605,1,0,0,0,-0.06413483,0.00967786,-0.06127032,0,0,0,0
1,267.07,26707,0.17503971,-0.9910897,0.25044024,6.08863831,-17.140625,-36.89303589,0,0,0,102.70096588,7.0634923,137.46182251,1,0,0,0,-0.05469482,0.02259107,-0.03244112,0,0,0,0
1,267.08,26708,0.19734146,-0.98884785,0.27796608,1.27045989,-17.38833809,-38.23691177,0,0,0,102.70275879,7.47474146,137.37559509,1,0,0,0,-0.06992626,0.02128221,-0.05984211,0,0,0,0
1,267.09,26709,0.20634311,-0.98861539,0.28046414,-0.53734225,-17.13830566,-39.34928894,0,0,0,102.68647766,7.89627838,137.29415894,1,0,0,0,-0.07171202,0.02193981,-0.06272902,0,0,0,0
1,267.1,26710,0.2062127,-1.00264263,0.28469646,-2.80116868,-19.27522087,-40.78170013,0,0,0,102.64438629,8.33644295,137.19451904,1,0,0,0,-0.0641053,0.03687084,-0.06770435,0,0,0,0
1,267.11,26711,0.19528565,-1.01525319,0.28088963,-4.97745895,-21.28095055,-41.65366745,0,0,0,102.5847702,8.79306889,137.07948303,1,0,0,0,-0.0454148,0.05038223,-0.06511736,0,0,0,0
1,267.12,26712,0.18655813,-1.03762436,0.30075753,-6.45687389,-21.19779396,-43.64697647,0,0,0,102.502388,9.26516056,136.96595764,1,0,0,0,-0.0286181,0.07371262,-0.08646008,0,0,0,0
1,267.13,26713,0.15362902,-1.05389094,0.29153666,-8.46632195,-22.5028038,-46.682621,0,0,0,102.39778137,9.76952934,136.84521484,1,0,0,0,0.01276387,0.09098428,-0.07912803,0,0,0,0
1,267.14,26714,0.15226074,-1.07048273,0.27008623,-14.67967129,-23.16455269,-49.97421646,0,0,0,102.22978973,10.30719852,136.72369385,1,0,0,0,0.02316268,0.10859676,-0.06033842,0,0,0,0
1,267.15,26715,0.14395058,-1.04576039,0.27399951,-22.71925735,-25.26901054,-54.39790726,0,0,0,101.97771454,10.89208412,136.58840942,1,0,0,0,0.0411908,0.08480576,-0.06838162,0,0,0,0
1,267.16,26716,0.13140374,-1.02644086,0.2841022,-27.91738892,-26.23628044,-59.175457,0,0,0,101.67979431,11.51743031,136.45593262,1,0,0,0,0.06420091,0.06646492,-0.08366909,0,0,0,0
1,267.17,26717,0.12641996,-1.01481545,0.30821732,-33.74521255,-24.87521744,-65.51026154,0,0,0,101.31858063,12.20898819,136.34031677,1,0,0,0,0.08058016,0.0559787,-0.11387662,0,0,0,0
1,267.18,26718,0.12931722,-1.01308155,0.36021331,-37.10155487,-22.35136986,-70.7416687,0,0,0,100.92913818,12.94626141,136.25546265,1,0,0,0,0.08994515,0.05560119,-0.17276001,0,0,0,0
1,267.19,26719,0.16012466,-1.02706981,0.39574569,-39.5706749,-19.89783287,-76.80722809,0,0,0,100.52097321,13.73795986,136.20141602,1,0,0,0,0.07223243,0.07128508,-0.21556017,0,0,0,0
1,267.2,26720,0.19649985,-1.06861734,0.41022491,-42.3854332,-20.93121529,-82.68217468,0,0,0,100.08245087,14.58887768,136.14154053,1,0,0,0,0.04991196,0.11492912,-0.23777705,0,0,0,0
1,267.21,26721,0.23103538,-1.12455904,0.38959941,-44.1997261,-23.72684097,-87.64519501,0,0,0,99.62731171,15.48881817,136.06095886,1,0,0,0,0.03029417,0.17339671,-0.22536436,0,0,0,0
1,267.22,26722,0.24851036,-1.21236968,0.33147508,-45.21354294,-29.85934448,-91.30990601,0,0,0,99.13336182,16.43832779,135.90931702,1,0,0,0,0.02844652,0.26418966,-0.17583933,0,0,0,0
1,267.23,26723,0.20797038,-1.32740462,0.28481108,-46.82685471,-36.48175049,-94.97306061,0,0,0,98.59984589,17.43292046,135.68553162,1,0,0,0,0.08534015,0.38266611,-0.13849704,0,0,0,0
1,267.24,26724,0.16260104,-1.46658802,0.22823958,-51.56728745,-36.98877335,-100.11827087,0,0,0,98.01256561,18.47710419,135.45289612,1,0,0,0,0.14775641,0.5257926,-0.09204691,0,0,0,0
1,267.25,26725,0.11719171,-1.50187361,0.35486943,-54.62149429,-39.29204941,-107.21269226,0,0,0,97.38127899,19.59206581,135.19285583,1,0,0,0,0.21112041,0.56567901,-0.22952111,0,0,0,0
1,267.26,26726,0.04111245,-1.55545175,0.11935304,-58.04389954,-49.06765747,-111.99333954,0,0,0,96.67199707,20.7548275,134.82142639,1,0,0,0,0.30611014,0.62456954,-0.0059861,0,0,0,0
1,267.27,26727,0.0415655,-1.62462747,0.11200126,-61.57762909,-55.98448181,-116.96637726,0,0,0,95.8885498,21.97871971,134.36126709,1,0,0,0,0.32514092,0.69973767,-0.01172118,0,0,0,0
1,267.28,26728,-0.07268237,-1.70290828,0.21315801,-62.94682693,-61.0183754,-124.72609711,0,0,0,95.05550385,23.2784996,133.83200073,1,0,0,0,0.45999283,0.78503203,-0.12690809,0,0,0,0
1,267.29,26729,-0.0778601,-1.72010589,0.28108516,-57.37744904,-60.34815979,-129.73864746,0,0,0,94.26124573,24.62055206,133.28895569,1,0,0,0,0.48642147,0.81028867,-0.20859355,0,0,0,0
1,267.3,26730,-0.0646481,-1.73990548,0.25894299,-49.80341721,-67.0263443,-131.72998047,0,0,0,93.48882294,25.97998428,132.64761353,1,0,0,0,0.49466914,0.83908224,-0.1994144,0,0,0,0
1,267.31,26731,-0.04811403,-1.76170909,0.2318055,-43.07589722,-85.39614105,-131.41641235,0,0,0,92.66665649,27.32842255,131.77502441,1,0,0,0,0.49941194,0.87057412,-0.18541057,0,0,0,0
1,267.32,26732,-0.10790914,-1.73668694,0.26454684,-44.13981247,-108.36026764,-128.57676697,0,0,0,91.67523193,28.65438843,130.60417175,1,0,0,0,0.57986021,0.85567069,-0.23273329,0,0,0,0
1,267.33,26733,-0.08482008,-1.56279218,0.34875679,-55.53725815,-121.21364594,-127.94133759,0,0,0,90.45292664,29.9563179,129.24191284,1,0,0,0,0.57673067,0.6923008,-0.33462813,0,0,0,0
1,267.34,26734,-0.03869978,-1.36952841,0.48163772,-65.16973877,-109.42634583,-135.08662415,0,0,0,89.15122986,31.30387115,127.9649353,1,0,0,0,0.55063665,0.51056516,-0.48707563,0,0,0,0
1,267.35,26735,0.20558545,-1.24014449,0.46270359,-67.67409515,-74.46884918,-144.33836365,0,0,0,87.98726654,32.72860336,127.04428101,1,0,0,0,0.32704961,0.39416853,-0.4862231,0,0,0,0
1,267.36,26736,0.39546737,-1.25993955,0.35745889,-66.20487976,-40.56518936,-157.08100891,0,0,0,87.0239563,34.27155685,126.48704529,1,0,0,0,0.15918025,0.4287737,-0.39562955,0,0,0,0
1,267.37,26737,0.453262,-1.30292058,0.37362424,-66.83017731,-17.79994011,-160.67230225,0,0,0,86.16411591,35.86497498,126.15326691,1,0,0,0,0.12409568,0.48801214,-0.42372873,0,0,0,0
1,267.38,26738,0.52138078,-1.27324402,0.36862439,-67.1800766,-2.8150382,-156.64152527,0,0,0,85.38588715,37.4251709,125.97459412,1,0,0,0,0.078302,0.47532749,-0.42899081,0,0,0,0
1,267.39,26739,0.55228567,-1.19496489,0.42655066,-64.30786896,-16.44064713,-148.50772095,0,0,0,84.51081848,38.88974762,125.60005188,1,0,0,0,0.06815542,0.41391236,-0.49689102,0,0,0,0
1,267.4,26740,0.48740128,-1.12509584,0.55938661,-57.46240997,-18.50647354,-136.90893555,0,0,0,83.66765594,40.23252487,125.17827606,1,0,0,0,0.15183198,0.36036521,-0.64010853,0,0,0,0
1,267.41,26741,0.41441932,-0.93124819,0.57519603,-54.08486557,-30.04280472,-125.67682648,0,0,0,82.78580475,41.43239594,124.63030243,1,0,0,0,0.24166945,0.18202007,-0.6655333,0,0,0,0
1,267.42,26742,0.07475353,-0.58898759,0.58157194,-42.03079987,-64.89160156,-94.22924805,0,0,0,81.67475128,42.27804184,123.59604645,1,0,0,0,0.59426689,-0.14716876,-0.68381721,0,0,0,0
1,267.43,26743,-0.24256226,-0.24044618,0.54316574,-24.28012657,-73.53366852,-56.22524643,0,0,0,80.68675232,42.7207222,122.49356842,1,0,0,0,0.91924644,-0.48682362,-0.65789044,0,0,0,0
1,267.44,26744,-0.21916121,-0.06906177,0.25753567,-2.93730307,-75.28623199,-24.22120094,0,0,0,79.932724,42.83252716,121.42692566,1,0,0,0,0.89871663,-0.65385664,-0.38238093,0,0,0,0
1,267.45,26745,-0.07873359,-0.26544282,0.25604841,17.72363091,-90.4179306,-10.95063877,0,0,0,79.26785278,42.77687836,120.18780518,1,0,0,0,0.75824988,-0.45597094,-0.38951731,0,0,0,0
1,267.46,26746,-0.20036897,-0.41818777,0.40174115,21.36033821,-90.19807434,-2.89045048,0,0,0,78.72932434,42.58746338,119.0406189,1,0,0,0,0.87833548,-0.3031351,-0.54333973,0,0,0,0
1,267.47,26747,-0.36720651,-0.3445631,0.35919285,22.79083824,-76.8447113,22.02827072,0,0,0,78.30913544,42.21849823,118.08009338,1,0,0,0,1.04126346,-0.37915063,-0.50711113,0,0,0,0
1,267.48,26748,-0.40617043,-0.3054204,0.23993507,34.78250504,-76.41078949,53.38508987,0,0,0,78.08398438,41.53952026,117.22216797,1,0,0,0,1.0729084,-0.42400265,-0.39287251,0,0,0,0
1,267.49,26749,-0.29403657,-0.34579369,0.13989343,41.03391266,-79.31622314,73.95832062,0,0,0,77.9513092,40.65134048,116.3963089,1,0,0,0,0.95003545,-0.39245105,-0.29686609,0,0,0,0
1,267.5,26750,-0.19676997,-0.39512885,0.05985434,44.83699799,-81.55867004,87.83216095,0,0,0,77.88208771,39.62167358,115.59361267,1,0,0,0,0.8397963,-0.35368991,-0.22035828,0,0,0,0
1,267.51,26751,-0.19190791,-0.42487088,0.02705879,47.86401749,-77.88680267,100.96276093,0,0,0,77.92460632,38.44345093,114.89573669,1,0,0,0,0.81990981,-0.33601415,-0.19025591,0,0,0,0
1,267.52,26752,-0.20883021,-0.42765304,0.02790627,50.47412491,-63.31241989,113.57953644,0,0,0,78.13105011,37.20085526,114.40995026,1,0,0,0,0.81998903,-0.34663948,-0.19197254,0,0,0,0
1,267.53,26753,-0.21301793,-0.44373834,0.00642226,57.05508804,-43.87861633,127.2199707,0,0,0,78.57313538,35.86608505,114.19485474,1,0,0,0,0.80604988,-0.34493649,-0.16846724,0,0,0,0
1,267.54,26754,-0.20061915,-0.50514853,0.00304352,62.62104797,-25.59049225,140.0368042,0,0,0,79.21218109,34.44248581,114.21772766,1,0,0,0,0.77394664,-0.29898003,-0.15994094,0,0,0,0
1,267.55,26755,-0.19024673,-0.56686836,0.00973819,68.49810028,-8.65433121,152.58895874,0,0,0,80.02342224,32.92583847,114.44595337,1,0,0,0,0.74218589,-0.25355822,-0.15872255,0,0,0,0
1,267.56,26756,-0.17795922,-0.61500835,0.03361426,74.2976532,10.61446476,164.43458557,0,0,0,81.01185608,31.29497719,114.89916229,1,0,0,0,0.70672369,-0.22237684,-0.17186043,0,0,0,0
1,267.57,26757,-0.16182663,-0.63880026,0.05774753,79.83565521,32.12852859,176.01237488,0,0,0,82.14813995,29.60065651,115.56678772,1,0,0,0,0.66547877,-0.21603075,-0.18226869,0,0,0,0
1,267.58,26758,-0.15640338,-0.67483079,0.0741855,85.34731293,54.02104568,189.37986755,0,0,0,83.42464447,27.7894001,116.44890594,1,0,0,0,0.63318968,-0.1974469,-0.18233582,0,0,0,0
1,267.59,26759,-0.12475694,-0.73219579,0.08840939,90.55568695,77.10601044,201.64518738,0,0,0,84.822258,25.86228943,117.53970337,1,0,0,0,0.57240534,-0.15751217,-0.1773102,0,0,0,0
1,267.6,26760,-0.07574338,-0.80156678,0.10745587,95.39530182,93.70619202,212.70115662,0,0,0,86.28483582,23.81414223,118.75078583,1,0,0,0,0.49187201,-0.10514173,-0.17507915,0,0,0,0
1,267.61,26761,-0.03306868,-0.89587319,0.12752499,98.96310425,107.48194885,223.56436157,0,0,0,87.77800751,21.62636757,120.04473877,1,0,0,0,0.41509894,-0.02709982,-0.17238623,0,0,0,0
1,267.62,26762,0.00121606,-1.00369,0.14041853,102.10453033,116.81607056,234.3629303,0,0,0,89.25778198,19.31364441,121.3557663,1,0,0,0,0.34392387,0.06547129,-0.16160938,0,0,0,0
1,267.63,26763,0.02616037,-1.11229169,0.16419782,104.17469025,121.43184662,244.20901489,0,0,0,90.69680786,16.87194633,122.63402557,1,0,0,0,0.2794607,0.1602411,-0.16148382,0,0,0,0
1,267.64,26764,0.01777717,-1.21241498,0.15410304,103.10701752,122.81062317,252.30548096,0,0,0,92.05397797,14.32005215,123.84545898,1,0,0,0,0.24582051,0.24823937,-0.12793031,0,0,0,0
1,267.65,26765,0.03054498,-1.29205978,0.14391287,99.89110565,123.14053345,259.59338379,0,0,0,93.30898285,11.66929817,124.98291779,1,0,0,0,0.18877813,0.31771487,-0.09548124,0,0,0,0
1,267.66,26766,0.09082025,-1.38707149,0.11818335,97.3656311,122.93102264,265.13409424,0,0,0,94.47342682,8.93891621,126.04671478,1,0,0,0,0.0822558,0.40472206,-0.04872121,0,0,0,0
1,267.67,26767,0.15454054,-1.50369632,0.11887097,96.94340515,120.28325653,267.29537964,0,0,0,95.57112885,6.17098475,127.01924133,1,0,0,0,-0.02906039,0.51573491,-0.02955919,0,0,0,0
1,267.68,26768,0.20446008,-1.63214827,0.1254911,95.50019073,108.88607025,267.86117554,0,0,0,96.59379578,3.3923068,127.82076263,1,0,0,0,-0.12714809,0.64110821,-0.01753672,0,0,0,0
1,267.69,26769,0.24438675,-1.73462451,0.1912576,91.54610443,91.95405579,268.67236328,0,0,0,97.53031921,0.61309463,128.40312195,1,0,0,0,-0.21551882,0.74299401,-0.06623232,0,0,0,0
1,267.7,26770,0.29721579,-1.79551923,0.28888732,87.18302155,82.13938141,269.62503052,0,0,0,98.39651489,-2.1708653,128.84289551,1,0,0,0,-0.31680486,0.80572504,-0.14845771,0,0,0,0
1,267.71,26771,0.33807009,-1.83439219,0.36694828,84.70066833,79.63795471,273.12579346,0,0,0,99.22129059,-4.98820782,129.21165466,1,0,0,0,-0.40660322,0.84889305,-0.21238655,0,0,0,0
1,267.72,26772,0.3787705,-1.89179814,0.44459799,85.74324799,82.21720886,272.25097656,0,0,0,100.03875732,-7.8098979,129.56912231,1,0,0,0,-0.49635619,0.91312557,-0.2767624,0,0,0,0
1,267.73,26773,0.45180133,-1.93325579,0.57882464,90.08411407,92.98615265,265.67507935,0,0,0,100.86893463,-10.59141445,130.00737,1,0,0,0,-0.61775923,0.96391451,-0.39816913,0,0,0,0
1,267.74,26774,0.58904564,-1.86361611,0.636352,93.53818512,113.04918671,251.17008972,0,0,0,101.6728363,-13.27588081,130.63897705,1,0,0,0,-0.80167282,0.90576458,-0.44367123,0,0,0,0
1,267.75,26775,0.78115404,-1.81602323,0.60872841,108.75875854,135.89793396,236.97384644,0,0,0,102.54241943,-15.87839413,131.4990387,1,0,0,0,-1.03848398,0.87166494,-0.40429991,0,0,0,0
1,267.76,26776,1.25020945,-1.66851866,0.0863208,98.05886078,143.63778687,206.20506287,0,0,0,103.23281097,-18.19904518,132.48095703,1,0,0,0,-1.54861236,0.73847806,0.12779808,0,0,0,0
1,267.77,26777,1.32283211,-1.82689929,-0.08897538,105.17861938,116.36672974,182.80250549,0,0,0,104.04071045,-20.24982071,133.22216797,1,0,0,0,-1.65654385,0.91126704,0.31290054,0,0,0,0
1,267.78,26778,1.60141289,-1.65432024,-0.07468501,79.84944153,105.2456131,165.1672821,0,0,0,104.60262299,-22.11096001,133.87641907,1,0,0,0,-1.96684659,0.75291586,0.30672741,0,0,0,0
1,267.79,26779,1.69111931,-1.3357712,0.05328986,60.09076691,74.8002243,136.73654175,0,0,0,105.04640961,-23.62397003,134.28173828,1,0,0,0,-2.08314896,0.44666654,0.18282431,0,0,0,0
1,267.8,26780,1.86419535,-1.24976265,0.15612914,38.67107773,45.4628067,110.71910858,0,0,0,105.3667984,-24.81158829,134.44406128,1,0,0,0,-2.27723789,0.37118667,0.08359377,0,0,0,0
1,267.81,26781,1.86927867,-1.11304021,0.14461501,14.27122116,21.79813004,66.65839386,0,0,0,105.49308777,-25.49626541,134.47581482,1,0,0,0,-2.29643488,0.24160582,0.09648843,0,0,0,0
1,267.82,26782,1.73988199,-0.9447543,0.20773464,2.29731607,13.85026646,15.82370567,0,0,0,105.47225952,-25.68572044,134.57701111,1,0,0,0,-2.17284274,0.07605724,0.03290993,0,0,0,0
1,267.83,26783,1.54353595,-1.05389357,0.33224165,5.18132401,13.74229908,-41.4875946,0,0,0,105.40809631,-25.32238388,134.84613037,1,0,0,0,-1.97402656,0.18383247,-0.09210182,0,0,0,0
1,267.84,26784,1.31824374,-1.02916145,0.29144758,-4.08453083,21.74905205,-81.24785614,0,0,0,105.1697464,-24.59622192,135.3142395,1,0,0,0,-1.73921227,0.15423496,-0.05212934,0,0,0,0
1,267.85,26785,1.16377711,-1.01529062,0.12970425,-19.29909897,29.58955574,-112.45019531,0,0,0,104.71929932,-23.58602142,135.94500732,1,0,0,0,-1.57017779,0.13229784,0.10509937,0,0,0,0
1,267.86,26786,0.60711867,-1.24186623,-0.08354683,-31.81668472,32.25712204,-135.81939697,0,0,0,104.1074295,-22.33217239,136.64996338,1,0,0,0,-0.99506927,0.34901685,0.31216472,0,0,0,0
1,267.87,26787,-1.08752763,-1.60303688,-0.10102001,-69.78544617,7.45419884,-146.40905762,0,0,0,103.24279022,-20.9276638,137.10095215,1,0,0,0,0.72170448,0.69843155,0.31964767,0,0,0,0
1,267.88,26788,-2.19501209,-1.72168195,0.26402992,-90.95696259,59.26174545,-121.81028748,0,0,0,102.02124023,-19.86736488,138.00335693,1,0,0,0,1.84968567,0.80553937,-0.0606207,0,0,0,0
1,267.89,26789,-0.12262014,-1.24088073,-0.29922575,-86.29421234,152.88157654,-75.33583832,0,0,0,100.57073212,-19.42686844,139.75183105,1,0,0,0,-0.21253693,0.31630015,0.48026299,0,0,0,0
1,267.9,26790,1.59823453,-1.56306386,-0.37661108,-31.10497856,100.52542114,-120.20147705,0,0,0,99.84411621,-18.42162132,141.02156067,1,0,0,0,-1.92175698,0.63131332,0.5413413,0,0,0,0
1,267.91,26791,0.76723158,-1.98020649,0.05748351,-9.30674458,-38.26315689,-177.78683472,0,0,0,99.77305603,-16.59714127,140.94259644,1,0,0,0,-1.06479228,1.03950095,0.10513952,0,0,0,0
1,267.92,26792,0.12191476,-1.30835164,0.25220376,-30.48872185,-7.23093033,-163.68736267,0,0,0,99.41307831,-14.97076893,141.15240479,1,0,0,0,-0.38964117,0.3582949,-0.09203009,0,0,0,0
1,267.93,26793,0.16044287,-0.72333157,0.05886495,-13.47037888,23.08532715,-134.90963745,0,0,0,99.16474915,-13.67645741,141.61178589,1,0,0,0,-0.40491241,-0.2337402,0.09672697,0,0,0,0
1,267.94,26794,0.22671635,-0.79773551,0.29994866,12.76800823,22.9461422,-133.65748596,0,0,0,99.19082642,-12.39349747,142.06282043,1,0,0,0,-0.44958371,-0.16463861,-0.14462131,0,0,0,0
1,267.95,26795,-0.02727458,-0.74395317,0.52401066,19.35169029,42.82836533,-132.57623291,0,0,0,99.25248718,-11.15355968,142.71165466,1,0,0,0,-0.1739655,-0.22288018,-0.36684889,0,0,0,0
1,267.96,26796,-0.07040378,-0.65094048,0.40483826,21.89177322,65.48435211,-123.01316833,0,0,0,99.32939911,-10.03238964,143.56848145,1,0,0,0,-0.11089814,-0.31956011,-0.24600157,0,0,0,0
1,267.97,26797,0.44778559,-0.80694252,0.16064547,9.82548523,77.02770996,-114.60978699,0,0,0,99.26894379,-9.02604485,144.52729797,1,0,0,0,-0.61113822,-0.16663203,-0.00113218,0,0,0,0
1,267.98,26798,0.75171995,-1.10245705,0.06414907,-4.82583427,52.88876724,-114.33005524,0,0,0,99.1145401,-7.98204803,145.24002075,1,0,0,0,-0.89749187,0.12581159,0.0936069,0,0,0,0
1,267.99,26799,0.37821031,-1.1318202,0.25357428,-12.27094078,11.03857327,-119.36959839,0,0,0,98.9528656,-6.82054424,145.53895569,1,0,0,0,-0.5045504,0.15209159,-0.09821329,0,0,0,0
1,268,26800,0.2444918,-1.04095876,0.13095625,-6.99429703,-3.64719296,-104.0330658,0,0,0,98.86894989,-5.78711605,145.66467285,1,0,0,0,-0.35172719,0.05868015,0.02268347,0,0,0,0
1,268.01,26801,0.43580356,-1.06698966,0.0195013,0.11219827,-47.42618179,-84.49464417,0,0,0,98.88998413,-4.8440032,145.3142395,1,0,0,0,-0.52659488,0.08306141,0.13418919,0,0,0,0
1,268.02,26802,0.29417032,-1.06026304,0.05383294,4.17974043,-79.68395233,-80.8649292,0,0,0,98.98223877,-3.92137933,144.65074158,1,0,0,0,-0.36860064,0.07518128,0.10125873,0,0,0,0
1,268.03,26803,0.14755613,-0.95368028,0.16807771,7.77688169,-81.67892456,-75.7702179,0,0,0,99.10193634,-3.04480863,143.96180725,1,0,0,0,-0.2062901,-0.03215145,-0.01101751,0,0,0,0
1,268.04,26804,0.03150041,-0.94164473,0.19294873,14.03606033,-62.61341476,-70.7572937,0,0,0,99.26581573,-2.24642968,143.45603943,1,0,0,0,-0.07579853,-0.04450677,-0.03317529,0,0,0,0
1,268.05,26805,-0.02828045,-0.97704017,0.24860716,13.10181332,-39.17049026,-65.14974976,0,0,0,99.40633392,-1.54004896,143.17507935,1,0,0,0,-0.00310026,-0.0091621,-0.08610059,0,0,0,0
1,268.06,26806,0.01364334,-1.00690448,0.28287035,10.50884151,-11.29026031,-62.53192139,0,0,0,99.52811432,-0.89478123,143.16793823,1,0,0,0,-0.03347623,0.02075657,-0.11822274,0,0,0,0
1,268.07,26807,0.09837684,-1.01226139,0.22252871,4.16881895,6.69411087,-62.22480392,0,0,0,99.56813812,-0.29228565,143.3372345,1,0,0,0,-0.10738616,0.02619633,-0.05643911,0,0,0,0
1,268.08,26808,0.1093254,-0.95587474,0.16224273,-4.13941431,13.26617622,-60.96068192,0,0,0,99.52675629,0.28685901,143.56921387,1,0,0,0,-0.108078,-0.03027271,0.00359958,0,0,0,0
1,268.09,26809,0.18690637,-0.90517747,0.24571931,-6.47564793,14.11685276,-57.64971924,0,0,0,99.46433258,0.83220428,143.80348206,1,0,0,0,-0.17587815,-0.081104,-0.08103713,0,0,0,0
1,268.1,26810,0.24936751,-0.92706805,0.2606293,-0.84961885,15.78835869,-53.74406433,0,0,0,99.46042633,1.33637297,144.04762268,1,0,0,0,-0.22930959,-0.05912524,-0.09626827,0,0,0,0
1,268.11,26811,0.28826591,-0.96824104,0.27676859,-3.83054733,8.55415726,-48.15813828,0,0,0,99.45013428,1.85499406,144.20330811,1,0,0,0,-0.25958472,-0.01778565,-0.11268903,0,0,0,0
1,268.12,26812,0.32917482,-0.99647278,0.26073739,-5.15091944,0.96627569,-41.16177368,0,0,0,99.40135956,2.25946808,144.28030396,1,0,0,0,-0.29233521,0.01063196,-0.09716167,0,0,0,0
1,268.13,26813,0.33423036,-1.01518178,0.2377888,-6.29407072,-7.96006775,-35.86327744,0,0,0,99.33750916,2.62626553,144.26013184,1,0,0,0,-0.29074672,0.02943502,-0.07527991,0,0,0,0
1,268.14,26814,0.30104095,-1.00567532,0.21197554,-8.48622322,-17.21925163,-30.39837646,0,0,0,99.24671936,2.95406532,144.13917542,1,0,0,0,-0.25159007,0.01998448,-0.05083797,0,0,0,0
1,268.15,26815,0.26300564,-0.98241377,0.18654567,-9.14809132,-23.49705887,-25.4070282,0,0,0,99.14484406,3.24240494,143.94754028,1,0,0,0,-0.20827639,-0.00329247,-0.02721626,0,0,0,0
1,268.16,26816,0.22548391,-0.97584903,0.16371506,-6.26107502,-24.88225746,-20.78642082,0,0,0,99.06829071,3.52383828,143.72479248,1,0,0,0,-0.16604123,-0.00983338,-0.00593467,0,0,0,0
1,268.17,26817,0.18909323,-0.96575534,0.17845643,-5.10905457,-22.64925385,-17.25686836,0,0,0,99.00473022,3.72984171,143.52784729,1,0,0,0,-0.12534538,-0.01984328,-0.02183407,0,0,0,0
1,268.18,26818,0.17654154,-0.95304549,0.21435621,-3.82521248,-16.02538109,-15.39207554,0,0,0,98.95753479,3.90689254,143.39328003,1,0,0,0,-0.10952464,-0.03249441,-0.05873132,0,0,0,0
1,268.19,26819,0.18418418,-0.95938253,0.23422506,-4.06719398,-12.68139076,-14.15974808,0,0,0,98.90966797,4.0664649,143.28974915,1,0,0,0,-0.11429384,-0.02608924,-0.07943454,0,0,0,0
1,268.2,26820,0.22081007,-0.96072423,0.2460165,-3.41139126,-11.42980194,-13.29556179,0,0,0,98.86886597,4.21549273,143.1971283,1,0,0,0,-0.14826745,-0.02467579,-0.09199061,0,0,0,0
1,268.21,26821,0.24216922,-0.96193987,0.24430312,-1.6151402,-13.38129711,-13.20056057,0,0,0,98.88646698,4.44073677,143.08178711,1,0,0,0,-0.16670316,-0.02330242,-0.09067738,0,0,0,0
1,268.22,26822,0.25159732,-0.95720398,0.26069662,0.5147348,-17.35929298,-12.50356483,0,0,0,98.87958527,4.59107447,142.92910767,1,0,0,0,-0.17252931,-0.02771477,-0.10680382,0,0,0,0
1,268.23,26823,0.24125355,-0.95127332,0.25573957,2.7145741,-21.42482948,-11.65096378,0,0,0,98.89091492,4.73927593,142.73477173,1,0,0,0,-0.15958893,-0.033426,-0.10179895,0,0,0,0
1,268.24,26824,0.21958852,-0.95700717,0.23224442,4.09839296,-26.04620743,-10.8299284,0,0,0,98.91162109,4.88656521,142.49336243,1,0,0,0,-0.13537161,-0.02743223,-0.07801674,0,0,0,0
1,268.25,26825,0.19586904,-0.96799827,0.2154026,3.30168939,-29.79984093,-10.91692829,0,0,0,98.92053986,5.04060316,142.21484375,1,0,0,0,-0.10901995,-0.01618019,-0.06097038,0,0,0,0
1,268.26,26826,0.16548906,-0.9740501,0.2172855,2.03696156,-32.56518173,-12.03649616,0,0,0,98.93336487,5.22864723,141.91378784,1,0,0,0,-0.07572441,-0.00986148,-0.06282011,0,0,0,0
1,268.27,26827,0.15741077,-0.97756201,0.23799571,1.51914203,-31.70637321,-13.87494373,0,0,0,98.92140198,5.41492128,141.62081909,1,0,0,0,-0.06428832,-0.00603494,-0.08351433,0,0,0,0
1,268.28,26828,0.15019125,-0.96800834,0.26062825,1.72812903,-28.66496849,-15.81904793,0,0,0,98.91372681,5.61563206,141.36096191,1,0,0,0,-0.05366765,-0.01529457,-0.10636329,0,0,0,0
1,268.29,26829,0.16608354,-0.96132547,0.25869176,2.3962481,-24.67217827,-17.5650692,0,0,0,98.916008,5.82739449,141.14337158,1,0,0,0,-0.06594391,-0.02162848,-0.10450828,0,0,0,0
1,268.3,26830,0.17945351,-0.95432729,0.23754528,3.0255146,-22.42544746,-19.06871033,0,0,0,98.92629242,6.0505538,140.95036316,1,0,0,0,-0.07552676,-0.02822284,-0.08329439,0,0,0,0
1,268.31,26831,0.18577129,-0.95709211,0.22026841,3.28429508,-21.53768921,-21.21380806,0,0,0,98.956604,6.31598091,140.7711792,1,0,0,0,-0.07764535,-0.02496924,-0.06579285,0,0,0,0
1,268.32,26832,0.17971069,-0.95523518,0.21622163,3.08314633,-20.91028595,-22.35889244,0,0,0,98.9680481,6.56941605,140.59837341,1,0,0,0,-0.06697539,-0.02625312,-0.06139939,0,0,0,0
1,268.33,26833,0.17566887,-0.95703191,0.22116987,2.05280018,-19.3598175,-24.48039627,0,0,0,98.9705658,6.84140348,140.4442749,1,0,0,0,-0.05831718,-0.02391285,-0.06633373,0,0,0,0
1,268.34,26834,0.18682851,-0.966717,0.22513308,2.31530952,-17.65751076,-25.88097382,0,0,0,98.97731018,7.12459469,140.30921936,1,0,0,0,-0.06466594,-0.01364213,-0.07030948,0,0,0,0
1,268.35,26835,0.19794492,-0.97424155,0.21213423,1.65084767,-16.00247192,-28.67069435,0,0,0,98.97937012,7.43276978,140.19499207,1,0,0,0,-0.07062521,-0.00546198,-0.05731702,0,0,0,0
1,268.36,26836,0.19879621,-0.97802132,0.22342417,0.6969865,-15.75164318,-30.89595032,0,0,0,98.99069214,7.77832127,140.09132385,1,0,0,0,-0.06580877,-0.00094889,-0.06873514,0,0,0,0
1,268.37,26837,0.20053685,-0.98992282,0.23698065,0.62111086,-15.32891464,-32.25497818,0,0,0,98.98279572,8.12085915,139.98931885,1,0,0,0,-0.06149884,0.01179114,-0.08230655,0,0,0,0
1,268.38,26838,0.19430916,-1.00858223,0.25677589,-0.30134052,-15.75899982,-34.89112473,0,0,0,98.9650116,8.49009228,139.88702393,1,0,0,0,-0.04909853,0.03129441,-0.10244156,0,0,0,0
1,268.39,26839,0.1803844,-1.0285517,0.26558575,-2.74607229,-18.70528221,-37.46831512,0,0,0,98.91819763,8.88930511,139.75900269,1,0,0,0,-0.02849384,0.05215631,-0.11203672,0,0,0,0
1,268.4,26840,0.16853073,-1.06287956,0.26450875,-4.45034695,-20.48696518,-41.12578583,0,0,0,98.85144806,9.32727146,139.61833191,1,0,0,0,-0.00933819,0.08746178,-0.11215083,0,0,0,0
1,268.41,26841,0.14399876,-1.08528507,0.23692906,-5.96275425,-22.34079933,-46.58886337,0,0,0,98.77433014,9.81442642,139.4724884,1,0,0,0,0.02329275,0.11099106,-0.08606835,0,0,0,0
1,268.42,26842,0.10223894,-1.08953559,0.22045004,-7.59884167,-23.25767708,-53.49181366,0,0,0,98.671875,10.37843895,139.32139587,1,0,0,0,0.07417342,0.11658211,-0.07134662,0,0,0,0
1,268.43,26843,0.06633028,-1.09807968,0.21563528,-12.72983551,-22.83817291,-60.54621887,0,0,0,98.51906586,11.0112524,139.18374634,1,0,0,0,0.12049065,0.12669314,-0.06902179,0,0,0,0
1,268.44,26844,0.07022252,-1.10672879,0.21658783,-22.21582603,-22.18742371,-67.49210358,0,0,0,98.27264404,11.71136189,139.06045532,1,0,0,0,0.12819101,0.13706249,-0.0738785,0,0,0,0
1,268.45,26845,0.1020302,-1.10055935,0.24840406,-30.85085106,-19.56007957,-74.60009003,0,0,0,97.94525146,12.47751713,138.97009277,1,0,0,0,0.10902814,0.13278387,-0.11111556,0,0,0,0
1,268.46,26846,0.11987856,-1.08134663,0.31896782,-37.86700058,-15.91640186,-82.48587799,0,0,0,97.57227325,13.30631733,138.93377686,1,0,0,0,0.10496099,0.11576807,-0.18825656,0,0,0,0
1,268.47,26847,0.14014526,-1.07697201,0.41652533,-42.23542404,-13.0786705,-89.24111176,0,0,0,97.14616394,14.20813465,138.91792297,1,0,0,0,0.09950212,0.11401173,-0.29302216,0,0,0,0
1,268.48,26848,0.19763272,-1.11290014,0.45777598,-45.33959579,-14.11078453,-94.92001343,0,0,0,96.68595886,15.16739845,138.89129639,1,0,0,0,0.05785557,0.15302685,-0.34226876,0,0,0,0
1,268.49,26849,0.25532719,-1.18905878,0.41955778,-47.67347336,-20.35056877,-100.49474335,0,0,0,96.18395996,16.18876076,138.79821777,1,0,0,0,0.01697237,0.23281428,-0.31269991,0,0,0,0
1,268.5,26850,0.26048359,-1.30240226,0.32540807,-49.87696457,-28.58728981,-104.67718506,0,0,0,95.63199615,17.25934601,138.61381531,1,0,0,0,0.02943818,0.35034275,-0.22797243,0,0,0,0
1,268.51,26851,0.22400263,-1.47084677,0.23047484,-51.85646439,-38.54755402,-107.552742,0,0,0,95.02370453,18.35960579,138.31816101,1,0,0,0,0.08413199,0.52352691,-0.14329219,0,0,0,0
1,268.52,26852,0.17582391,-1.6101433,0.21632446,-57.04587936,-41.23530579,-111.12574005,0,0,0,94.34346771,19.50086212,137.97966003,1,0,0,0,0.15088211,0.66808754,-0.14047764,0,0,0,0
1,268.53,26853,0.09327408,-1.58658671,0.21829516,-60.09108734,-40.45153046,-117.23892975,0,0,0,93.62464905,20.69851303,137.63665771,1,0,0,0,0.25274932,0.65055382,-0.15453973,0,0,0,0
1,268.54,26854,0.04172841,-1.58570015,0.15654409,-60.1528244,-46.11880875,-122.44974518,0,0,0,92.87031555,21.94709206,137.21681213,1,0,0,0,0.32436797,0.65656227,-0.10528898,0,0,0,0
1,268.55,26855,-0.03294799,-1.68256867,0.15130825,-61.79621124,-53.78022385,-128.59216309,0,0,0,92.05157471,23.25488091,136.69458008,1,0,0,0,0.41978207,0.76123405,-0.11327401,0,0,0,0
1,268.56,26856,-0.13332351,-1.8079778,0.29337978,-61.10126877,-55.9252739,-138.65298462,0,0,0,91.21302795,24.64765358,136.13020325,1,0,0,0,0.5419665,0.89564049,-0.26907498,0,0,0,0
1,268.57,26857,-0.17426001,-1.90453541,0.40568155,-56.82191086,-59.27315903,-148.28186035,0,0,0,90.37297821,26.13842392,135.49668884,1,0,0,0,0.60591984,1.00260139,-0.3948251,0,0,0,0
1,268.58,26858,-0.1526957,-1.88724697,0.45578137,-51.28832626,-75.58174133,-151.63920593,0,0,0,89.4751358,27.65363121,134.64685059,1,0,0,0,0.60801768,0.9969638,-0.45857394,0,0,0,0
1,268.59,26859,-0.17174853,-1.77199817,0.45703545,-46.31337357,-102.35296631,-150.73828125,0,0,0,88.44300079,29.14190292,133.45231628,1,0,0,0,0.65023082,0.89412051,-0.47471461,0,0,0,0
1,268.6,26860,-0.1666183,-1.5891645,0.45262864,-41.36836624,-137.86265564,-143.81532288,0,0,0,87.20720673,30.52659416,131.80126953,1,0,0,0,0.66685611,0.72402585,-0.48762336,0,0,0,0
1,268.61,26861,-0.0322931,-1.43514812,0.5138576,-40.14693069,-145.53010559,-142.57321167,0,0,0,85.88912201,31.84882164,130.01705933,1,0,0,0,0.55262804,0.5829289,-0.56772757,0,0,0,0
1,268.62,26862,0.20316115,-1.27167797,0.53661299,-41.7439003,-129.77270508,-149.5075531,0,0,0,84.56772614,33.23102951,128.33546448,1,0,0,0,0.33717346,0.43340111,-0.60910869,0,0,0,0
1,268.63,26863,0.4876613,-1.20115507,0.50029868,-40.87485123,-94.89139557,-159.85144043,0,0,0,83.41091919,34.72157669,126.99546051,1,0,0,0,0.07371461,0.37843251,-0.58923614,0,0,0,0
1,268.64,26864,0.55624473,-1.24541104,0.42565149,-38.0776062,-65.54780579,-168.84927368,0,0,0,82.41765594,36.31647491,125.94033051,1,0,0,0,0.02748357,0.43994391,-0.52767003,0,0,0,0
1,268.65,26865,0.49991778,-1.27215493,0.34506494,-41.0411377,-45.48025894,-164.11413574,0,0,0,81.49333191,37.87798691,125.08807373,1,0,0,0,0.10605361,0.48476163,-0.45793808,0,0,0,0
1,268.66,26866,0.43546504,-1.22646463,0.41715202,-50.85748291,-43.44857025,-149.97070312,0,0,0,80.4842453,39.2786026,124.26708221,1,0,0,0,0.19075513,0.45674485,-0.54092383,0,0,0,0
1,268.67,26867,0.33766472,-1.08655584,0.60167313,-46.44175339,-38.43740463,-135.09140015,0,0,0,79.50698853,40.54224396,123.46755219,1,0,0,0,0.30611444,0.33332425,-0.73636067,0,0,0,0
1,268.68,26868,0.40868047,-0.92304564,0.5015161,-39.48190689,-30.94696236,-117.13414001,0,0,0,78.65341949,41.63365936,122.77004242,1,0,0,0,0.25052059,0.18496838,-0.64524728,0,0,0,0
1,268.69,26869,0.22952545,-0.74646503,0.45807084,-25.87306404,-54.69751358,-97.52667236,0,0,0,77.73088837,42.47604752,121.77997589,1,0,0,0,0.44197762,0.02145861,-0.61111516,0,0,0,0
1,268.7,26870,-0.12941882,-0.52644777,0.4224169,-10.30407715,-74.71121216,-69.16707611,0,0,0,76.81354523,42.98612976,120.58044434,1,0,0,0,0.80912805,-0.18865931,-0.58551592,0,0,0,0
1,268.71,26871,-0.29371175,-0.22480677,0.20354235,-6.23878193,-66.71627045,-40.68645477,0,0,0,76.08096313,43.19404221,119.5868454,1,0,0,0,0.97756922,-0.4841316,-0.37598991,0,0,0,0
1,268.72,26872,-0.20783441,-0.17952785,0.15115516,18.78871727,-64.26083374,-19.24738121,0,0,0,75.63912201,43.22335815,118.66729736,1,0,0,0,0.89270091,-0.52679271,-0.33022845,0,0,0,0
1,268.73,26873,-0.2565642,-0.38164788,0.34897727,40.98721313,-64.23496246,-6.41191387,0,0,0,75.45024109,43.12501526,117.79237366,1,0,0,0,0.94072956,-0.32448781,-0.5314315,0,0,0,0
1,268.74,26874,-0.45166954,-0.41931027,0.27505666,36.47034073,-49.56689453,13.74783516,0,0,0,75.39954376,42.86713028,117.18358612,1,0,0,0,1.13345456,-0.28862762,-0.45942375,0,0,0,0
1,268.75,26875,-0.52396494,-0.34000695,0.11396433,37.71815872,-38.85882568,50.34454346,0,0,0,75.54679871,42.28223038,116.84406281,1,0,0,0,1.19993436,-0.37337863,-0.29872504,0,0,0,0
1,268.76,26876,-0.41212451,-0.29351228,-0.01593475,43.75782013,-42.0165596,82.78181458,0,0,0,75.8057785,41.3356781,116.57685852,1,0,0,0,1.07760382,-0.4297595,-0.16843368,0,0,0,0
1,268.77,26877,-0.29841694,-0.38720387,-0.08570696,50.60255814,-42.93557739,96.28404999,0,0,0,76.15337372,40.29748154,116.33459473,1,0,0,0,0.95044363,-0.34851599,-0.0974584,0,0,0,0
1,268.78,26878,-0.26672316,-0.44379532,-0.05270195,52.83942413,-37.7466774,108.93473053,0,0,0,76.58998108,39.1497612,116.19132233,1,0,0,0,0.90398467,-0.30527249,-0.1282959,0,0,0,0
1,268.79,26879,-0.27657905,-0.42993486,0.00961271,57.96708298,-20.61396599,123.40577698,0,0,0,77.23192596,37.90089798,116.29196167,1,0,0,0,0.89739704,-0.33381057,-0.18634236,0,0,0,0
1,268.8,26880,-0.26404831,-0.43109113,0.04550121,65.51508331,6.18130922,139.02853394,0,0,0,78.15770721,36.55550003,116.74000549,1,0,0,0,0.86679369,-0.34875971,-0.21424013,0,0,0,0
1,268.81,26881,-0.24241769,-0.48104939,0.06387253,73.08570862,29.76581001,154.10569763,0,0,0,79.32926941,35.07194519,117.48487091,1,0,0,0,0.82521766,-0.3162393,-0.22071129,0,0,0,0
1,268.82,26882,-0.22750555,-0.55100775,0.06606986,78.16740417,51.03604507,168.76603699,0,0,0,80.65325928,33.49842453,118.44804382,1,0,0,0,0.78810942,-0.26481253,-0.20774201,0,0,0,0
1,268.83,26883,-0.18880613,-0.6037544,0.07425933,80.22332764,73.68986511,183.19978333,0,0,0,82.09790802,31.79734612,119.63945007,1,0,0,0,0.72527277,-0.2309422,-0.1982711,0,0,0,0
1,268.84,26884,-0.13220929,-0.67238182,0.06710037,82.09529877,95.07500458,196.20336914,0,0,0,83.62873077,29.96839142,121.02252197,1,0,0,0,0.64221597,-0.18140455,-0.17111433,0,0,0,0
1,268.85,26885,-0.07543132,-0.76358211,0.09253682,84.52325439,122.72763062,211.61894226,0,0,0,85.26354218,27.98058701,122.65275574,1,0,0,0,0.55620664,-0.10935718,-0.17430946,0,0,0,0
1,268.86,26886,-0.0168686,-0.86764801,0.11645462,87.27047729,139.74894714,223.91287231,0,0,0,86.92784882,25.82903099,124.39376831,1,0,0,0,0.46541566,-0.02416177,-0.17403875,0,0,0,0
1,268.87,26887,0.04375445,-0.97155249,0.14258227,87.64904785,149.56092834,234.08595276,0,0,0,88.5341568,23.54899788,126.14031982,1,0,0,0,0.36956328,0.06165133,-0.17532919,0,0,0,0
1,268.88,26888,0.09604901,-1.07285547,0.15482895,88.40904999,154.75164795,244.25234985,0,0,0,90.06671143,21.1253891,127.84519196,1,0,0,0,0.27926734,0.14609572,-0.16288888,0,0,0,0
1,268.89,26889,0.13855521,-1.16454005,0.13876146,86.94403839,152.91217041,255.20306396,0,0,0,91.47602081,18.55290413,129.43373108,1,0,0,0,0.19570073,0.22229663,-0.12296628,0,0,0,0
1,268.9,26890,0.18812113,-1.22811568,0.14236246,83.61605835,147.00880432,263.59130859,0,0,0,92.73780823,15.86469746,130.86990356,1,0,0,0,0.10222825,0.27205828,-0.10435723,0,0,0,0
1,268.91,26891,0.24694207,-1.2853688,0.14456527,81.83108521,135.47103882,269.04187012,0,0,0,93.86745453,13.10001373,132.10719299,1,0,0,0,-0.00264784,0.31753874,-0.0861311,0,0,0,0
1,268.92,26892,0.27647549,-1.35861373,0.17360957,80.22328949,115.43696594,271.87020874,0,0,0,94.86628723,10.30153656,133.0710144,1,0,0,0,-0.07962448,0.38131189,-0.0966565,0,0,0,0
1,268.93,26893,0.26813921,-1.43324542,0.2308865,76.72025299,92.19987488,275.52392578,0,0,0,95.73856354,7.47316933,133.74214172,1,0,0,0,-0.11971132,0.44885445,-0.13742147,0,0,0,0
1,268.94,26894,0.27841383,-1.52451086,0.31196207,71.83185577,74.03804779,279.28945923,0,0,0,96.50380707,4.61737299,134.18276978,1,0,0,0,-0.17927834,0.53540266,-0.20412327,0,0,0,0
1,268.95,26895,0.31129101,-1.58832109,0.36491296,70.85810852,67.91291046,282.78149414,0,0,0,97.2313385,1.72873449,134.51934814,1,0,0,0,-0.26218468,0.59699297,-0.2438955,0,0,0,0
1,268.96,26896,0.33602354,-1.62338042,0.4117153,71.95767975,65.9149704,287.17178345,0,0,0,97.95449829,-1.20059645,134.79284668,1,0,0,0,-0.33777806,0.6324653,-0.27804914,0,0,0,0
1,268.97,26897,0.36841893,-1.66401637,0.43075547,72.25680542,67.42269135,290.52822876,0,0,0,98.6654892,-4.17278671,135.04034424,1,0,0,0,-0.4217127,0.67625725,-0.28491676,0,0,0,0
1,268.98,26898,0.42747998,-1.72542799,0.4624415,77.17017365,73.50014496,289.97973633,0,0,0,99.41013336,-7.15204668,135.31231689,1,0,0,0,-0.53262794,0.74367154,-0.30472681,0,0,0,0
1,268.99,26899,0.53191292,-1.81667721,0.54889035,83.03969574,86.47215271,281.94125366,0,0,0,100.18347168,-10.07758713,135.68925476,1,0,0,0,-0.68809938,0.84373868,-0.37924349,0,0,0,0
1,269,26900,0.68083423,-1.85905111,0.57480645,89.50727081,100.77333069,267.69885254,0,0,0,100.97658539,-12.8941927,136.19877625,1,0,0,0,-0.8861534,0.89740944,-0.39345461,0,0,0,0
1,269.01,26901,0.90055794,-1.80612266,0.56379449,93.63365936,108.92730713,249.07289124,0,0,0,101.76708221,-15.54258919,136.79202271,1,0,0,0,-1.15205956,0.8576774,-0.37138614,0,0,0,0
1,269.02,26902,1.08815122,-1.78621924,0.4940241,106.33907318,110.05466461,236.08630371,0,0,0,102.65607452,-18.08263206,137.39492798,1,0,0,0,-1.38280678,0.85266054,-0.29036832,0,0,0,0
1,269.03,26903,1.37651801,-1.83131635,0.3529498,106.45656586,98.33486176,216.34764099,0,0,0,103.55808258,-20.41251755,137.88961792,1,0,0,0,-1.71121919,0.91405165,-0.13740954,0,0,0,0
1,269.04,26904,1.6716193,-1.71779585,0.16160928,99.60417938,69.46581268,198.39952087,0,0,0,104.47899628,-22.50524712,138.09750366,1,0,0,0,-2.04204655,0.8171007,0.0651357,0,0,0,0
1,269.05,26905,1.83321714,-1.48416233,-0.00550061,78.15274048,22.64342117,175.23869324,0,0,0,105.36238098,-24.25626564,137.8440094,1,0,0,0,-2.23405242,0.5994249,0.2431692,0,0,0,0
1,269.06,26906,1.89424431,-1.22284901,-0.04717395,54.63962555,-23.13361168,142.17585754,0,0,0,106.19019318,-25.54825592,137.16876221,1,0,0,0,-2.31852341,0.35190934,0.29496798,0,0,0,0
1,269.07,26907,1.86090815,-1.11119545,0.0488187,40.28093719,-45.90826797,100.1726532,0,0,0,106.94675446,-26.37735367,136.36174011,1,0,0,0,-2.30091095,0.25097725,0.20885903,0,0,0,0
1,269.08,26908,1.72910392,-1.03802085,0.07886882,24.5054512,-44.76888275,51.1365509,0,0,0,107.48138428,-26.73330688,135.71456909,1,0,0,0,-2.17740917,0.18458395,0.18695249,0,0,0,0
1,269.09,26909,1.572824,-0.96467298,0.02834279,13.31661892,-31.5709095,-1.55834627,0,0,0,107.76359558,-26.62290001,135.38322449,1,0,0,0,-2.02225232,0.11354186,0.2429283,0,0,0,0
1,269.1,26910,1.44889522,-0.97768551,-0.01533393,3.41501427,-11.60538292,-55.22166443,0,0,0,107.76928711,-26.0616436,135.44807434,1,0,0,0,-1.89211452,0.12418039,0.28933391,0,0,0,0
1,269.11,26911,1.35670877,-0.99648267,-0.07291589,-10.37475204,9.916852,-96.21965027,0,0,0,107.47135162,-25.14006042,135.86740112,1,0,0,0,-1.78749382,0.13630579,0.34585461,0,0,0,0
1,269.12,26912,1.29160285,-1.00127316,-0.09047963,-23.45329285,23.77992439,-122.21485901,0,0,0,106.96734619,-24.04312134,136.51521301,1,0,0,0,-1.70581484,0.13168597,0.35920042,0,0,0,0
1,269.13,26913,0.81272584,-1.24162281,0.15060577,-20.88718033,31.57140923,-134.54382324,0,0,0,106.45979309,-22.84514427,137.26629639,1,0,0,0,-1.2081393,0.36160272,0.11240484,0,0,0,0
1,269.14,26914,-0.16160969,-1.15158033,0.12609343,-53.21081543,26.59900856,-148.94110107,0,0,0,105.65487671,-21.48784828,137.98750305,1,0,0,0,-0.21323887,0.26029909,0.128947,0,0,0,0
1,269.15,26915,-2.87526274,-1.49740458,0.80966848,-47.50490952,4.84316444,-149.44242859,0,0,0,105.0118103,-20.05953407,138.46003723,1,0,0,0,2.5236516,0.59420735,-0.56360179,0,0,0,0
1,269.16,26916,-3.38542914,-1.96764433,0.29645699,-78.04106903,72.37345123,-74.00611115,0,0,0,103.91210175,-19.52602577,139.40522766,1,0,0,0,3.05071259,1.05502272,-0.06183042,0,0,0,0
1,269.17,26917,1.47821295,-1.38456345,-1.41505313,-80.00561523,178.19313049,9.93149281,0,0,0,102.49354553,-20.02858925,141.223526,1,0,0,0,-1.81924796,0.46869248,1.62678552,0,0,0,0
1,269.18,26918,2.30046415,-2.22618604,-0.42449555,-31.16659164,30.67116547,-141.16578674,0,0,0,101.9641571,-18.71471405,141.85552979,1,0,0,0,-2.6318202,1.30327725,0.62040347,0,0,0,0
1,269.19,26919,0.43244526,-1.8499347,0.972817,-7.38354397,-34.50379944,-181.73835754,0,0,0,101.87796783,-16.86530495,141.89768982,1,0,0,0,-0.73382086,0.91726077,-0.7748006,0,0,0,0
1,269.2,26920,-0.07403687,-0.73152381,0.26555923,-41.90539551,10.38540936,-156.27029419,0,0,0,101.33960724,-15.35509205,142.33030701,1,0,0,0,-0.20007701,-0.21076104,-0.07346042,0,0,0,0
1,269.21,26921,0.30509004,-0.92861354,0.19081691,2.09820652,60.75798798,-137.00093079,0,0,0,101.13819122,-14.09628105,143.2124176,1,0,0,0,-0.55648547,-0.0208862,-0.00316205,0,0,0,0
1,269.22,26922,0.01759213,-1.06065238,0.35106575,33.13608932,92.79938507,-140.85290527,0,0,0,101.18571472,-12.89399529,144.42909241,1,0,0,0,-0.24851294,0.10611422,-0.16265912,0,0,0,0
1,269.23,26923,-0.32144231,-0.88626641,0.43439567,20.3335743,104.91103363,-142.12834167,0,0,0,101.1053009,-11.7026844,145.76403809,1,0,0,0,0.11114226,-0.07289073,-0.24529794,0,0,0,0
1,269.24,26924,0.29172373,-0.64423925,0.51247191,-7.34612703,134.09629822,-118.25907898,0,0,0,100.72606659,-10.79604721,147.33526611,1,0,0,0,-0.48445809,-0.31932077,-0.32704383,0,0,0,0
1,269.25,26925,0.87975115,-0.67748636,0.32372522,-9.93133354,103.20065308,-105.97479248,0,0,0,100.40442657,-9.94310379,148.56378174,1,0,0,0,-1.05820572,-0.29000184,-0.1445585,0,0,0,0
1,269.26,26926,0.60183543,-1.08025217,0.13351078,-3.29723668,31.68199348,-124.18830872,0,0,0,100.27643585,-8.73887253,149.0933075,1,0,0,0,-0.76210821,0.10921028,0.04355586,0,0,0,0
1,269.27,26927,0.49499577,-0.97857559,0.09905271,-31.3112793,-15.66224194,-108.19937134,0,0,0,99.95761871,-7.6463542,149.12915039,1,0,0,0,-0.63489485,0.00361037,0.07369457,0,0,0,0
1,269.28,26928,0.52169371,-1.06139672,-0.00127817,1.00649977,-70.8611908,-86.9517746,0,0,0,100.03546906,-6.66711044,148.57777405,1,0,0,0,-0.64412087,0.08397871,0.17344871,0,0,0,0
1,269.29,26929,0.50825477,-1.21119237,0.15083514,3.34558582,-108.36649323,-73.51073456,0,0,0,100.17063141,-5.75322485,147.63438416,1,0,0,0,-0.61428261,0.23231831,0.0239333,0,0,0,0
1,269.3,26930,0.23555298,-1.01951575,0.19293521,3.16069126,-115.1633606,-60.30674744,0,0,0,100.29825592,-4.95517921,146.60368347,1,0,0,0,-0.3269819,0.03959812,-0.01577052,0,0,0,0
1,269.31,26931,-0.03705911,-0.91322684,0.17434753,10.00215721,-95.37982941,-49.90273666,0,0,0,100.46871185,-4.29579592,145.75375366,1,0,0,0,-0.04192469,-0.06726502,0.00561608,0,0,0,0
1,269.32,26932,-0.10526473,-0.94336802,0.20568962,16.17460823,-55.96683121,-44.33388901,0,0,0,100.66373444,-3.75746727,145.28364563,1,0,0,0,0.03632626,-0.03726014,-0.0223639,0,0,0,0
1,269.33,26933,0.06249493,-1.00058556,0.23491856,19.2527504,-16.84850693,-44.69784164,0,0,0,100.8615036,-3.28697848,145.20141602,1,0,0,0,-0.12281383,0.02005053,-0.04808501,0,0,0,0
1,269.34,26934,0.14541833,-1.02118778,0.1609731,18.5545578,0.25605693,-44.17266083,0,0,0,101.04243469,-2.8537941,145.28800964,1,0,0,0,-0.19802305,0.04084642,0.02918155,0,0,0,0
1,269.35,26935,0.11739957,-0.94482332,0.21832858,16.79706573,6.24885368,-40.89565277,0,0,0,101.2039566,-2.46460319,145.42834473,1,0,0,0,-0.16287312,-0.03531124,-0.02528899,0,0,0,0
1,269.36,26936,0.13441615,-0.91476387,0.27481246,15.62864113,12.1791172,-36.99662018,0,0,0,101.37342834,-2.08048248,145.61262512,1,0,0,0,-0.1734315,-0.06508888,-0.0789496,0,0,0,0
1,269.37,26937,0.19807915,-0.92336136,0.37374231,10.29281998,9.23509979,-30.33384323,0,0,0,101.4712677,-1.80143702,145.76330566,1,0,0,0,-0.23124862,-0.05624206,-0.17556295,0,0,0,0
1,269.38,26938,0.25154966,-0.94372737,0.36306411,11.73350143,3.42118454,-24.06782722,0,0,0,101.58615112,-1.57242715,145.8449707,1,0,0,0,-0.28045049,-0.03564022,-0.16305828,0,0,0,0
1,269.39,26939,0.29258528,-0.99587965,0.35980335,11.4469471,-12.02235413,-17.61421013,0,0,0,101.7026825,-1.37561119,145.76274109,1,0,0,0,-0.31783909,0.01682851,-0.15776394,0,0,0,0
1,269.4,26940,0.26579159,-0.99100661,0.33523878,8.28998756,-27.49266052,-12.64820004,0,0,0,101.791008,-1.19578171,145.51927185,1,0,0,0,-0.28782302,0.01223302,-0.13148448,0,0,0,0
1,269.41,26941,0.2126085,-0.9498778,0.30890405,8.07671261,-39.039608,-7.98695326,0,0,0,101.90378571,-0.9853071,145.14546204,1,0,0,0,-0.23149577,-0.02863325,-0.10358005,0,0,0,0
1,269.42,26942,0.14204451,-0.9455322,0.27736798,9.15736294,-43.70979691,-5.08038282,0,0,0,102.00201416,-0.845079,144.72831726,1,0,0,0,-0.15768629,-0.03262152,-0.07007612,0,0,0,0
1,269.43,26943,0.07399149,-0.96065426,0.25516286,11.07559586,-42.06310654,-3.91200447,0,0,0,102.1182785,-0.7189495,144.3250885,1,0,0,0,-0.08734998,-0.01714198,-0.04603289,0,0,0,0
1,269.44,26944,0.04947434,-0.97258258,0.26704952,12.70518112,-33.60619736,-4.84719992,0,0,0,102.24901581,-0.60066491,144.00682068,1,0,0,0,-0.0607262,-0.00477429,-0.05575307,0,0,0,0
1,269.45,26945,0.03857199,-0.96276999,0.2880224,13.72694206,-25.56003952,-7.03973627,0,0,0,102.38852692,-0.47737101,143.77210999,1,0,0,0,-0.04773255,-0.01409975,-0.07438558,0,0,0,0
1,269.46,26946,0.0596114,-0.9478116,0.32215229,14.03081894,-17.74031639,-9.90862179,0,0,0,102.57384491,-0.31497759,143.62556458,1,0,0,0,-0.06635203,-0.02850631,-0.10591996,0,0,0,0
1,269.47,26947,0.08917772,-0.93568724,0.33612943,13.87713623,-13.36042595,-11.95500374,0,0,0,102.71305847,-0.16908675,143.5213623,1,0,0,0,-0.09310525,-0.03998792,-0.11694567,0,0,0,0
1,269.48,26948,0.1222421,-0.93441808,0.35092705,12.46074009,-13.77810478,-13.4475193,0,0,0,102.83781433,-0.00746711,143.41674805,1,0,0,0,-0.12344927,-0.04075897,-0.12950619,0,0,0,0
1,269.49,26949,0.12859924,-0.93448013,0.35326609,10.34808636,-18.26326752,-14.43699074,0,0,0,102.94107819,0.17401989,143.27095032,1,0,0,0,-0.12678002,-0.04025869,-0.12992844,0,0,0,0
1,269.5,26950,0.1328792,-0.94101053,0.34093314,6.63127041,-24.46083069,-15.26952553,0,0,0,103.0063858,0.37774649,143.06686401,1,0,0,0,-0.12762512,-0.03340879,-0.11625942,0,0,0,0
1,269.51,26951,0.11845028,-0.93765152,0.33197635,4.687603,-29.80477715,-16.02620125,0,0,0,103.07807159,0.62765586,142.81376648,1,0,0,0,-0.10933984,-0.03651223,-0.10632111,0,0,0,0
1,269.52,26952,0.08939084,-0.93789607,0.31911975,4.01323605,-33.42436218,-17.95053101,0,0,0,103.11449432,0.87823635,142.52886963,1,0,0,0,-0.07575753,-0.03598206,-0.09246179,0,0,0,0
1,269.53,26953,0.06815696,-0.94955677,0.31676897,3.68704009,-32.23293686,-20.92484856,0,0,0,103.14666748,1.15524113,142.26246643,1,0,0,0,-0.04984868,-0.02411868,-0.08957054,0,0,0,0
1,269.54,26954,0.04998747,-0.95172334,0.32931846,2.80099344,-26.99031067,-25.01699257,0,0,0,103.17003632,1.46028912,142.05654907,1,0,0,0,-0.02652723,-0.0217393,-0.1016831,0,0,0,0
1,269.55,26955,0.06193146,-0.95468801,0.33330992,3.01188159,-21.35507584,-28.31297684,0,0,0,103.19612885,1.78466415,141.91314697,1,0,0,0,-0.03293267,-0.01853311,-0.105281,0,0,0,0
1,269.56,26956,0.0925723,-0.95989966,0.31272706,2.48497558,-17.03318024,-31.14293671,0,0,0,103.23968506,2.14411473,141.82136536,1,0,0,0,-0.05764991,-0.01302367,-0.08425965,0,0,0,0
1,269.57,26957,0.11774005,-0.9583208,0.30821332,2.30956697,-15.14318371,-33.98836899,0,0,0,103.25995636,2.50965643,141.75183105,1,0,0,0,-0.07637504,-0.01421236,-0.07916097,0,0,0,0
1,269.58,26958,0.14170672,-0.94913954,0.30483064,2.10437059,-13.87457848,-36.12329865,0,0,0,103.27854919,2.89309263,141.699646,1,0,0,0,-0.09375746,-0.02303018,-0.07551973,0,0,0,0
1,269.59,26959,0.16706024,-0.94211555,0.29966509,1.10401952,-14.29405022,-37.90090942,0,0,0,103.28678131,3.29480743,141.64753723,1,0,0,0,-0.11222045,-0.02965626,-0.07021275,0,0,0,0
1,269.6,26960,0.1841944,-0.92707634,0.31893149,-0.51655,-15.00394821,-38.97439575,0,0,0,103.27816772,3.70860481,141.59095764,1,0,0,0,-0.12222338,-0.04430234,-0.08963037,0,0,0,0
1,269.61,26961,0.18173866,-0.93523997,0.32796186,-0.43088168,-15.51632977,-39.15647507,0,0,0,103.29730225,4.15439749,141.53231812,1,0,0,0,-0.11239625,-0.03567661,-0.09881609,0,0,0,0
1,269.62,26962,0.19022359,-0.95568401,0.32973307,-0.96289897,-14.89376545,-39.33510971,0,0,0,103.28352356,4.57145786,141.47764587,1,0,0,0,-0.11324349,-0.01465055,-0.10055891,0,0,0,0
1,269.63,26963,0.1878567,-0.97175997,0.33006293,-1.14175522,-15.38002491,-40.26610947,0,0,0,103.26732635,4.99867725,141.42022705,1,0,0,0,-0.1035229,0.00194326,-0.10128592,0,0,0,0
1,269.64,26964,0.19500349,-0.97474861,0.31876004,-0.95137018,-14.94760418,-41.06830215,0,0,0,103.25313568,5.43269205,141.36872864,1,0,0,0,-0.10316794,0.005519,-0.0903835,0,0,0,0
1,269.65,26965,0.19637528,-0.97043163,0.3215979,-1.36488843,-15.90483665,-42.64945221,0,0,0,103.23383331,5.88428068,141.31132507,1,0,0,0,-0.09682681,0.00185597,-0.09368037,0,0,0,0
1,269.66,26966,0.16707343,-0.97610545,0.32072726,-2.30700397,-17.52280045,-44.33691788,0,0,0,103.22280121,6.36386681,141.24804688,1,0,0,0,-0.05943149,0.00826977,-0.09334698,0,0,0,0
1,269.67,26967,0.16318445,-1.01506221,0.3274878,-3.63736725,-18.82373238,-46.64585495,0,0,0,103.1775589,6.86099339,141.17079163,1,0,0,0,-0.04698362,0.04806682,-0.10074735,0,0,0,0
1,269.68,26968,0.16346385,-1.04536808,0.29376295,-6.07615137,-19.85113907,-49.63797379,0,0,0,103.10675049,7.38951397,141.08973694,1,0,0,0,-0.03835099,0.07918687,-0.06829937,0,0,0,0
1,269.69,26969,0.14073487,-1.04563534,0.29206774,-8.49285698,-20.00848198,-54.42251587,0,0,0,103.012146,7.96488094,141.01716614,1,0,0,0,-0.00598085,0.08035037,-0.06833116,0,0,0,0
1,269.7,26970,0.13060239,-1.04790211,0.28554666,-11.71535301,-18.37577629,-59.59607315,0,0,0,102.88838196,8.58686829,140.97117615,1,0,0,0,0.01464714,0.08362761,-0.06403475,0,0,0,0
1,269.71,26971,0.13147262,-1.02835488,0.28158277,-14.59610176,-16.49369431,-64.33340454,0,0,0,102.74842072,9.24511909,140.95880127,1,0,0,0,0.02492057,0.06520727,-0.06277463,0,0,0,0
1,269.72,26972,0.13863204,-0.99856567,0.34742185,-17.51715851,-12.15979958,-69.7587738,0,0,0,102.57909393,9.95240211,140.99360657,1,0,0,0,0.02956691,0.03672677,-0.13163874,0,0,0,0
1,269.73,26973,0.1248368,-0.98641413,0.43759868,-21.38733482,-7.55722809,-75.48436737,0,0,0,102.38157654,10.70576096,141.0844574,1,0,0,0,0.0560299,0.02607045,-0.22543751,0,0,0,0
1,269.74,26974,0.15915656,-1.00105774,0.51994163,-25.80180359,-4.59601974,-80.61017609,0,0,0,102.14835358,11.50321388,141.21322632,1,0,0,0,0.03507363,0.04240787,-0.31197971,0,0,0,0
1,269.75,26975,0.21694711,-1.06803834,0.5315693,-31.78423119,-8.18828011,-85.47906494,0,0,0,101.85105133,12.35630894,141.31304932,1,0,0,0,-0.00849915,0.11127898,-0.32873654,0,0,0,0
1,269.76,26976,0.27220181,-1.1504252,0.4863683,-40.78773499,-19.17877197,-89.57574463,0,0,0,101.45313263,13.27182579,141.31246948,1,0,0,0,-0.04854849,0.19569717,-0.29028222,0,0,0,0
1,269.77,26977,0.28323567,-1.26595128,0.40817991,-45.66361618,-32.40800858,-92.734375,0,0,0,100.96260071,14.24438477,141.17077637,1,0,0,0,-0.0434425,0.31347743,-0.22039127,0,0,0,0
1,269.78,26978,0.24063523,-1.37287426,0.3493222,-49.49179459,-46.62705231,-95.37502289,0,0,0,100.39343262,15.26796722,140.87971497,1,0,0,0,0.01618162,0.42295754,-0.17135951,0,0,0,0
1,269.79,26979,0.18485838,-1.43955457,0.34512857,-51.91858673,-49.82675934,-98.34041595,0,0,0,99.78421783,16.32346535,140.54891968,1,0,0,0,0.08950698,0.49259973,-0.17790051,0,0,0,0
1,269.8,26980,0.11817482,-1.44478714,0.31206006,-53.6552887,-48.69158173,-103.08303833,0,0,0,99.1534729,17.42037582,140.22421265,1,0,0,0,0.17427906,0.50134254,-0.15603088,0,0,0,0
1,269.81,26981,0.08019471,-1.45740736,0.23830143,-52.04962921,-48.86304474,-108.98442841,0,0,0,98.52975464,18.56100273,139.89529419,1,0,0,0,0.23103002,0.5181855,-0.0935193,0,0,0,0
1,269.82,26982,0.0696255,-1.53714883,0.16107574,-51.83450317,-52.78190231,-115.00048065,0,0,0,97.88681793,19.77456093,139.51603699,1,0,0,0,0.26111785,0.60294104,-0.02758384,0,0,0,0
1,269.83,26983,0.02709992,-1.61182785,0.19657366,-53.71889496,-57.84078598,-121.21426392,0,0,0,97.19535828,21.05209923,139.07391357,1,0,0,0,0.32420996,0.68351603,-0.07504593,0,0,0,0
1,269.84,26984,-0.01342245,-1.65892351,0.29280773,-53.29920959,-62.39987946,-126.59288788,0,0,0,96.4754715,22.38324547,138.56913757,1,0,0,0,0.38608754,0.73741388,-0.1837769,0,0,0,0
1,269.85,26985,-0.04415289,-1.70004213,0.35845006,-50.70954514,-71.12277222,-129.57978821,0,0,0,95.72568512,23.74723053,137.95010376,1,0,0,0,0.43863752,0.78622013,-0.26224637,0,0,0,0
1,269.86,26986,-0.14408889,-1.76664531,0.35549629,-44.42792892,-93.0535965,-130.30018616,0,0,0,94.91757965,25.11937523,137.06994629,1,0,0,0,0.56047213,0.8612709,-0.27264601,0,0,0,0
1,269.87,26987,-0.28872445,-1.80246806,0.41400576,-40.84932709,-116.63600922,-130.67453003,0,0,0,93.99520874,26.51264763,135.89091492,1,0,0,0,0.72694117,0.90622044,-0.34586245,0,0,0,0
1,269.88,26988,-0.2483561,-1.75691712,0.3607738,-40.3249054,-133.61320496,-131.89604187,0,0,0,92.94699097,27.91014862,134.48117065,1,0,0,0,0.70831251,0.87053573,-0.30880982,0,0,0,0
1,269.89,26989,-0.2498619,-1.59933281,0.39086956,-50.20975494,-135.97067261,-140.5874176,0,0,0,91.73478699,29.3707943,132.99885559,1,0,0,0,0.73183382,0.72383642,-0.35725158,0,0,0,0
1,269.9,26990,-0.12443871,-1.3605628,0.45851746,-58.31459808,-102.57932281,-152.08148193,0,0,0,90.57501221,30.91244698,131.84838867,1,0,0,0,0.62939954,0.49759692,-0.44353786,0,0,0,0
1,269.91,26991,0.30570132,-1.22769439,0.41477457,-52.54037476,-57.90788269,-161.12754822,0,0,0,89.71005249,32.51677322,131.1865387,1,0,0,0,0.2228824,0.37885651,-0.41468456,0,0,0,0
1,269.92,26992,0.59978485,-1.32275128,0.27688032,-51.36948395,-32.65365982,-167.94880676,0,0,0,88.96897888,34.19249344,130.77272034,1,0,0,0,-0.04697083,0.48956299,-0.28773791,0,0,0,0
1,269.93,26993,0.62206084,-1.35528839,0.32767069,-63.19152069,-29.59462166,-171.74032593,0,0,0,88.09885406,35.90180588,130.35798645,1,0,0,0,-0.0447609,0.53911042,-0.34995094,0,0,0,0
1,269.94,26994,0.5442605,-1.28392971,0.37410522,-67.84455872,-33.16394424,-160.71850586,0,0,0,87.12321472,37.4936676,129.86117554,1,0,0,0,0.05625308,0.48512724,-0.40909368,0,0,0,0
1,269.95,26995,0.45693213,-1.26114023,0.50340527,-58.32997131,-33.27153015,-149.28678894,0,0,0,86.20976257,38.96463776,129.3276825,1,0,0,0,0.16448224,0.47912109,-0.5506041,0,0,0,0
1,269.96,26996,0.51006669,-1.12937033,0.53444362,-51.1125946,-34.83746338,-138.59661865,0,0,0,85.3603363,40.31028366,128.77766418,1,0,0,0,0.1302705,0.36350334,-0.59244245,0,0,0,0
1,269.97,26997,0.33772257,-0.86991775,0.60094589,-42.17453003,-63.2259903,-125.12885284,0,0,0,84.29441833,41.49922562,127.79541016,1,0,0,0,0.31933141,0.11930227,-0.67028451,0,0,0,0
1,269.98,26998,-0.15613341,-0.47321865,0.64706022,-41.20977402,-88.58226776,-86.6089859,0,0,0,83.00662231,42.26204681,126.48460388,1,0,0,0,0.82543707,-0.26495552,-0.73130864,0,0,0,0
1,269.99,26999,-0.31201914,-0.06265734,0.32157376,-21.72961235,-91.86844635,-42.94577789,0,0,0,81.90516663,42.56670761,125.17458344,1,0,0,0,0.98740458,-0.66814184,-0.42042094,0,0,0,0
1,270,27000,-0.20896161,-0.17363782,0.23192494,13.30307484,-98.7108078,-19.9888649,0,0,0,81.11336517,42.61833191,123.8082962,1,0,0,0,0.88593543,-0.55407774,-0.34205806,0,0,0,0
1,270.01,27001,-0.29347882,-0.39007306,0.35920194,17.37471962,-101.16783142,-11.38808632,0,0,0,80.43044281,42.50487518,122.50788879,1,0,0,0,0.97009635,-0.33649141,-0.47872701,0,0,0,0
1,270.02,27002,-0.51310593,-0.2851882,0.33157325,14.79820824,-84.90365601,11.84658051,0,0,0,79.83341217,42.24245834,121.40309143,1,0,0,0,1.18695664,-0.44252595,-0.45944467,0,0,0,0
1,270.03,27003,-0.52030569,-0.2212089,0.20818199,31.81945038,-72.59461212,50.57899094,0,0,0,79.59087372,41.61502075,120.56439972,1,0,0,0,1.18779361,-0.51133138,-0.34172383,0,0,0,0
1,270.04,27004,-0.36216432,-0.24832949,0.11816861,39.58978271,-77.74905396,74.39694977,0,0,0,79.43629456,40.74193573,119.72851562,1,0,0,0,1.01931739,-0.492771,-0.2556473,0,0,0,0
1,270.05,27005,-0.19374566,-0.3143343,0.05525058,44.78846359,-82.45080566,88.22472382,0,0,0,79.33596802,39.72286224,118.87988281,1,0,0,0,0.83805174,-0.4372896,-0.19633773,0,0,0,0
1,270.06,27006,-0.13625118,-0.38039547,0.06767786,48.61442947,-81.9610672,100.53807068,0,0,0,79.33349609,38.55445862,118.09939575,1,0,0,0,0.76574844,-0.38312566,-0.21167386,0,0,0,0
1,270.07,27007,-0.17300609,-0.38481507,0.0541171,51.65566254,-72.40648651,115.71526337,0,0,0,79.46107483,37.28367233,117.46707916,1,0,0,0,0.78550225,-0.39214289,-0.19953001,0,0,0,0
1,270.08,27008,-0.24788705,-0.38170794,0.01457332,55.45343018,-55.12732697,132.6541748,0,0,0,79.78995514,35.8793602,117.08926392,1,0,0,0,0.84151709,-0.40990609,-0.15914381,0,0,0,0
1,270.09,27009,-0.26782736,-0.4316102,-0.01960235,60.54599762,-32.10580826,148.50749207,0,0,0,80.35258484,34.36094666,117.0157547,1,0,0,0,0.84051597,-0.37597477,-0.12101315,0,0,0,0
1,270.1,27010,-0.24191701,-0.52434182,-0.03677536,66.35903931,-10.20499325,162.55387878,0,0,0,81.12247467,32.73999405,117.20886993,1,0,0,0,0.79172128,-0.30021363,-0.0964526,0,0,0,0
1,270.11,27011,-0.20626068,-0.57253027,-0.01463509,70.83917999,13.8273201,174.89175415,0,0,0,82.08071899,30.9994278,117.68049622,1,0,0,0,0.73131645,-0.26956773,-0.10823163,0,0,0,0
1,270.12,27012,-0.13868463,-0.60388362,0.01038554,76.86399841,42.018013,189.11470032,0,0,0,83.23049164,29.17730713,118.44152069,1,0,0,0,0.63668209,-0.25637847,-0.11921142,0,0,0,0
1,270.13,27013,-0.08126644,-0.63792765,0.0540636,81.65087128,63.2202301,202.06295776,0,0,0,84.49964905,27.23561478,119.39976501,1,0,0,0,0.55031925,-0.24036431,-0.14610088,0,0,0,0
1,270.14,27014,-0.06175882,-0.68557286,0.07201157,86.99318695,79.74156952,215.77166748,0,0,0,85.84963989,25.15247536,120.48750305,1,0,0,0,0.49924573,-0.21060246,-0.14504859,0,0,0,0
1,270.15,27015,-0.06935503,-0.76370567,0.08565462,91.3261261,91.31243134,229.60939026,0,0,0,87.23116302,22.91554451,121.63700867,1,0,0,0,0.47233602,-0.14991173,-0.13809772,0,0,0,0
1,270.16,27016,-0.05417461,-0.8741194,0.09004952,93.93569946,101.28151703,242.80187988,0,0,0,88.61335754,20.51232529,122.82665253,1,0,0,0,0.41951549,-0.05614534,-0.12094121,0,0,0,0
1,270.17,27017,-0.02414118,-1.00446224,0.10897216,94.5098877,108.19333649,253.91827393,0,0,0,89.94756317,17.98683929,124.006073,1,0,0,0,0.34875548,0.05876003,-0.11799283,0,0,0,0
1,270.18,27018,0.00924416,-1.13166368,0.12494187,93.83932495,109.99131775,262.52227783,0,0,0,91.20773315,15.35063648,125.12622833,1,0,0,0,0.27218992,0.17226899,-0.11247373,0,0,0,0
1,270.19,27019,0.04413541,-1.26145113,0.14197603,91.03865814,102.98721313,271.01358032,0,0,0,92.35400391,12.60986423,126.09986877,1,0,0,0,0.19175765,0.29033324,-0.10918081,0,0,0,0
1,270.2,27020,0.08360981,-1.36248064,0.1114378,88.27110291,98.35150146,278.48242188,0,0,0,93.40378571,9.77917004,126.95831299,1,0,0,0,0.10457935,0.38182005,-0.0597435,0,0,0,0
1,270.21,27021,0.14786732,-1.46057606,0.07354172,87.70717621,99.93201447,284.37017822,0,0,0,94.39761353,6.87387991,127.76986694,1,0,0,0,-0.00926924,0.47278827,-0.00396348,0,0,0,0
1,270.22,27022,0.20279668,-1.55342484,0.05562282,89.78993988,97.93742371,287.19104004,0,0,0,95.36528015,3.92922354,128.50454712,1,0,0,0,-0.11503484,0.56119579,0.0312699,0,0,0,0
1,270.23,27023,0.2722235,-1.65574205,0.08759253,89.34633636,80.68326569,287.51800537,0,0,0,96.28179169,0.98734111,129.01580811,1,0,0,0,-0.23575789,0.6618908,0.01587027,0,0,0,0
1,270.24,27024,0.34356061,-1.79400444,0.10386048,84.57997894,59.1521492,289.14245605,0,0,0,97.12638855,-1.95311117,129.26545715,1,0,0,0,-0.35839385,0.80128986,0.01477805,0,0,0,0
1,270.25,27025,0.41316006,-1.93390906,0.19863085,78.83760071,50.13127899,292.92120361,0,0,0,97.90814972,-4.9226613,129.37931824,1,0,0,0,-0.47955084,0.94503129,-0.06638779,0,0,0,0
1,270.26,27026,0.48192799,-2.02414131,0.38004416,78.37774658,57.16853714,292.48480225,0,0,0,98.67617035,-7.89460278,129.52305603,1,0,0,0,-0.60000634,1.04187036,-0.23520765,0,0,0,0
1,270.27,27027,0.60844928,-1.97475588,0.47416994,78.11167908,75.75115204,287.59738159,0,0,0,99.40773773,-10.85404968,129.82305908,1,0,0,0,-0.77777308,1.0018158,-0.31765342,0,0,0,0
1,270.28,27028,0.71647972,-1.78744507,0.47314781,80.56786346,97.47356415,274.2265625,0,0,0,100.10379028,-13.72211647,130.33126831,1,0,0,0,-0.93558621,0.82620162,-0.30641711,0,0,0,0
1,270.29,27029,0.85746735,-1.76160944,0.41373429,96.10188293,124.09809113,252.02140808,0,0,0,100.8583374,-16.42621422,131.12095642,1,0,0,0,-1.12348413,0.81409878,-0.2368857,0,0,0,0
1,270.3,27030,1.10052538,-1.80526674,0.27800807,102.85669708,138.68873596,225.47703552,0,0,0,101.59282684,-18.90794945,132.08827209,1,0,0,0,-1.40946484,0.87277043,-0.09131939,0,0,0,0
1,270.31,27031,1.39884996,-1.8379519,0.1793355,102.40539551,126.67198944,199.07466125,0,0,0,102.31467438,-21.10877228,132.96594238,1,0,0,0,-1.74589014,0.92080104,0.01630388,0,0,0,0
1,270.32,27032,1.67687631,-1.79377151,0.07891256,94.68624115,101.18106079,179.0770874,0,0,0,103.02094269,-23.07758331,133.60733032,1,0,0,0,-2.05727601,0.89184576,0.12535957,0,0,0,0
1,270.33,27033,1.84137297,-1.49485207,0.04118614,65.83718872,67.93544769,158.94921875,0,0,0,103.54876709,-24.78054428,133.93045044,1,0,0,0,-2.25071788,0.60723346,0.16976133,0,0,0,0
1,270.34,27034,1.90698099,-1.16851461,0.04376945,41.07228851,33.22066498,131.73687744,0,0,0,103.95544434,-26.13898277,133.94094849,1,0,0,0,-2.34002805,0.29320484,0.17130977,0,0,0,0
1,270.35,27035,1.91134405,-1.05843282,0.15455653,26.12145615,8.43653679,91.44960785,0,0,0,104.28757477,-27.04636574,133.78291321,1,0,0,0,-2.36133647,0.19259274,0.0640959,0,0,0,0
1,270.36,27036,1.81380713,-1.00457454,0.19592391,9.46765804,1.79475605,37.3802681,0,0,0,104.41999817,-27.38811493,133.68989563,1,0,0,0,-2.27267146,0.14393628,0.02485521,0,0,0,0
1,270.37,27037,1.71667898,-0.95473582,0.14856318,1.0537436,4.97000122,-18.51161003,0,0,0,104.38188171,-27.22118378,133.79589844,1,0,0,0,-2.17564011,0.09421389,0.0724695,0,0,0,0
1,270.38,27038,1.490821,-1.17432809,0.17877913,4.83535576,8.81918716,-61.5254364,0,0,0,104.30942535,-26.64691353,134.06259155,1,0,0,0,-1.94298041,0.3101334,0.04192548,0,0,0,0
1,270.39,27039,1.33211279,-1.07528222,0.06828047,-17.48396301,22.24221992,-95.19985962,0,0,0,103.91402435,-25.77801132,134.56208801,1,0,0,0,-1.77255964,0.20455439,0.15038656,0,0,0,0
1,270.4,27040,0.90825576,-1.15113103,-0.03600081,-29.07142067,31.86718941,-127.38799286,0,0,0,103.33625031,-24.61510468,135.23606873,1,0,0,0,-1.33204806,0.27065551,0.24841982,0,0,0,0
1,270.41,27041,-0.83863568,-1.44350231,0.2286845,-56.71420288,6.14338779,-148.59689331,0,0,0,102.59422302,-23.18602753,135.66775513,1,0,0,0,0.43616855,0.55112016,-0.0246922,0,0,0,0
1,270.42,27042,-2.82920337,-1.73328781,0.65876728,-68.11598969,14.28699875,-127.27484894,0,0,0,101.74447632,-21.97151375,136.11070251,1,0,0,0,2.44865847,0.82909441,-0.46493033,0,0,0,0
1,270.43,27043,-0.86935055,-1.18681228,-0.01344632,-84.00154877,126.77358246,-42.52829742,0,0,0,100.37322998,-21.79626274,137.54048157,1,0,0,0,0.49805325,0.27503639,0.18883824,0,0,0,0
1,270.44,27044,1.69240808,-1.52224469,-0.5169791,-39.76853943,119.68000031,-71.55445099,0,0,0,99.45961761,-21.29711914,138.93965149,1,0,0,0,-2.0597353,0.60558254,0.67438936,0,0,0,0
1,270.45,27045,0.85065776,-1.97409284,0.07980224,-7.01606274,-86.38832092,-166.36030579,0,0,0,99.60393524,-19.51286316,138.32637024,1,0,0,0,-1.19633675,1.04894757,0.07682077,0,0,0,0
1,270.46,27046,0.00788421,-1.30653465,0.41372132,-43.57258224,-25.74233627,-157.32327271,0,0,0,99.17014313,-17.90274048,138.32476807,1,0,0,0,-0.32442489,0.37058353,-0.25964856,0,0,0,0
1,270.47,27047,-0.05392884,-0.77678597,-0.04532601,-19.16210747,11.23672676,-132.51226807,0,0,0,98.87943268,-16.61156654,138.65815735,1,0,0,0,-0.2398988,-0.16737741,0.1942565,0,0,0,0
1,270.48,27048,0.01933139,-0.86786014,0.18148974,-3.54264188,15.57839394,-124.655159,0,0,0,98.74546814,-15.40355682,139.01687622,1,0,0,0,-0.29246196,-0.08278759,-0.03440514,0,0,0,0
1,270.49,27049,-0.08735314,-0.72956765,0.54096371,2.23390365,49.23855209,-117.83683777,0,0,0,98.59226227,-14.31275463,139.70402527,1,0,0,0,-0.16651985,-0.22666329,-0.39555639,0,0,0,0
1,270.5,27050,-0.08539654,-0.60018587,0.60173893,17.7973175,84.66156769,-104.69532776,0,0,0,98.52587128,-13.40333176,140.72659302,1,0,0,0,-0.15200797,-0.36043274,-0.45740587,0,0,0,0
1,270.51,27051,0.29019099,-0.71208125,0.41677678,14.27825451,103.55164337,-99.59979248,0,0,0,98.41472626,-12.52208614,141.91268921,1,0,0,0,-0.51291645,-0.25217664,-0.27331588,0,0,0,0
1,270.52,27052,0.70883864,-0.97745478,0.09483837,-4.19933701,98.9213562,-98.23828125,0,0,0,98.13217926,-11.6924963,143.05860901,1,0,0,0,-0.91682011,0.00944264,0.04543951,0,0,0,0
1,270.53,27053,0.7314015,-1.32570028,-0.1051981,-14.79680252,68.70642853,-100.21469116,0,0,0,97.8205719,-10.79563332,143.89428711,1,0,0,0,-0.92458844,0.35395762,0.24074528,0,0,0,0
1,270.54,27054,0.29260683,-1.2711221,0.18961027,-20.15087891,30.77860641,-94.33161163,0,0,0,97.54024506,-9.90188122,144.33236694,1,0,0,0,-0.47009256,0.29572433,-0.05892586,0,0,0,0
1,270.55,27055,0.31678209,-1.08101022,-0.01047793,-4.15682697,22.19118309,-72.78967285,0,0,0,97.44548798,-9.20910931,144.6516571,1,0,0,0,-0.48105696,0.10297123,0.13870791,0,0,0,0
1,270.56,27056,0.55495435,-1.08304572,0.01777811,0.10886294,-29.70398712,-58.78940582,0,0,0,97.47458649,-8.52135754,144.40769958,1,0,0,0,-0.70806718,0.10319869,0.11045654,0,0,0,0
1,270.57,27057,0.32746032,-0.97916186,0.15689689,-0.08399057,-74.37833405,-60.10118866,0,0,0,97.56815338,-7.82814503,143.74224854,1,0,0,0,-0.468209,-0.00233637,-0.0271308,0,0,0,0
1,270.58,27058,0.17093664,-0.85267651,0.18007098,6.85060596,-84.27439117,-52.93558884,0,0,0,97.73737335,-7.19140387,142.97076416,1,0,0,0,-0.30007899,-0.13008559,-0.04781748,0,0,0,0
1,270.59,27059,0.16912292,-0.92272997,0.13628922,17.69309807,-82.01136017,-42.31463623,0,0,0,98.00589752,-6.65997076,142.21075439,1,0,0,0,-0.28848159,-0.06068994,0.00020394,0,0,0,0
1,270.6,27060,0.11235631,-0.99201775,0.11376499,20.6394577,-77.21650696,-36.48445129,0,0,0,98.29257965,-6.18942928,141.49354553,1,0,0,0,-0.22315547,0.00829892,0.02770483,0,0,0,0
1,270.61,27061,-0.00997137,-0.98751873,0.18506493,26.35379028,-55.55500793,-34.44410706,0,0,0,98.61611176,-5.75717068,140.99040222,1,0,0,0,-0.093169,0.00375532,-0.03821579,0,0,0,0
1,270.62,27062,-0.01923428,-0.98438144,0.27472353,32.07650375,-17.02697182,-32.88748932,0,0,0,98.94852448,-5.4062748,140.87174988,1,0,0,0,-0.07719602,0.00082949,-0.12201008,0,0,0,0
1,270.63,27063,0.06176743,-0.96949077,0.27694726,29.78251648,4.76880407,-31.0800209,0,0,0,99.23756409,-5.10697412,140.96835327,1,0,0,0,-0.15266839,-0.0137454,-0.11889789,0,0,0,0
1,270.64,27064,0.12618139,-0.93156582,0.29016981,27.75776482,12.29123878,-28.37667847,0,0,0,99.50058746,-4.84701443,141.13644409,1,0,0,0,-0.21233734,-0.0513279,-0.12740014,0,0,0,0
1,270.65,27065,0.15882087,-0.94043237,0.30458921,26.4452076,13.02743435,-24.88710213,0,0,0,99.7509613,-4.62343216,141.30705261,1,0,0,0,-0.24081232,-0.04207437,-0.13739048,0,0,0,0
1,270.66,27066,0.1817245,-0.98023272,0.293749,24.10342598,9.82382965,-19.41897202,0,0,0,100.01776886,-4.36978388,141.42102051,1,0,0,0,-0.26003295,-0.00183254,-0.1222496,0,0,0,0
1,270.67,27067,0.20234536,-1.00837731,0.30252567,21.67709351,5.2221117,-14.35127354,0,0,0,100.22875977,-4.23767424,141.49783325,1,0,0,0,-0.27703989,0.02678268,-0.12676607,0,0,0,0
1,270.68,27068,0.19181456,-1.01292741,0.28784648,19.46290207,-4.63239431,-9.24310303,0,0,0,100.42549133,-4.13839674,141.46875,1,0,0,0,-0.264584,0.03181443,-0.1086239,0,0,0,0
1,270.69,27069,0.1827924,-1.00122404,0.27176449,18.54783058,-18.16815186,-5.17418528,0,0,0,100.62306976,-4.05430269,141.29914856,1,0,0,0,-0.25404418,0.0206241,-0.08915587,0,0,0,0
1,270.7,27070,0.15609604,-0.99081111,0.25288928,18.21453667,-30.66875076,-2.86759853,0,0,0,100.82596588,-3.96901608,141.00242615,1,0,0,0,-0.22586934,0.01075152,-0.06684126,0,0,0,0
1,270.71,27071,0.0932207,-0.97940159,0.27386907,18.69997978,-39.63053131,-1.38677084,0,0,0,101.06352997,-3.844419,140.61010742,1,0,0,0,-0.16133089,-6.072e-05,-0.08409862,0,0,0,0
1,270.72,27072,0.03867485,-0.96487409,0.29895014,18.06843948,-38.54110718,-2.04866457,0,0,0,101.26905823,-3.74969196,140.23513794,1,0,0,0,-0.10470103,-0.01396659,-0.10527479,0,0,0,0
1,270.73,27073,0.00535934,-0.94935769,0.32024336,17.69816589,-32.19726944,-3.50926828,0,0,0,101.46604156,-3.65184045,139.92575073,1,0,0,0,-0.06970406,-0.02890424,-0.12310811,0,0,0,0
