SensorId,TimeStamp (s),FrameNumber,AccX (g),AccY (g),AccZ (g),GyroX (deg/s),GyroY (deg/s),GyroZ (deg/s),MagX (uT),MagY (uT),MagZ (uT),EulerX (deg),EulerY (deg),EulerZ (deg),QuatW,QuatX,QuatY,QuatZ,LinAccX (g),LinAccY (g),LinAccZ (g),Pressure (kPa),Altitude (m),Temperature (degC),HeaveMotion (m)
1,230.99,23099,0.17901154,-1.47234392,0.42107931,-117.42498779,61.6764679,298.3364563,0,0,0,99.14100647,2.63995147,3.8290689,1,0,0,0,-0.11301844,0.48856729,-0.25502408,0,0,0,0
1,231,23100,0.27638951,-1.55404294,0.48179162,-117.28524017,55.82394028,302.64050293,0,0,0,97.97011566,-0.43581733,3.93099594,1,0,0,0,-0.26384014,0.56499624,-0.33560467,0,0,0,0
1,231.01,23101,0.40078619,-1.62032402,0.54095894,-113.61232758,48.81076813,304.47283936,0,0,0,96.83087158,-3.51806712,4.02307129,1,0,0,0,-0.4420045,0.62930155,-0.41478884,0,0,0,0
1,231.02,23102,0.54210538,-1.72357094,0.60190749,-108.26721191,39.87121201,303.58450317,0,0,0,95.74268341,-6.57934761,4.08741093,1,0,0,0,-0.63679528,0.73391104,-0.4953382,0,0,0,0
1,231.03,23103,0.7200197,-1.86049628,0.61579508,-102.19732666,28.55487823,295.72970581,0,0,0,94.72099304,-9.54580212,4.10181093,1,0,0,0,-0.86689121,0.875368,-0.52793199,0,0,0,0
1,231.04,23104,0.8078292,-1.94225895,0.63461524,-94.1353302,14.04752922,278.6083374,0,0,0,93.79281616,-12.33470821,4.0338459,1,0,0,0,-1.00393367,0.96432781,-0.56394249,0,0,0,0
1,231.05,23105,0.8681767,-1.91563356,0.63694137,-86.12779999,5.7330308,253.24850464,0,0,0,92.9537735,-14.86617947,3.93941665,1,0,0,0,-1.10904694,0.9467324,-0.58172882,0,0,0,0
1,231.06,23106,0.92466611,-1.80111861,0.65018034,-77.52188873,1.79069638,223.83808899,0,0,0,92.20220184,-17.10306549,3.85323119,1,0,0,0,-1.20508695,0.84220648,-0.60865897,0,0,0,0
1,231.07,23107,0.97038585,-1.59733915,0.7061528,-67.81453705,2.88472462,194.14111328,0,0,0,91.5351181,-19.04432678,3.81704092,1,0,0,0,-1.28501689,0.64863199,-0.67671245,0,0,0,0
1,231.08,23108,1.05210173,-1.36733186,0.77917212,-53.84808731,8.12202549,166.89070129,0,0,0,90.98784637,-20.70112801,3.86098862,1,0,0,0,-1.39584255,0.42850336,-0.75981498,0,0,0,0
1,231.09,23109,1.15327024,-1.16145098,0.81870878,-37.28434753,11.37673187,138.41271973,0,0,0,90.57770538,-22.08664894,3.96304607,1,0,0,0,-1.52123821,0.2317107,-0.80704427,0,0,0,0
1,231.1,23110,1.24611676,-1.06112838,0.77626437,-17.71850586,8.4096632,105.95731354,0,0,0,90.3690567,-23.14686584,4.04486704,1,0,0,0,-1.63320351,0.13912511,-0.76930928,0,0,0,0
1,231.11,23111,1.32139015,-1.02459288,0.64920193,-0.16693571,0.81454819,71.09211731,0,0,0,90.36585999,-23.85782433,4.04895353,1,0,0,0,-1.72214961,0.10843247,-0.64359736,0,0,0,0
1,231.12,23112,1.28958344,-1.01772702,0.54964727,14.63267422,-12.29523087,32.36327362,0,0,0,90.5682373,-24.18044281,3.9116528,1,0,0,0,-1.69783521,0.10489005,-0.54213071,0,0,0,0
1,231.13,23113,1.18378472,-1.02657998,0.49082515,25.34296227,-16.70270348,-5.21547079,0,0,0,90.90882874,-24.09101295,3.72251701,1,0,0,0,-1.59315956,0.11429788,-0.47855067,0,0,0,0
1,231.14,23114,1.10016763,-1.04402077,0.47342336,32.68981934,-9.39936256,-40.3225975,0,0,0,91.27401733,-23.68612862,3.62826443,1,0,0,0,-1.50474119,0.1296995,-0.45528311,0,0,0,0
1,231.15,23115,1.03121114,-1.02325988,0.45240152,39.17131042,3.35507107,-71.85503387,0,0,0,91.64347076,-22.96874619,3.68480587,1,0,0,0,-1.42611933,0.10486506,-0.42827642,0,0,0,0
1,231.16,23116,0.5626958,-1.35546637,0.40053302,50.57870865,13.8055439,-95.70529938,0,0,0,92.07931519,-22.01660538,3.86751747,1,0,0,0,-0.94348311,0.43132427,-0.36994627,0,0,0,0
1,231.17,23117,0.42587098,-0.99468583,0.03711092,51.36658096,38.74630356,-107.46031189,0,0,0,92.42380524,-20.95821571,4.32936621,1,0,0,0,-0.79062063,0.06434932,0.00030991,0,0,0,0
1,231.18,23118,-1.79647338,-1.40958786,-0.36738724,29.59351349,33.40988541,-109.6541214,0,0,0,92.5759964,-19.8805275,4.73778105,1,0,0,0,1.45039535,0.47232366,0.4091118,0,0,0,0
1,231.19,23119,-1.64195979,-1.18638277,-0.74162936,30.62870789,55.86685944,-80.86090851,0,0,0,92.67210388,-19.09819603,5.36868906,1,0,0,0,1.30997121,0.24409223,0.78472823,0,0,0,0
1,231.2,23120,0.0026884,-1.32094991,-0.39833066,49.7954483,87.26057434,-95.0222168,0,0,0,92.86056519,-18.19150162,6.33719778,1,0,0,0,-0.32085469,0.37406036,0.44468573,0,0,0,0
1,231.21,23121,0.8831085,-1.70756841,-0.15139543,47.81011963,89.43700409,-129.51559448,0,0,0,93.03370667,-16.94365692,7.3439765,1,0,0,0,-1.18274665,0.75480211,0.20051692,0,0,0,0
1,231.22,23122,0.69724703,-1.69151318,0.13004163,54.82324982,39.85713577,-141.77037048,0,0,0,93.44158936,-15.55027008,7.84175587,1,0,0,0,-0.974154,0.73220766,-0.0752266,0,0,0,0
1,231.23,23123,0.23618056,-1.38315046,0.26065242,61.68823242,-0.55699265,-141.63088989,0,0,0,94.03967285,-14.12468433,7.92983007,1,0,0,0,-0.48933867,0.41789258,-0.19637744,0,0,0,0
1,231.24,23124,-0.15877086,-1.0222199,0.24253003,60.54167175,-9.54558086,-141.09288025,0,0,0,94.64258575,-12.71067905,7.94168901,1,0,0,0,-0.07020997,0.05170885,-0.16755936,0,0,0,0
1,231.25,23125,-0.22263685,-0.66769075,0.56863445,67.23246002,13.92475891,-131.67599487,0,0,0,95.26166534,-11.41108513,8.19937229,1,0,0,0,0.01668211,-0.30708754,-0.48294902,0,0,0,0
1,231.26,23126,0.17866495,-0.78198433,0.77985209,89.40985107,46.41139603,-118.965065,0,0,0,96.04545593,-10.2732172,8.78863239,1,0,0,0,-0.36414355,-0.1957003,-0.6814338,0,0,0,0
1,231.27,23127,0.42043033,-1.25616562,0.01289817,74.70562744,35.00175095,-109.17256165,0,0,0,96.71121216,-9.22694302,9.26517677,1,0,0,0,-0.58753854,0.27655178,0.09844141,0,0,0,0
1,231.28,23128,0.30160472,-1.07376313,0.21933207,55.20623398,2.38002872,-111.15589142,0,0,0,97.25141907,-8.10296154,9.42248726,1,0,0,0,-0.45000398,0.0923152,-0.0980886,0,0,0,0
1,231.29,23129,0.09243089,-1.1057291,0.35215065,57.05974579,-15.5779562,-103.16568756,0,0,0,97.8242569,-7.05961704,9.40328217,1,0,0,0,-0.22198226,0.12291725,-0.22075783,0,0,0,0
1,231.3,23130,0.33725718,-1.10946155,0.10180575,47.1909256,-32.24480438,-90.25701904,0,0,0,98.3181839,-6.1205821,9.20954037,1,0,0,0,-0.44989392,0.12584549,0.03886016,0,0,0,0
1,231.31,23131,0.08637703,-1.06729794,0.22669885,41.96041107,-45.258564,-86.12913513,0,0,0,98.76934052,-5.2015481,8.88838577,1,0,0,0,-0.18295196,0.08318292,-0.07781531,0,0,0,0
1,231.32,23132,-0.13432142,-1.00769699,0.21659313,40.55877686,-35.57349396,-79.03314209,0,0,0,99.19432831,-4.36554146,8.65950966,1,0,0,0,0.05287921,0.02339339,-0.06009042,0,0,0,0
1,231.33,23133,-0.06245799,-1.07107413,0.22014225,42.99098969,-6.11578274,-76.84320831,0,0,0,99.62558746,-3.59558702,8.72423172,1,0,0,0,-0.00524123,0.08696315,-0.05605554,0,0,0,0
1,231.34,23134,-0.00373484,-1.07926476,0.24263607,36.4838028,14.16411877,-74.77455902,0,0,0,99.97550201,-2.8829639,8.99153233,1,0,0,0,-0.05111197,0.09549461,-0.07183361,0,0,0,0
1,231.35,23135,0.08808435,-1.08351505,0.20595987,32.1728363,21.04673004,-70.5283432,0,0,0,100.28240204,-2.22567844,9.32311058,1,0,0,0,-0.13122763,0.10014676,-0.02957099,0,0,0,0
1,231.36,23136,0.17573151,-1.09119713,0.27840751,27.90026093,7.48319626,-65.22872162,0,0,0,100.55482483,-1.59760249,9.51480484,1,0,0,0,-0.20766301,0.10831046,-0.09701554,0,0,0,0
1,231.37,23137,0.14788871,-1.04616523,0.30347362,20.94849968,-21.40415001,-58.69452667,0,0,0,100.76630402,-0.98108399,9.41307163,1,0,0,0,-0.16903593,0.06375182,-0.11798355,0,0,0,0
1,231.38,23138,0.09850003,-1.06937957,0.19252557,15.17049408,-39.67192841,-51.45452881,0,0,0,100.91793823,-0.39272621,9.12019634,1,0,0,0,-0.10921599,0.08736843,-0.00402964,0,0,0,0
1,231.39,23139,0.04532926,-1.06136751,0.16014639,11.98281574,-31.80850601,-49.25790787,0,0,0,101.03830719,0.15139948,8.90174484,1,0,0,0,-0.04619068,0.07972765,0.03057631,0,0,0,0
1,231.4,23140,0.06357598,-1.08547246,0.18131074,9.87809181,-22.05764198,-47.0697937,0,0,0,101.13620758,0.65573233,8.77581882,1,0,0,0,-0.05538468,0.10422283,0.01124079,0,0,0,0
1,231.41,23141,0.07157648,-1.08254695,0.2126433,6.31408072,-24.85383224,-43.82178879,0,0,0,101.19680786,1.1337986,8.61684608,1,0,0,0,-0.05488486,0.10165066,-0.01884305,0,0,0,0
1,231.42,23142,0.0537854,-1.11175466,0.19071533,2.98716164,-30.47660255,-40.2950325,0,0,0,101.2213974,1.58831894,8.39618301,1,0,0,0,-0.02901316,0.13115382,0.00371565,0,0,0,0
1,231.43,23143,0.05794974,-1.11663175,0.22452185,-0.95272821,-36.73563385,-37.64322662,0,0,0,101.20397186,2.0306623,8.10884857,1,0,0,0,-0.02539133,0.13624564,-0.03015479,0,0,0,0
1,231.44,23144,0.08872513,-1.09959614,0.20179193,-4.18803024,-43.03251648,-35.40297318,0,0,0,101.14820099,2.46139455,7.75504637,1,0,0,0,-0.04861508,0.11933507,-0.00820747,0,0,0,0
1,231.45,23145,0.10562266,-1.0834316,0.13553546,-6.90182066,-48.04794693,-33.64397049,0,0,0,101.06018829,2.88408756,7.34793377,1,0,0,0,-0.05801723,0.10323748,0.05668556,0,0,0,0
1,231.46,23146,0.06425158,-1.08745444,0.16231164,-8.80245781,-47.45057297,-31.23378181,0,0,0,100.95030212,3.28126717,6.94119453,1,0,0,0,-0.00957044,0.10726885,0.02806235,0,0,0,0
1,231.47,23147,0.0846921,-1.05373526,0.15160765,-9.64504814,-44.83409882,-30.21266937,0,0,0,100.83061218,3.66266513,6.5573144,1,0,0,0,-0.02329944,0.07355431,0.03673311,0,0,0,0
1,231.48,23148,0.09557921,-1.02707696,0.18481681,-10.38271141,-43.49284744,-28.17542839,0,0,0,100.69947052,4.02476645,6.18164968,1,0,0,0,-0.02773496,0.04688798,0.00125702,0,0,0,0
1,231.49,23149,0.10832376,-0.99810815,0.18863091,-9.99731064,-43.47569275,-26.62251472,0,0,0,100.57173157,4.36665344,5.8024807,1,0,0,0,-0.03439435,0.01792695,-0.00484828,0,0,0,0
1,231.5,23150,0.09797347,-0.97254944,0.21144441,-8.68967247,-45.07089996,-25.60737991,0,0,0,100.4533844,4.70065403,5.40480614,1,0,0,0,-0.01820483,-0.00758049,-0.02984269,0,0,0,0
1,231.51,23151,0.07809474,-0.94945014,0.20819339,-7.3811717,-45.0233078,-24.71287727,0,0,0,100.34568024,5.0249815,5.00512695,1,0,0,0,0.00738938,-0.03057083,-0.02861435,0,0,0,0
1,231.52,23152,0.06935894,-0.95347106,0.21241991,-5.29875326,-44.2026825,-25.14866829,0,0,0,100.25728607,5.35145426,4.61358786,1,0,0,0,0.02178112,-0.02635057,-0.03454256,0,0,0,0
1,231.53,23153,0.06895572,-0.96437269,0.21173237,-3.69024611,-42.18133545,-25.44201279,0,0,0,100.19050598,5.6720438,4.24235821,1,0,0,0,0.02782506,-0.01516595,-0.03528102,0,0,0,0
1,231.54,23154,0.06085638,-0.95559365,0.20740333,-1.85310435,-38.74636459,-25.31900787,0,0,0,100.13761902,5.98962688,3.90389585,1,0,0,0,0.04143105,-0.02357496,-0.03200781,0,0,0,0
1,231.55,23155,0.06104461,-0.96042186,0.20398413,-0.00549344,-33.74159241,-26.80504417,0,0,0,100.1068573,6.31279898,3.61718273,1,0,0,0,0.04683022,-0.01828338,-0.02935174,0,0,0,0
1,231.56,23156,0.0705413,-0.98058069,0.19347449,0.93206674,-30.31382751,-26.77610779,0,0,0,100.08764648,6.6295557,3.36406636,1,0,0,0,0.04285211,0.00241046,-0.01934101,0,0,0,0
1,231.57,23157,0.07159802,-1.01641464,0.19011672,1.79259539,-28.98876953,-26.75352097,0,0,0,100.07717896,6.94370699,3.12380624,1,0,0,0,0.04725315,0.03883228,-0.01632173,0,0,0,0
1,231.58,23158,0.08107445,-1.04135215,0.19070767,2.3328619,-29.21336746,-27.13026619,0,0,0,100.07186127,7.25242281,2.88222456,1,0,0,0,0.04320489,0.06440178,-0.01715551,0,0,0,0
1,231.59,23159,0.07738993,-1.05178213,0.18796381,3.10468173,-31.8614006,-28.37837029,0,0,0,100.06850433,7.58754206,2.61590242,1,0,0,0,0.05244838,0.07551995,-0.0146109,0,0,0,0
1,231.6,23160,0.0714055,-1.0324285,0.17381698,4.69276381,-36.50648117,-31.05994415,0,0,0,100.07375336,7.95719099,2.30793977,1,0,0,0,0.06457515,0.05698343,-0.00057474,0,0,0,0
1,231.61,23161,0.06490013,-1.0256424,0.14362864,6.74058914,-40.90830612,-34.74173355,0,0,0,100.09212494,8.37086105,1.9624989,1,0,0,0,0.07793754,0.05119102,0.02968522,0,0,0,0
1,231.62,23162,-0.00736137,-0.98763257,0.11191778,8.14163876,-42.0307312,-41.19430161,0,0,0,100.12190247,8.85015678,1.6171062,1,0,0,0,0.15798691,0.0143908,0.06159475,0,0,0,0
1,231.63,23163,-0.05035986,-0.98511463,0.10348944,10.67764091,-39.16653061,-49.22369003,0,0,0,100.17154694,9.37721157,1.31442833,1,0,0,0,0.20995528,0.01339655,0.07054067,0,0,0,0
1,231.64,23164,-0.07426916,-0.97549176,0.08865952,12.54650879,-33.12682343,-59.84984207,0,0,0,100.25953674,10.02495956,1.09137762,1,0,0,0,0.24405494,0.00566752,0.08627818,0,0,0,0
1,231.65,23165,-0.10576885,-1.00314081,0.06806154,14.05581093,-25.2723732,-70.27520752,0,0,0,100.37768555,10.76159,0.96656388,1,0,0,0,0.28762731,0.03576165,0.10826562,0,0,0,0
1,231.66,23166,-0.08282024,-1.05774224,0.0616959,15.88842106,-17.45580482,-80.65248871,0,0,0,100.53166199,11.58638287,0.94077384,1,0,0,0,0.27824208,0.09336647,0.11655145,0,0,0,0
1,231.67,23167,-0.11557685,-1.10100055,0.0389503,16.733181,-12.960783,-91.42430115,0,0,0,100.70781708,12.50883865,0.98279423,1,0,0,0,0.32614484,0.14023803,0.14153607,0,0,0,0
1,231.68,23168,-0.09952103,-1.15468585,0.04801516,19.36778831,-7.76576138,-102.1747818,0,0,0,100.91649628,13.50228596,1.10009277,1,0,0,0,0.32670957,0.19822477,0.13513149,0,0,0,0
1,231.69,23169,-0.1021673,-1.20582843,0.06027374,21.53229523,-5.43007851,-111.9732666,0,0,0,101.17221832,14.61168003,1.26626348,1,0,0,0,0.34727404,0.25439766,0.12592669,0,0,0,0
1,231.7,23170,-0.11797351,-1.26121283,0.07828184,24.42082787,-4.48557663,-121.93699646,0,0,0,101.4695816,15.81612682,1.46873081,1,0,0,0,0.38277337,0.31580171,0.11156555,0,0,0,0
1,231.71,23171,-0.13284443,-1.29260027,0.12542742,26.62824059,-6.94926357,-132.52754211,0,0,0,101.7946701,17.12821007,1.67640162,1,0,0,0,0.41895971,0.3542386,0.06840433,0,0,0,0
1,231.72,23172,-0.18122509,-1.30404067,0.19382234,28.9003582,-13.00968933,-142.56632996,0,0,0,102.13773346,18.5498867,1.85322154,1,0,0,0,0.49037373,0.37386307,0.00402934,0,0,0,0
1,231.73,23173,-0.23341867,-1.29665029,0.24124099,31.82189369,-22.00416946,-152.24516296,0,0,0,102.49285889,20.0634613,1.96971476,1,0,0,0,0.56711471,0.37584412,-0.03948648,0,0,0,0
1,231.74,23174,-0.34685704,-1.37490785,0.2933867,35.65289307,-34.97678757,-161.77204895,0,0,0,102.85440826,21.71853638,1.98432732,1,0,0,0,0.70666289,0.4648093,-0.08798137,0,0,0,0
1,231.75,23175,-0.51247633,-1.51959682,0.34146863,40.25751877,-46.11343765,-170.91926575,0,0,0,103.23036194,23.48772812,1.91544104,1,0,0,0,0.90023386,0.62181717,-0.13276513,0,0,0,0
1,231.76,23176,-0.6281293,-1.6981504,0.37841401,47.61881256,-56.59989548,-179.35758972,0,0,0,103.64558411,25.36376953,1.7684598,1,0,0,0,1.04521513,0.81439143,-0.16646849,0,0,0,0
1,231.77,23177,-0.69021165,-1.87188697,0.38487068,58.49233627,-67.79924011,-186.56988525,0,0,0,104.12602997,27.33764458,1.53330529,1,0,0,0,1.13781416,1.00403333,-0.16950144,0,0,0,0
1,231.78,23178,-0.59985799,-1.94023418,0.31114572,71.17837524,-77.92656708,-191.27183533,0,0,0,104.68569946,29.37567711,1.21576214,1,0,0,0,1.07866597,1.09021521,-0.09181694,0,0,0,0
1,231.79,23179,-0.19615778,-1.88594079,0.32352936,92.33409119,-77.18096924,-195.52929688,0,0,0,105.47003174,31.46421623,0.94067252,1,0,0,0,0.7063632,1.05585551,-0.09873459,0,0,0,0
1,231.8,23180,0.30837858,-1.96045184,0.35242382,105.02871704,-69.5807724,-199.39237976,0,0,0,106.44350433,33.57245255,0.79724872,1,0,0,0,0.23301348,1.15259981,-0.11972777,0,0,0,0
1,231.81,23181,0.34528941,-2.09956908,0.315878,105.55304718,-58.74911118,-200.74105835,0,0,0,107.51650238,35.66362381,0.82690287,1,0,0,0,0.22658904,1.31558108,-0.07464007,0,0,0,0
1,231.82,23182,0.38266307,-2.13882184,0.15223806,83.17682648,-68.89287567,-204.03407288,0,0,0,108.3274765,37.81740952,0.79397106,1,0,0,0,0.21908417,1.3796097,0.09550559,0,0,0,0
1,231.83,23183,-0.14300659,-1.96203089,0.36323345,53.43814468,-93.19047546,-201.33166504,0,0,0,108.66284943,40.01153183,0.47926882,1,0,0,0,0.77491206,1.22735548,-0.11659271,0,0,0,0
1,231.84,23184,-0.47471097,-1.6755116,0.46929443,46.50331116,-77.2280426,-193.79644775,0,0,0,109.03736115,42.09486771,0.34014878,1,0,0,0,1.13511395,0.96503979,-0.22640586,0,0,0,0
1,231.85,23185,-0.4066036,-1.44884205,0.47647706,49.72462845,-42.19241333,-174.69874573,0,0,0,109.70423126,43.88272858,0.58788633,1,0,0,0,1.09158659,0.76184458,-0.23408534,0,0,0,0
1,231.86,23186,-0.06753026,-1.11709905,0.46430779,45.37115479,-23.53193283,-153.61895752,0,0,0,110.46052551,45.40634918,1.01851988,1,0,0,0,0.77278829,0.45171255,-0.21974313,0,0,0,0
1,231.87,23187,0.52778143,-0.78029937,0.29938379,39.58460236,-27.42839622,-132.91007996,0,0,0,111.07925415,46.74639893,1.32821703,1,0,0,0,0.19460344,0.13414879,-0.05320529,0,0,0,0
1,231.88,23188,-0.04434622,-0.99781615,0.22622578,30.00458336,-61.04340363,-90.05370331,0,0,0,111.0951767,47.74138641,0.95626408,1,0,0,0,0.78068757,0.36676979,0.01782314,0,0,0,0
1,231.89,23189,-0.20999843,-0.75154555,0.05785562,28.45404625,-48.52018738,-44.33679199,0,0,0,111.05318451,48.32955551,0.5172959,1,0,0,0,0.95476568,0.12881058,0.18196952,0,0,0,0
1,231.9,23190,-0.22830024,-0.58728546,-0.0975028,28.53817558,-53.52142715,-15.29568386,0,0,0,110.83518219,48.66383743,-0.15455635,1,0,0,0,0.97785282,-0.03092326,0.33411604,0,0,0,0
1,231.91,23191,-0.31560126,-0.55600202,-0.14351127,20.84272194,-58.73749161,5.99848366,0,0,0,110.39264679,48.81454849,-1.02028799,1,0,0,0,1.06772792,-0.06102744,0.3749795,0,0,0,0
1,231.92,23192,-0.36530501,-0.39444017,-0.11143196,18.57915688,-39.53441238,25.13416672,0,0,0,110.05582428,48.71530914,-1.71500361,1,0,0,0,1.11741376,-0.22419807,0.33862752,0,0,0,0
1,231.93,23193,-0.37598702,-0.30293697,-0.06822977,18.89630127,-12.53355885,45.31015396,0,0,0,109.91003418,48.28553772,-2.14321542,1,0,0,0,1.12479007,-0.32004625,0.29446018,0,0,0,0
1,231.94,23194,-0.35546568,-0.28272489,-0.02314389,16.88830948,14.94293785,66.62264252,0,0,0,109.98233032,47.60825348,-2.27295661,1,0,0,0,1.09727192,-0.34768397,0.25182652,0,0,0,0
1,231.95,23195,-0.28870407,-0.30457592,-0.00666393,16.08780098,42.59455872,88.02742004,0,0,0,110.24771881,46.63516235,-2.13014531,1,0,0,0,1.02030993,-0.33546352,0.24134904,0,0,0,0
1,231.96,23196,-0.19700944,-0.3441481,-0.02099694,14.65458965,61.86706924,112.10603333,0,0,0,110.58946228,45.36867142,-1.85864747,1,0,0,0,0.91466236,-0.30830967,0.26437259,0,0,0,0
1,231.97,23197,-0.14299433,-0.3942295,-0.03421291,9.80591393,76.38485718,138.28778076,0,0,0,110.90869141,43.80486679,-1.54380667,1,0,0,0,0.84276068,-0.27355275,0.28785113,0,0,0,0
1,231.98,23198,-0.11893528,-0.44283926,-0.04851719,3.57430744,80.1292572,159.96714783,0,0,0,111.08857727,42.00231552,-1.31583285,1,0,0,0,0.79710513,-0.2430276,0.31232017,0,0,0,0
1,231.99,23199,-0.09026534,-0.49327955,-0.07525763,-3.66417217,82.41692352,179.17428589,0,0,0,111.15899658,40.03393936,-1.15299785,1,0,0,0,0.74346125,-0.21287678,0.34835881,0,0,0,0
1,232,23200,-0.04064649,-0.53854233,-0.08668536,-12.14349174,85.85405731,197.41273499,0,0,0,111.10944366,37.88305283,-1.03884161,1,0,0,0,0.66590345,-0.18930291,0.36807889,0,0,0,0
1,232.01,23201,0.01290858,-0.57909769,-0.14382222,-20.55323219,86.1099472,213.582901,0,0,0,110.93209839,35.58046722,-0.99215204,1,0,0,0,0.58120996,-0.17172922,0.43218637,0,0,0,0
1,232.02,23202,0.04651689,-0.65665305,-0.16615929,-28.90841675,83.39083862,227.58242798,0,0,0,110.62416077,33.15682983,-1.02594101,1,0,0,0,0.51374209,-0.11786075,0.45957834,0,0,0,0
1,232.03,23203,0.07432607,-0.72832191,-0.19320048,-37.97481155,76.82743835,242.00033569,0,0,0,110.14764404,30.61078644,-1.17947793,1,0,0,0,0.44928008,-0.07039487,0.48938909,0,0,0,0
1,232.04,23204,0.08317641,-0.79797304,-0.22927302,-48.88356781,66.82289886,257.03018188,0,0,0,109.52238464,27.9662075,-1.45898306,1,0,0,0,0.40107176,-0.02531451,0.52511978,0,0,0,0
1,232.05,23205,0.0909173,-0.86106384,-0.23563805,-60.89979172,51.67821884,270.47305298,0,0,0,108.71434784,25.24138832,-1.90380621,1,0,0,0,0.3516506,0.01339774,0.52787864,0,0,0,0
1,232.06,23206,0.11034426,-0.90785205,-0.21391897,-67.90592957,45.66996384,279.48251343,0,0,0,107.83953857,22.44435692,-2.38818288,1,0,0,0,0.28835469,0.03661463,0.49989343,0,0,0,0
1,232.07,23207,0.1291056,-0.97482872,-0.19549815,-75.59318542,41.78643417,288.82290649,0,0,0,106.90553284,19.56313705,-2.88488078,1,0,0,0,0.22352579,0.08130573,0.47307757,0,0,0,0
1,232.08,23208,0.15013553,-1.03728569,-0.16474088,-80.70977783,39.68328476,298.92276001,0,0,0,105.93480682,16.5803833,-3.37556863,1,0,0,0,0.15400374,0.12308285,0.43213242,0,0,0,0
1,232.09,23209,0.13888061,-1.1118567,-0.11218631,-84.90568542,38.92880249,308.20474243,0,0,0,104.96576691,13.50605297,-3.83720875,1,0,0,0,0.11425932,0.17896289,0.36788553,0,0,0,0
1,232.1,23210,0.11637847,-1.20307052,-0.05595017,-90.38671875,40.12914658,316.38809204,0,0,0,103.97663879,10.34239292,-4.24827003,1,0,0,0,0.08357726,0.25396109,0.29873908,0,0,0,0
1,232.11,23211,0.10246607,-1.31873572,-0.00350319,-96.41603851,43.62981796,324.20278931,0,0,0,102.9613266,7.08805895,-4.58309364,1,0,0,0,0.04213512,0.35609666,0.23184204,0,0,0,0
1,232.12,23212,0.1133495,-1.45998561,0.05639023,-102.96829987,48.23636627,331.30197144,0,0,0,101.90820312,3.7490623,-4.82674694,1,0,0,0,-0.0260854,0.4868378,0.15591815,0,0,0,0
1,232.13,23213,0.14450347,-1.59578502,0.11695374,-112.28929138,52.33499527,337.06408691,0,0,0,100.77803802,0.34307104,-4.97700977,1,0,0,0,-0.1161165,0.61541557,0.07736684,0,0,0,0
1,232.14,23214,0.26722425,-1.75506449,0.22025606,-118.42529297,60.88643265,342.3147583,0,0,0,99.5933075,-3.13356161,-4.98313856,1,0,0,0,-0.29908049,0.77103752,-0.04603369,0,0,0,0
1,232.15,23215,0.46185714,-1.92536962,0.311694,-121.57218933,65.04968262,343.17236328,0,0,0,98.36798096,-6.62457514,-4.87612391,1,0,0,0,-0.55452007,0.94163835,-0.15885019,0,0,0,0
1,232.16,23216,0.64138484,-2.07130003,0.39680046,-123.73106384,67.1000824,335.87322998,0,0,0,97.09897614,-10.04286671,-4.661201,1,0,0,0,-0.79384053,1.09177995,-0.2664763,0,0,0,0
1,232.17,23217,0.79676521,-2.17631674,0.42312095,-123.32777405,68.65620422,319.26251221,0,0,0,95.79838562,-13.29222679,-4.33108807,1,0,0,0,-1.00619864,1.20452476,-0.31601405,0,0,0,0
1,232.18,23218,0.94390184,-2.20360279,0.4626033,-119.98071289,67.11009216,293.88201904,0,0,0,94.49233246,-16.27462959,-3.91314745,1,0,0,0,-1.20576465,1.24226987,-0.37880197,0,0,0,0
1,232.19,23219,1.10554767,-2.13577962,0.54087412,-114.94783783,58.71148682,263.83285522,0,0,0,93.21329498,-18.94652939,-3.48500752,1,0,0,0,-1.41403627,1.18663144,-0.47961819,0,0,0,0
1,232.2,23220,1.16179025,-1.92581046,0.77195668,-109.95973206,46.29359055,233.87686157,0,0,0,91.98314667,-21.30392647,-3.1055994,1,0,0,0,-1.51102948,0.98971117,-0.73207021,0,0,0,0
1,232.21,23221,1.25106668,-1.6387074,1.04209483,-95.49869537,37.1098938,208.53277588,0,0,0,90.89710236,-23.39792061,-2.76081443,1,0,0,0,-1.63591385,0.7160272,-1.02139711,0,0,0,0
1,232.22,23222,1.4744432,-1.3633821,1.09762418,-65.66165924,26.12487221,177.60707092,0,0,0,90.1296463,-25.17623711,-2.49103904,1,0,0,0,-1.88974583,0.45376363,-1.091506,0,0,0,0
1,232.23,23223,1.69800687,-1.20883334,0.98259759,-35.3170433,6.44991398,140.27294922,0,0,0,89.74951172,-26.56942368,-2.42012095,1,0,0,0,-2.13765764,0.31069237,-0.98476207,0,0,0,0
1,232.24,23224,1.81059599,-1.22214496,0.85212386,-13.83028126,-17.33948898,96.52410126,0,0,0,89.69771576,-27.53557396,-2.60941982,1,0,0,0,-2.26782417,0.3328194,-0.85688037,0,0,0,0
1,232.25,23225,1.73233151,-1.19684017,0.76986867,1.11259782,-40.06426239,47.96811676,0,0,0,89.91938782,-28.01665497,-3.06032705,1,0,0,0,-2.1998992,0.31289035,-0.7726627,0,0,0,0
1,232.26,23226,1.61401439,-1.12713945,0.7611475,11.22716808,-48.89257812,-4.03976488,0,0,0,90.29184723,-27.97541428,-3.61387706,1,0,0,0,-2.08397675,0.24445769,-0.75891429,0,0,0,0
1,232.27,23227,1.5017401,-1.09042978,0.77151185,19.46236801,-48.32022095,-53.16644287,0,0,0,90.73799896,-27.43947983,-4.1541729,1,0,0,0,-1.96621299,0.20489268,-0.76276213,0,0,0,0
1,232.28,23228,1.02885783,-1.43171167,0.73724395,36.36683655,-46.91017151,-84.34772491,0,0,0,91.34119415,-26.56682205,-4.66837358,1,0,0,0,-1.48147047,0.54018617,-0.71999931,0,0,0,0
1,232.29,23229,0.57538211,-1.15459573,0.7915287,50.08354187,-28.9658432,-125.46206665,0,0,0,91.96543884,-25.30444527,-4.94979572,1,0,0,0,-1.01082158,0.2548174,-0.76430374,0,0,0,0
1,232.3,23230,-2.2257092,-1.68905997,-0.48563302,19.89088249,-51.81381989,-109.63014984,0,0,0,92.38234711,-24.18878174,-5.47337389,1,0,0,0,1.81015408,0.78021038,0.52139503,0,0,0,0
1,232.31,23231,-1.65079284,-1.14641047,-0.64646208,27.55817986,-26.90293312,-85.70145416,0,0,0,92.76074982,-23.32111931,-5.72580957,1,0,0,0,1.24944198,0.23143795,0.68794066,0,0,0,0
1,232.32,23232,0.28955314,-1.25613511,-0.27178866,50.57015991,42.56985092,-113.72270203,0,0,0,93.0640564,-22.20732117,-5.20173502,1,0,0,0,-0.67476571,0.33456227,0.31955251,0,0,0,0
1,232.33,23233,0.73353046,-1.95433271,0.11857891,56.14419937,52.22378159,-151.6502533,0,0,0,93.38721466,-20.71554756,-4.55022478,1,0,0,0,-1.09671819,1.02415109,-0.06567186,0,0,0,0
1,232.34,23234,0.46966496,-1.84123647,0.19383165,57.56661987,19.67972946,-161.53588867,0,0,0,93.85397339,-19.11553764,-4.23293686,1,0,0,0,-0.80706733,0.90183508,-0.13368024,0,0,0,0
1,232.35,23235,0.09548274,-1.35821581,0.11187395,62.39151764,-5.21448326,-161.97595215,0,0,0,94.45599365,-17.49615288,-4.16407919,1,0,0,0,-0.40622678,0.4103457,-0.04180456,0,0,0,0
1,232.36,23236,-0.18386631,-0.92688376,-0.07660331,57.16889191,-14.4412117,-160.760849,0,0,0,95.03097534,-15.88211632,-4.17543745,1,0,0,0,-0.09984937,-0.02859646,0.15719061,0,0,0,0
1,232.37,23237,-0.24741146,-0.56794649,0.15731438,58.78546524,0.40446815,-144.66387939,0,0,0,95.58214569,-14.44224358,-4.03301287,1,0,0,0,-0.01073623,-0.3938818,-0.06680231,0,0,0,0
1,232.38,23238,0.07489368,-0.55075532,0.74116898,72.04935455,22.66504288,-119.40000916,0,0,0,96.24823761,-13.269104,-3.68568063,1,0,0,0,-0.31160322,-0.41553354,-0.64011186,0,0,0,0
1,232.39,23239,0.49758604,-1.04798317,0.97475725,99.18386841,51.91341782,-99.78825378,0,0,0,97.09692383,-12.33857727,-3.03816891,1,0,0,0,-0.71698534,0.07920177,-0.85947132,0,0,0,0
1,232.4,23240,0.4576503,-1.56695402,0.04894081,61.54213715,5.90094948,-100.3074646,0,0,0,97.67172241,-11.35091114,-2.84563351,1,0,0,0,-0.66112834,0.5962429,0.07867516,0,0,0,0
1,232.41,23241,0.35059065,-1.20416868,0.10007232,48.1308136,-16.64793968,-107.5138092,0,0,0,98.15660095,-10.26322842,-2.86311364,1,0,0,0,-0.53561217,0.23093234,0.03610639,0,0,0,0
1,232.42,23242,0.17116265,-1.15952885,0.20693569,52.86371231,-24.80513,-107.16043091,0,0,0,98.69979858,-9.16657639,-2.95250845,1,0,0,0,-0.33767265,0.18433365,-0.06122245,0,0,0,0
1,232.43,23243,0.13461503,-1.0771172,0.263412,43.13271713,-53.26773834,-98.99478912,0,0,0,99.19523621,-8.08651733,-3.33147335,1,0,0,0,-0.28223985,0.1002951,-0.10851568,0,0,0,0
1,232.44,23244,0.0421562,-0.92815495,0.25986227,40.10574341,-68.38948059,-88.8990097,0,0,0,99.66664886,-7.09741974,-3.8651464,1,0,0,0,-0.17204961,-0.04978757,-0.09637552,0,0,0,0
1,232.45,23245,-0.04704436,-0.99142599,0.20541622,39.18451309,-62.42615509,-79.10539246,0,0,0,100.11450958,-6.21098185,-4.34757328,1,0,0,0,-0.06676073,0.01287046,-0.03379208,0,0,0,0
1,232.46,23246,-0.14828119,-1.0459913,0.20937002,40.82026291,-43.02351379,-74.04940796,0,0,0,100.55243683,-5.40542603,-4.63954687,1,0,0,0,0.04889183,0.06726277,-0.02994671,0,0,0,0
1,232.47,23247,-0.09137229,-1.0475713,0.26392901,40.3870697,-15.14868927,-71.35309601,0,0,0,100.95783234,-4.67623377,-4.65526867,1,0,0,0,0.00519929,0.06898269,-0.07705431,0,0,0,0
1,232.48,23248,-0.002981,-1.0679388,0.26274714,34.40481567,-4.25337458,-66.39165497,0,0,0,101.2982254,-4.00768852,-4.56934071,1,0,0,0,-0.07126268,0.08961397,-0.06947143,0,0,0,0
1,232.49,23249,0.0407283,-1.06334472,0.23018776,29.39574432,-3.41978025,-61.91073608,0,0,0,101.58639526,-3.39409614,-4.47985458,1,0,0,0,-0.10386994,0.08531083,-0.03156162,0,0,0,0
1,232.5,23250,0.15004827,-1.05776429,0.28131416,25.97189903,-12.86126137,-55.66294098,0,0,0,101.84664917,-2.82286906,-4.49273396,1,0,0,0,-0.20298669,0.08010729,-0.07790513,0,0,0,0
1,232.51,23251,0.1528952,-1.04689252,0.32627037,18.77870369,-39.3659935,-49.48268127,0,0,0,102.04675293,-2.25717258,-4.77566862,1,0,0,0,-0.19598308,0.06956863,-0.11897165,0,0,0,0
1,232.52,23252,0.05817876,-1.0575949,0.31074458,12.74078941,-63.86549377,-43.17042923,0,0,0,102.19246674,-1.70092177,-5.30971766,1,0,0,0,-0.09150043,0.0805154,-0.10051265,0,0,0,0
1,232.53,23253,-0.0325946,-1.07605755,0.24471179,7.76853418,-70.72922516,-40.58311844,0,0,0,102.28418732,-1.15715563,-5.91485596,1,0,0,0,0.00888456,0.09911622,-0.0325412,0,0,0,0
1,232.54,23254,-0.03252909,-1.06836951,0.18629511,5.5894866,-62.4149704,-40.31843185,0,0,0,102.34832001,-0.63010573,-6.43868685,1,0,0,0,0.01810563,0.09152687,0.02716148,0,0,0,0
1,232.55,23255,0.0114488,-1.09258485,0.2018372,2.43996477,-56.05146408,-40.78233719,0,0,0,102.37573242,-0.11170378,-6.89886761,1,0,0,0,-0.0167674,0.11581728,0.01238379,0,0,0,0
1,232.56,23256,-0.01061112,-1.09203923,0.23635446,-2.79921412,-53.71632767,-39.65822983,0,0,0,102.3466568,0.3907007,-7.33865499,1,0,0,0,0.01414905,0.11522849,-0.02229295,0,0,0,0
1,232.57,23257,0.03376515,-1.08783209,0.26916519,-7.03536606,-58.48769379,-38.64768219,0,0,0,102.27077484,0.89300114,-7.82769728,1,0,0,0,-0.02145678,0.11087474,-0.05610016,0,0,0,0
1,232.58,23258,0.03508661,-1.08008683,0.27691796,-10.32368183,-66.69467163,-36.97177124,0,0,0,102.16020966,1.39577079,-8.40173244,1,0,0,0,-0.01403074,0.10289976,-0.06559899,0,0,0,0
1,232.59,23259,-0.0127551,-1.07995415,0.20742027,-12.62268353,-71.08426666,-36.90788269,0,0,0,102.01617432,1.90555573,-9.01975536,1,0,0,0,0.0426674,0.10251358,0.00164602,0,0,0,0
1,232.6,23260,0.02343431,-1.09768021,0.14213449,-12.0769062,-65.44872284,-36.60313797,0,0,0,101.87423706,2.39912939,-9.5847168,1,0,0,0,0.01522348,0.11999823,0.06435373,0,0,0,0
1,232.61,23261,-0.00358812,-1.06661546,0.16674799,-11.18345737,-57.35338974,-38.39104462,0,0,0,101.74015045,2.89226842,-10.06809521,1,0,0,0,0.05081741,0.08880103,0.0373163,0,0,0,0
1,232.62,23262,0.02247127,-1.03273344,0.14888643,-7.8117137,-48.35722733,-40.46115112,0,0,0,101.64060974,3.38646698,-10.46025848,1,0,0,0,0.03337485,0.05495545,0.05316668,0,0,0,0
1,232.63,23263,0.04462475,-1.01860583,0.15216766,-5.17478704,-40.50209427,-42.22073746,0,0,0,101.56248474,3.87885094,-10.77244854,1,0,0,0,0.01982022,0.04104254,0.04835944,0,0,0,0
1,232.64,23264,0.06029812,-1.00034642,0.18764915,-1.77998507,-35.02460861,-42.81018066,0,0,0,101.52613831,4.36837673,-11.03061962,1,0,0,0,0.01269485,0.02316934,0.01182823,0,0,0,0
1,232.65,23265,0.06087133,-0.97339797,0.22381271,0.33570582,-32.49829102,-42.75378799,0,0,0,101.51072693,4.85219479,-11.26445198,1,0,0,0,0.02055674,-0.00321707,-0.02484791,0,0,0,0
1,232.66,23266,0.0741545,-0.96170539,0.23288885,1.43480754,-32.32252502,-42.60767746,0,0,0,101.50441742,5.33418512,-11.49710655,1,0,0,0,0.01567012,-0.01423582,-0.03423146,0,0,0,0
1,232.67,23267,0.08892474,-0.97244024,0.23449548,3.08368373,-32.56726456,-41.93078232,0,0,0,101.5122757,5.81003523,-11.73369217,1,0,0,0,0.00921939,-0.00271808,-0.03592898,0,0,0,0
1,232.68,23268,0.1075675,-0.97151774,0.21296641,2.5922792,-32.50120544,-41.06652451,0,0,0,101.51425171,6.27690077,-11.97148609,1,0,0,0,-0.00126889,-0.00280653,-0.01450338,0,0,0,0
1,232.69,23269,0.09943859,-0.9568966,0.19570297,3.01565337,-31.54916763,-40.90299606,0,0,0,101.51847839,6.74068022,-12.20044422,1,0,0,0,0.01491988,-0.01654065,0.00263299,0,0,0,0
1,232.7,23270,0.09980914,-0.97454602,0.1758749,3.96798778,-28.56422615,-41.10694885,0,0,0,101.53398895,7.20053291,-12.39966011,1,0,0,0,0.02257932,0.0020863,0.02246385,0,0,0,0
1,232.71,23271,0.10173814,-0.98908365,0.12368308,4.28227329,-24.78451157,-41.5037117,0,0,0,101.55599213,7.65677214,-12.56078911,1,0,0,0,0.02855792,0.017676,0.07477383,0,0,0,0
1,232.72,23272,0.07058002,-0.97921729,0.09864066,5.87982798,-21.92297173,-44.06190872,0,0,0,101.59731293,8.13241482,-12.68835545,1,0,0,0,0.06772597,0.00898843,0.10016015,0,0,0,0
1,232.73,23273,0.0335269,-0.96150005,0.0791025,8.55956078,-17.6259613,-49.80126953,0,0,0,101.65104675,8.63497448,-12.76178646,1,0,0,0,0.11343728,-0.00731076,0.1203993,0,0,0,0
1,232.74,23274,0.00216185,-0.94886422,0.0703062,10.5753994,-10.77872086,-57.00737381,0,0,0,101.75847626,9.21504974,-12.75155544,1,0,0,0,0.15414885,-0.01825951,0.13026802,0,0,0,0
1,232.75,23275,-0.01367799,-0.9570756,0.09383284,11.20345592,-3.17219639,-65.37747192,0,0,0,101.88786316,9.86144161,-12.6472168,1,0,0,0,0.18069009,-0.0079098,0.10840407,0,0,0,0
1,232.76,23276,-0.0207856,-0.98756242,0.17545763,11.2790947,2.0913415,-73.08596039,0,0,0,102.03166962,10.57209778,-12.4725256,1,0,0,0,0.19958787,0.02510135,0.02871323,0,0,0,0
1,232.77,23277,-0.04620532,-1.03120577,0.23258327,12.84972668,2.65178013,-80.55323029,0,0,0,102.19792175,11.35412502,-12.27392673,1,0,0,0,0.23795351,0.07169457,-0.02629402,0,0,0,0
1,232.78,23278,-0.03625111,-1.08967829,0.25090003,15.62301445,1.36852658,-87.82944489,0,0,0,102.3963623,12.18497753,-12.06834698,1,0,0,0,0.24205346,0.13362698,-0.04210934,0,0,0,0
1,232.79,23279,0.01028465,-1.12172985,0.21008147,18.2455864,-2.23811007,-95.21871185,0,0,0,102.62013245,13.11942768,-11.87939835,1,0,0,0,0.21062265,0.16969267,0.00158454,0,0,0,0
1,232.8,23280,-0.03597165,-1.16613615,0.17551389,19.15566063,-7.67457962,-102.59108734,0,0,0,102.84835815,14.13702297,-11.72373199,1,0,0,0,0.27361637,0.21878947,0.03903957,0,0,0,0
1,232.81,23281,-0.03688167,-1.21929193,0.13474199,20.29799843,-7.66230345,-111.45950317,0,0,0,103.09738922,15.24035645,-11.54222965,1,0,0,0,0.29266286,0.27736101,0.0827695,0,0,0,0
1,232.82,23282,-0.0524868,-1.23538208,0.12965712,20.81707001,-4.74489784,-119.32357788,0,0,0,103.36997223,16.41275406,-11.30630493,1,0,0,0,0.32757729,0.29963601,0.09095466,0,0,0,0
1,232.83,23283,-0.05497285,-1.25920856,0.13369298,21.86667252,-2.38431168,-126.6932373,0,0,0,103.66331482,17.62769699,-11.02189159,1,0,0,0,0.35027426,0.33043242,0.09021483,0,0,0,0
1,232.84,23284,-0.08441462,-1.27278483,0.16544513,22.1938839,-2.94834447,-133.17857361,0,0,0,103.98086548,18.92796707,-10.71696472,1,0,0,0,0.40063196,0.35174289,0.06181116,0,0,0,0
1,232.85,23285,-0.13184914,-1.3045305,0.19491811,23.58320618,-7.19481945,-140.28030396,0,0,0,104.31395721,20.30582047,-10.42703533,1,0,0,0,0.47029787,0.39227417,0.03571717,0,0,0,0
1,232.86,23286,-0.20368126,-1.38485968,0.21738419,24.89556694,-14.9662838,-147.05516052,0,0,0,104.64846802,21.7671032,-10.18828487,1,0,0,0,0.56549525,0.48242927,0.01640249,0,0,0,0
1,232.87,23287,-0.32465631,-1.48770809,0.18468788,25.12770462,-24.21688271,-153.57176208,0,0,0,104.9653244,23.31373024,-10.0168581,1,0,0,0,0.71098793,0.5961709,0.05163721,0,0,0,0
1,232.88,23288,-0.51120198,-1.67516792,0.21332468,24.97569656,-32.87555313,-160.86413574,0,0,0,105.25775909,24.93888092,-9.90561295,1,0,0,0,0.92311382,0.79565078,0.02481985,0,0,0,0
1,232.89,23289,-0.67069805,-1.8190906,0.19326232,25.5613575,-41.99783707,-168.81848145,0,0,0,105.53405762,26.67801285,-9.85758018,1,0,0,0,1.10931587,0.95285279,0.04584377,0,0,0,0
1,232.9,23290,-0.7124567,-1.94359231,0.13865505,31.96275711,-54.80308151,-174.92747498,0,0,0,105.82466125,28.5103302,-9.91972065,1,0,0,0,1.17908823,1.09223533,0.10085268,0,0,0,0
1,232.91,23291,-0.68683898,-2.00030494,0.11059761,50.29118729,-62.10406113,-178.82524109,0,0,0,106.26934052,30.4005127,-10.03823757,1,0,0,0,1.18211865,1.16561031,0.13001293,0,0,0,0
1,232.92,23292,-0.39010435,-1.89333785,0.12046105,71.08412933,-55.92174911,-184.46658325,0,0,0,106.97554779,32.3278656,-10.04818916,1,0,0,0,0.9140774,1.0775311,0.12410593,0,0,0,0
1,232.93,23293,0.14651684,-1.8314904,0.31822303,83.70365906,-30.19568443,-198.07208252,0,0,0,108.01277161,34.30085373,-9.6814785,1,0,0,0,0.4062821,1.03725147,-0.06625912,0,0,0,0
1,232.94,23294,0.6680761,-1.94179714,0.3356396,78.16337585,-8.16079617,-210.51887512,0,0,0,109.21643066,36.32169342,-8.95228481,1,0,0,0,-0.08660157,1.17151403,-0.07404834,0,0,0,0
1,232.95,23295,0.46648699,-2.06049109,0.52629679,57.0266571,-27.88688087,-220.72973633,0,0,0,110.15442657,38.49396133,-8.3461256,1,0,0,0,0.14471653,1.31599152,-0.25792009,0,0,0,0
1,232.96,23296,0.06247528,-1.94753778,0.48624548,42.18549347,-28.73007965,-218.54562378,0,0,0,110.98884583,40.64097977,-7.69896889,1,0,0,0,0.57810885,1.22912621,-0.21528871,0,0,0,0
1,232.97,23297,-0.50717127,-1.77918196,0.55885309,45.38487244,-9.30488396,-207.92628479,0,0,0,112.04456329,42.60930252,-6.79499531,1,0,0,0,1.17497873,1.08725047,-0.28470108,0,0,0,0
1,232.98,23298,-0.46241817,-1.55757701,0.37170082,44.00653076,29.72008514,-183.87796021,0,0,0,113.40892792,44.16323853,-5.44407272,1,0,0,0,1.15219796,0.89063323,-0.0900768,0,0,0,0
1,232.99,23299,-0.02643842,-1.12624621,0.27766684,35.67530823,34.80997467,-161.05455017,0,0,0,114.73470306,45.49179459,-4.06967831,1,0,0,0,0.73363751,0.48163074,0.01264288,0,0,0,0
1,233,23300,0.6348263,-0.87277877,0.34919539,35.68220139,25.99356651,-139.82714844,0,0,0,115.95640564,46.64439392,-2.86853194,1,0,0,0,0.08725989,0.24846247,-0.0512462,0,0,0,0
1,233.01,23301,-0.03939044,-1.14100885,0.26435167,26.91888046,-22.55724335,-103.31654358,0,0,0,116.49933624,47.67099762,-2.49447727,1,0,0,0,0.77440512,0.53338826,0.03652108,0,0,0,0
1,233.02,23302,-0.25959367,-0.87938619,0.16039847,21.43088913,-23.96191025,-62.17791748,0,0,0,116.78520966,48.33427048,-2.39798784,1,0,0,0,1.00398362,0.28282511,0.13958251,0,0,0,0
1,233.03,23303,-0.3108429,-0.79263854,0.03793968,14.40431118,-41.59913635,-35.01866913,0,0,0,116.6063385,48.71699142,-2.77443099,1,0,0,0,1.06126857,0.20237494,0.25945899,0,0,0,0
1,233.04,23304,-0.37260887,-0.63486129,-0.03220857,3.81108451,-50.98963165,-10.08092117,0,0,0,116.17250061,49.03397751,-3.40076208,1,0,0,0,1.12654912,0.04616651,0.32377055,0,0,0,0
1,233.05,23305,-0.33902708,-0.44021419,-0.03654876,-1.05576503,-40.31996155,10.08847046,0,0,0,115.69271088,49.11959076,-4.02165079,1,0,0,0,1.0949012,-0.14888605,0.32222834,0,0,0,0
1,233.06,23306,-0.30815321,-0.3564246,0.01423138,-7.40094519,-16.47931862,35.76847839,0,0,0,115.27046204,48.86764526,-4.4828887,1,0,0,0,1.06270599,-0.23626179,0.26749378,0,0,0,0
1,233.07,23307,-0.28394905,-0.30675802,0.04342045,-13.94944096,3.80808783,59.2041893,0,0,0,114.88543701,48.31529617,-4.81011343,1,0,0,0,1.03341544,-0.29311115,0.23666394,0,0,0,0
1,233.08,23308,-0.26686007,-0.28995904,0.05230926,-20.31776237,19.84364319,83.67251587,0,0,0,114.48506165,47.43488693,-5.06901217,1,0,0,0,1.00767672,-0.32056978,0.22773191,0,0,0,0
1,233.09,23309,-0.25332293,-0.30375016,0.05405467,-26.91519737,33.36330414,108.63895416,0,0,0,114.0637207,46.30739594,-5.27742481,1,0,0,0,0.98169786,-0.32107592,0.22706482,0,0,0,0
1,233.1,23310,-0.20861749,-0.33808136,0.03292071,-33.14606476,43.11407471,131.91157532,0,0,0,113.59070587,44.92655945,-5.47546864,1,0,0,0,0.92139077,-0.30376881,0.24980272,0,0,0,0
1,233.11,23311,-0.18188031,-0.3675206,0.01566508,-39.9312439,50.27111435,153.14796448,0,0,0,113.05101776,43.32119751,-5.67701387,1,0,0,0,0.87576616,-0.29400915,0.26864761,0,0,0,0
1,233.12,23312,-0.16550134,-0.37907699,-0.00570339,-46.2611618,58.12643051,172.16464233,0,0,0,112.46947479,41.50876617,-5.85318375,1,0,0,0,0.83724409,-0.30433193,0.29141146,0,0,0,0
1,233.13,23313,-0.14167544,-0.39530447,-0.00747239,-50.97209167,68.8425293,190.70524597,0,0,0,111.8767395,39.46194077,-5.96785021,1,0,0,0,0.78784084,-0.31175432,0.29457921,0,0,0,0
1,233.14,23314,-0.14498435,-0.45565128,-0.00260364,-55.7315979,79.72972107,211.31335449,0,0,0,111.29073334,37.2037468,-6.01376057,1,0,0,0,0.76148856,-0.27678865,0.29126549,0,0,0,0
1,233.15,23315,-0.12574528,-0.53681189,0.00963477,-64.40007782,88.60639191,231.66564941,0,0,0,110.64541626,34.72345352,-6.01587725,1,0,0,0,0.7087912,-0.22213122,0.28003222,0,0,0,0
1,233.16,23316,-0.07221493,-0.60471374,-0.0072373,-72.21881104,89.42650604,249.16519165,0,0,0,109.90705109,32.07625198,-6.04564524,1,0,0,0,0.6179775,-0.18162146,0.29644576,0,0,0,0
1,233.17,23317,-0.04317921,-0.67287844,0.01220772,-81.34506989,86.00525665,264.19830322,0,0,0,109.05195618,29.29868698,-6.12741995,1,0,0,0,0.54841173,-0.14111251,0.27407861,0,0,0,0
1,233.18,23318,-0.00483402,-0.74557918,0.02102138,-88.90081024,83.45568848,277.42010498,0,0,0,108.10519409,26.39157867,-6.23520374,1,0,0,0,0.46646115,-0.09570296,0.25991288,0,0,0,0
1,233.19,23319,0.03025823,-0.79683781,0.027495,-93.89357758,82.66509247,289.89630127,0,0,0,107.12478638,23.3784008,-6.33375072,1,0,0,0,0.38466716,-0.07081364,0.24596566,0,0,0,0
1,233.2,23320,0.04569514,-0.88284141,0.0413309,-99.69960022,78.25784302,302.28729248,0,0,0,106.08239746,20.25789833,-6.45650673,1,0,0,0,0.31971321,-0.00964415,0.22265761,0,0,0,0
1,233.21,23321,0.04110169,-0.98247695,0.04793966,-105.70294189,70.58670807,314.60726929,0,0,0,104.97077179,17.03766823,-6.62754726,1,0,0,0,0.27208886,0.06697844,0.20404951,0,0,0,0
1,233.22,23322,0.03686785,-1.10773778,0.08452813,-108.72116089,66.97537231,328.63595581,0,0,0,103.83708954,13.68805885,-6.80242109,1,0,0,0,0.22115804,0.17152008,0.15342215,0,0,0,0
1,233.23,23323,0.03375841,-1.26903653,0.13904798,-112.85307312,63.81698227,343.01611328,0,0,0,102.67111206,10.19958305,-6.97140551,1,0,0,0,0.16588959,0.31486759,0.08316615,0,0,0,0
1,233.24,23324,0.04549372,-1.44513297,0.19230951,-118.08681488,66.07244873,353.53622437,0,0,0,101.47593689,6.60441208,-7.06597662,1,0,0,0,0.09297359,0.4763177,0.01233768,0,0,0,0
1,233.25,23325,0.10668026,-1.64608586,0.29668495,-124.94295502,72.91713715,361.26049805,0,0,0,100.22866058,2.91943598,-7.03003359,1,0,0,0,-0.03158107,0.66642374,-0.11159016,0,0,0,0
1,233.26,23326,0.25679854,-1.81676817,0.43445185,-128.8054657,80.40093231,366.68075562,0,0,0,98.94341278,-0.82986313,-6.84796906,1,0,0,0,-0.24669755,0.83051234,-0.27067664,0,0,0,0
1,233.27,23327,0.51546246,-1.99094772,0.56409419,-133.38156128,77.47979736,367.7171936,0,0,0,97.59820557,-4.58019066,-6.61028004,1,0,0,0,-0.57085145,1.00265157,-0.4232924,0,0,0,0
1,233.28,23328,0.74131453,-2.0897305,0.62177843,-138.09309387,71.24538422,362.32913208,0,0,0,96.18793488,-8.25877953,-6.33689833,1,0,0,0,-0.86125618,1.10395408,-0.50562346,0,0,0,0
1,233.29,23329,0.92433828,-2.18924284,0.65337712,-136.44909668,65.28730774,347.01452637,0,0,0,94.7667923,-11.77526855,-6.0134697,1,0,0,0,-1.10607946,1.21026909,-0.56257945,0,0,0,0
1,233.3,23330,1.1490196,-2.31082773,0.67307532,-129.40898132,60.68900681,324.23025513,0,0,0,93.38304901,-15.05243206,-5.6281662,1,0,0,0,-1.3882829,1.34227085,-0.6070587,0,0,0,0
1,233.31,23331,1.25021088,-2.32757306,0.78027886,-119.84809113,50.92292404,290.71469116,0,0,0,92.0750351,-17.98065567,-5.24239206,1,0,0,0,-1.54105639,1.37188256,-0.73751658,0,0,0,0
1,233.32,23332,1.26865971,-2.19661641,1.0258975,-111.57182312,41.09448242,258.019104,0,0,0,90.83843231,-20.57040405,-4.87678385,1,0,0,0,-1.60448647,1.25503278,-1.0045917,0,0,0,0
1,233.33,23333,1.34552217,-1.80309963,1.26145625,-98.49948883,37.27829361,228.57302856,0,0,0,89.71379852,-22.85149765,-4.48968887,1,0,0,0,-1.72049844,0.87614501,-1.25951827,0,0,0,0
1,233.34,23334,1.6599158,-1.33098555,1.34678793,-65.01815796,37.00364685,192.75920105,0,0,0,88.88949585,-24.77425194,-4.05882072,1,0,0,0,-2.06797361,0.41817787,-1.36003709,0,0,0,0
1,233.35,23335,2.03161526,-1.17374516,1.21132481,-29.03772354,18.02532196,151.25204468,0,0,0,88.49684143,-26.28229713,-3.82044196,1,0,0,0,-2.4660759,0.27334785,-1.2331425,0,0,0,0
1,233.36,23336,2.16411686,-1.1250819,1.00311184,-6.11631584,-14.52013588,99.71775818,0,0,0,88.49623108,-27.28299713,-3.95350385,1,0,0,0,-2.61736202,0.23402631,-1.02694535,0,0,0,0
1,233.37,23337,1.9461441,-1.07489598,0.86645967,11.48850918,-39.70781326,39.93569946,0,0,0,88.8130722,-27.69163895,-4.39020014,1,0,0,0,-2.40921783,0.18881637,-0.88696468,0,0,0,0
1,233.38,23338,1.69414532,-1.07266939,0.81545055,26.70967674,-39.1857338,-19.67157555,0,0,0,89.29405975,-27.48623466,-4.8401804,1,0,0,0,-2.15767026,0.18669747,-0.82930177,0,0,0,0
1,233.39,23339,1.58262956,-1.0890137,0.80707133,36.47706985,-28.7832737,-74.24834442,0,0,0,89.80945587,-26.7461319,-5.1698637,1,0,0,0,-2.03770161,0.19859061,-0.81307572,0,0,0,0
1,233.4,23340,1.28748965,-1.22832501,0.73318136,48.25416565,-16.43415833,-124.81945801,0,0,0,90.37191772,-25.49779701,-5.35068369,1,0,0,0,-1.7258749,0.32956752,-0.73077637,0,0,0,0
1,233.41,23341,0.42373225,-1.41248286,0.28592277,58.46070099,-11.82062912,-140.56922913,0,0,0,91.00369263,-24.09098625,-5.46178102,1,0,0,0,-0.8404367,0.50355768,-0.27333352,0,0,0,0
1,233.42,23342,-2.15392065,-1.49366868,-0.35113618,33.43991852,-31.58091164,-136.05116272,0,0,0,91.46107483,-22.72366905,-5.7732048,1,0,0,0,1.76005483,0.57476854,0.37229061,0,0,0,0
1,233.43,23343,-2.29622841,-1.12166834,-0.77297056,33.18474579,2.59677792,-92.28219604,0,0,0,91.7642746,-21.81760788,-5.71327257,1,0,0,0,1.91936469,0.19578889,0.79944372,0,0,0,0
1,233.44,23344,-0.37445205,-1.14429307,-0.29275796,55.97803879,56.90094376,-99.95309448,0,0,0,92.08921051,-20.83823013,-5.06635237,1,0,0,0,0.01245652,0.21268937,0.3251366,0,0,0,0
1,233.45,23345,0.87313241,-1.73283553,-0.17402908,49.39343643,84.72807312,-136.76515198,0,0,0,92.252388,-19.50363159,-4.1088562,1,0,0,0,-1.21569812,0.79405254,0.20993808,0,0,0,0
1,233.46,23346,0.71766847,-2.00360489,0.35373709,58.00882721,49.16729736,-160.49371338,0,0,0,92.64227295,-17.92077065,-3.51822805,1,0,0,0,-1.03522611,1.05628359,-0.31280446,0,0,0,0
1,233.47,23347,0.28419289,-1.5729363,0.27336514,72.87482452,23.3355999,-159.16027832,0,0,0,93.27332306,-16.34305382,-3.18847895,1,0,0,0,-0.57549536,0.61767644,-0.222839,0,0,0,0
1,233.48,23348,0.04814086,-1.10880983,0.04585437,63.10953522,0.25347623,-158.24543762,0,0,0,93.8731842,-14.74967194,-3.08176661,1,0,0,0,-0.3127988,0.14646877,0.01569354,0,0,0,0
1,233.49,23349,0.10443759,-0.55303705,0.96045125,81.27936554,13.80840206,-142.78627014,0,0,0,94.62633514,-13.33627605,-2.83208776,1,0,0,0,-0.3437795,-0.41512072,-0.88747466,0,0,0,0
1,233.5,23350,0.48996967,-1.03798926,0.61270338,98.62306976,36.27489471,-126.51197052,0,0,0,95.50524139,-12.10786152,-2.3468504,1,0,0,0,-0.70746243,0.06595346,-0.5244348,0,0,0,0
1,233.51,23351,0.59613997,-1.39985633,-0.06627715,60.27830505,-19.87389374,-124.77968597,0,0,0,96.12180328,-10.84603405,-2.41926503,1,0,0,0,-0.7924878,0.4245382,0.16705264,0,0,0,0
1,233.52,23352,0.3321721,-0.94963044,0.3281996,66.60670471,-30.50409317,-117.03785706,0,0,0,96.81864166,-9.64863586,-2.59346843,1,0,0,0,-0.50739849,-0.02845088,-0.21591562,0,0,0,0
1,233.53,23353,0.10259558,-1.222965,0.29999188,62.56511307,-46.93986511,-108.08259583,0,0,0,97.49887848,-8.49814129,-2.92892432,1,0,0,0,-0.2577382,0.24299781,-0.17527612,0,0,0,0
1,233.54,23354,0.24158816,-1.06492054,0.16926901,53.27652359,-54.8417244,-94.88520813,0,0,0,98.08959961,-7.48352814,-3.34762216,1,0,0,0,-0.37834126,0.08366385,-0.03361522,0,0,0,0
1,233.55,23355,0.0129269,-1.04641163,0.17742608,49.3183403,-67.71110535,-87.11386108,0,0,0,98.64945984,-6.5230937,-3.89484024,1,0,0,0,-0.132631,0.06437397,-0.03167211,0,0,0,0
1,233.56,23356,0.01275756,-1.05171072,0.21437849,50.96146011,-48.03897476,-77.54000092,0,0,0,99.197258,-5.6827631,-4.25123692,1,0,0,0,-0.11711253,0.06941086,-0.05890008,0,0,0,0
1,233.57,23357,-0.08470328,-1.05428863,0.24139875,44.54166412,-20.58837318,-74.14544678,0,0,0,99.65048218,-4.91772938,-4.33323526,1,0,0,0,-0.00595583,0.07203934,-0.07723765,0,0,0,0
1,233.58,23358,-0.059001,-1.09690738,0.16989911,43.36117935,2.4466517,-72.5819931,0,0,0,100.07260132,-4.19859362,-4.18432951,1,0,0,0,-0.01885686,0.11483978,0.00175463,0,0,0,0
1,233.59,23359,0.13854246,-1.15075159,0.31811067,39.03349686,0.72924674,-66.56455994,0,0,0,100.45420074,-3.54478502,-4.05817413,1,0,0,0,-0.20461324,0.16908112,-0.13938051,0,0,0,0
1,233.6,23360,0.16860113,-1.0703156,0.34789249,28.80872345,-30.93214989,-59.74302292,0,0,0,100.75292206,-2.90048146,-4.25252628,1,0,0,0,-0.22342658,0.08900723,-0.16345732,0,0,0,0
1,233.61,23361,0.09956191,-1.10967088,0.25369346,23.90015984,-56.8879776,-52.44680786,0,0,0,101.01251984,-2.27796555,-4.71261311,1,0,0,0,-0.14331697,0.12871498,-0.06448419,0,0,0,0
1,233.62,23362,0.01138998,-1.09505749,0.20329759,20.02734756,-63.17510986,-46.55881882,0,0,0,101.2312088,-1.69924712,-5.24299908,1,0,0,0,-0.0447797,0.11448976,-0.01000186,0,0,0,0
1,233.63,23363,-0.01847144,-1.10872686,0.18741454,18.51719284,-52.69923782,-45.87435532,0,0,0,101.42484283,-1.14619505,-5.66930628,1,0,0,0,-0.00511047,0.12858102,0.0094355,0,0,0,0
1,233.64,23364,0.01707671,-1.10601568,0.22743315,15.64292145,-41.86726761,-45.22149277,0,0,0,101.58623505,-0.61956358,-5.989398,1,0,0,0,-0.0312994,0.12628826,-0.02762199,0,0,0,0
1,233.65,23365,0.03761081,-1.12168717,0.19536467,9.5562067,-42.21817017,-42.96373749,0,0,0,101.68383789,-0.11357849,-6.3162303,1,0,0,0,-0.04287124,0.14230917,0.00658828,0,0,0,0
1,233.66,23366,0.08013624,-1.13168418,0.16020235,4.164114,-49.74282455,-40.58906937,0,0,0,101.72445679,0.3848165,-6.72094059,1,0,0,0,-0.07668512,0.15251885,0.04281872,0,0,0,0
1,233.67,23367,0.05853256,-1.16074502,0.12276806,0.90856379,-55.00798798,-38.98387527,0,0,0,101.72847748,0.87831742,-7.180336,1,0,0,0,-0.04640385,0.1816927,0.08046535,0,0,0,0
1,233.68,23368,0.03945562,-1.09690857,0.17313555,1.22585607,-52.98928452,-37.4240303,0,0,0,101.72486115,1.34934676,-7.62215042,1,0,0,0,-0.01894611,0.11799599,0.03009935,0,0,0,0
1,233.69,23369,0.03859571,-1.04661763,0.17223221,1.279598,-48.13231659,-37.48992538,0,0,0,101.72679901,1.81423676,-8.01739502,1,0,0,0,-0.00994326,0.06788953,0.03090672,0,0,0,0
1,233.7,23370,0.05449787,-1.00529397,0.18740475,0.79270625,-42.64612198,-36.49182892,0,0,0,101.72253418,2.258214,-8.36100578,1,0,0,0,-0.01797338,0.0268188,0.01569055,0,0,0,0
1,233.71,23371,0.0791317,-0.97170013,0.22158477,-0.11208343,-40.64641571,-35.26723862,0,0,0,101.7073288,2.68608284,-8.68768692,1,0,0,0,-0.03506323,-0.00651547,-0.01873535,0,0,0,0
1,233.72,23372,0.08504479,-0.93732858,0.26354638,-2.20386553,-41.83257294,-34.06568146,0,0,0,101.66802979,3.10442448,-9.02875805,1,0,0,0,-0.03360479,-0.04065271,-0.06130282,0,0,0,0
1,233.73,23373,0.0853426,-0.91463757,0.2726436,-3.23435354,-43.16541672,-32.96633148,0,0,0,101.62969208,3.5190568,-9.38710976,1,0,0,0,-0.02669876,-0.06310983,-0.07123131,0,0,0,0
1,233.74,23374,0.07237055,-0.91274154,0.26313218,-4.64086151,-42.96842575,-32.33432388,0,0,0,101.56014252,3.92217422,-9.74377728,1,0,0,0,-0.00658511,-0.06475267,-0.06269886,0,0,0,0
1,233.75,23375,0.07468402,-0.89599293,0.26329508,-6.72787952,-40.61221313,-31.4060421,0,0,0,101.46873474,4.31099176,-10.07989693,1,0,0,0,-0.00202178,-0.0813266,-0.0643905,0,0,0,0
1,233.76,23376,0.08557524,-0.89127469,0.25325486,-7.46258593,-36.523983,-30.63138962,0,0,0,101.37073517,4.683568,-10.37816429,1,0,0,0,-0.00632087,-0.08588244,-0.0560765,0,0,0,0
1,233.77,23377,0.10557932,-0.89187247,0.2244315,-7.61170435,-31.19817924,-29.27183342,0,0,0,101.27352142,5.03184223,-10.62750626,1,0,0,0,-0.02011245,-0.08512172,-0.02904788,0,0,0,0
1,233.78,23378,0.14471801,-0.92141503,0.19727223,-7.73697281,-28.44032288,-27.62786674,0,0,0,101.17728424,5.37287092,-10.8538332,1,0,0,0,-0.0533696,-0.05539277,-0.00362587,0,0,0,0
1,233.79,23379,0.14484327,-0.92375869,0.19456738,-7.21382332,-27.34724045,-26.06395912,0,0,0,101.08405304,5.68140078,-11.07286549,1,0,0,0,-0.04783943,-0.05284312,-0.00263849,0,0,0,0
1,233.8,23380,0.13106331,-0.93632191,0.19703546,-6.33013105,-24.75042152,-24.78422165,0,0,0,101.0008316,5.9720645,-11.26933193,1,0,0,0,-0.02889211,-0.04006343,-0.00669201,0,0,0,0
1,233.81,23381,0.14671236,-0.93461931,0.19222981,-4.72502804,-22.34492302,-23.98804665,0,0,0,100.93498993,6.25007915,-11.44406033,1,0,0,0,-0.0396398,-0.0415,-0.00322019,0,0,0,0
1,233.82,23382,0.17347544,-0.93767881,0.16521583,-2.03905082,-24.21651077,-22.27557182,0,0,0,100.89270782,6.51464319,-11.64090252,1,0,0,0,-0.06175034,-0.03811149,0.02279764,0,0,0,0
1,233.83,23383,0.15790746,-0.9555642,0.15163854,0.86562246,-30.60272789,-22.87639236,0,0,0,100.86516571,6.80254173,-11.89982033,1,0,0,0,-0.04141141,-0.01978424,0.03577045,0,0,0,0
1,233.84,23384,0.08746075,-0.97187048,0.1674092,3.14620066,-35.68816757,-24.87166786,0,0,0,100.85958862,7.11404562,-12.20569801,1,0,0,0,0.03431042,-0.00291145,0.01959245,0,0,0,0
1,233.85,23385,-0.00523817,-0.96915829,0.19917646,5.19913769,-34.20879364,-30.35658836,0,0,0,100.87593842,7.47665358,-12.48669624,1,0,0,0,0.13293165,-0.00486439,-0.01217119,0,0,0,0
1,233.86,23386,-0.06361976,-0.97209209,0.20139015,7.09162378,-25.1921463,-37.11561966,0,0,0,100.92303467,7.88873053,-12.66551304,1,0,0,0,0.19813496,-0.00093576,-0.01399134,0,0,0,0
1,233.87,23387,-0.03540752,-1.00100398,0.17148784,10.1615448,-16.16173553,-44.88635635,0,0,0,101.01422882,8.36013603,-12.7395153,1,0,0,0,0.17765456,0.02928957,0.01700946,0,0,0,0
1,233.88,23388,-0.04532148,-1.03268027,0.18252483,11.06742859,-16.23437119,-53.5428772,0,0,0,101.11062622,8.87623024,-12.79632092,1,0,0,0,0.19642559,0.06258169,0.00739504,0,0,0,0
1,233.89,23389,-0.12319965,-1.06289542,0.21844456,12.98586369,-14.78825092,-63.01634979,0,0,0,101.23684692,9.52309227,-12.81958675,1,0,0,0,0.2843318,0.09471853,-0.02697811,0,0,0,0
1,233.9,23390,-0.15427597,-1.11536002,0.2104608,14.33388329,-9.14691639,-74.44579315,0,0,0,101.39012909,10.27100945,-12.7624054,1,0,0,0,0.32764965,0.14969748,-0.01700988,0,0,0,0
1,233.91,23391,-0.09531113,-1.17330194,0.13298503,17.6571312,-3.12636185,-84.54749298,0,0,0,101.59272766,11.10575867,-12.62216377,1,0,0,0,0.28244221,0.2107482,0.06311256,0,0,0,0
1,233.92,23392,-0.06534167,-1.22209871,0.08321752,18.26708221,-4.67382383,-94.39022827,0,0,0,101.80519867,12.0395298,-12.47350693,1,0,0,0,0.26780796,0.26325208,0.11577532,0,0,0,0
1,233.93,23393,-0.08129819,-1.2437911,0.0535727,20.25064468,-7.54968071,-104.51042175,0,0,0,102.02494812,13.05403328,-12.32877731,1,0,0,0,0.30070478,0.28929707,0.14835753,0,0,0,0
1,233.94,23394,-0.11630184,-1.26963472,0.04942561,22.31491089,-9.40329266,-114.26957703,0,0,0,102.2841568,14.19091129,-12.17579174,1,0,0,0,0.35409665,0.32022017,0.15559222,0,0,0,0
1,233.95,23395,-0.15447555,-1.29951847,0.06801701,24.51201439,-9.13573074,-124.25032043,0,0,0,102.57640839,15.42394733,-11.99144268,1,0,0,0,0.41251713,0.35617429,0.14049569,0,0,0,0
1,233.96,23396,-0.16465224,-1.31488061,0.10010225,26.74841499,-8.40893173,-133.98117065,0,0,0,102.9054718,16.74931145,-11.76931381,1,0,0,0,0.44439223,0.37860435,0.11223568,0,0,0,0
1,233.97,23397,-0.18625762,-1.33580422,0.12834667,29.27789879,-10.40563393,-143.5552063,0,0,0,103.26855469,18.17115021,-11.53480911,1,0,0,0,0.4891178,0.4077132,0.08815014,0,0,0,0
1,233.98,23398,-0.24370623,-1.39086616,0.13700105,31.36844444,-16.11166,-152.81762695,0,0,0,103.64415741,19.6734848,-11.32554626,1,0,0,0,0.57106757,0.47212169,0.08364806,0,0,0,0
1,233.99,23399,-0.34181529,-1.50137472,0.14076748,31.5429306,-22.87108231,-162.62896729,0,0,0,104.02185822,21.30729103,-11.14744949,1,0,0,0,0.69504356,0.5931946,0.08366702,0,0,0,0
1,234,23400,-0.47938919,-1.61303771,0.17040591,30.13113403,-27.08077049,-170.72842407,0,0,0,104.38689423,23.02882385,-10.9785099,1,0,0,0,0.86008298,0.71682775,0.05720339,0,0,0,0
1,234.01,23401,-0.56757474,-1.6967032,0.17346993,31.23346138,-31.50876427,-178.26629639,0,0,0,104.76282501,24.83343506,-10.8213644,1,0,0,0,0.97668284,0.81381154,0.05685959,0,0,0,0
1,234.02,23402,-0.59410971,-1.76361907,0.11599498,35.8636322,-43.30418015,-184.37672424,0,0,0,105.14884949,26.72655106,-10.7576685,1,0,0,0,1.03260946,0.89557338,0.11665387,0,0,0,0
1,234.03,23403,-0.62728924,-1.83082509,0.03877961,40.44541931,-62.01856995,-189.27320862,0,0,0,105.49695587,28.70339203,-10.86982441,1,0,0,0,1.0961113,0.9791854,0.19535643,0,0,0,0
1,234.04,23404,-0.55884284,-1.82436156,0.14307755,48.58411407,-71.9105835,-192.09680176,0,0,0,105.88394928,30.74720764,-11.06922054,1,0,0,0,1.05848455,0.99061716,0.0917106,0,0,0,0
1,234.05,23405,-0.16076699,-1.75990903,0.38309404,69.14192963,-57.5689621,-197.65658569,0,0,0,106.57569885,32.8055687,-11.07046509,1,0,0,0,0.69116509,0.94620496,-0.14549544,0,0,0,0
1,234.06,23406,0.17580396,-1.83357728,0.50454468,92.55613708,-23.11371994,-206.82902527,0,0,0,107.76333618,34.84947968,-10.60190487,1,0,0,0,0.38457513,1.04278946,-0.25856605,0,0,0,0
1,234.07,23407,0.46812722,-1.95877695,0.29662269,91.90870667,5.86881495,-215.52645874,0,0,0,109.21784973,36.87443161,-9.68917656,1,0,0,0,0.12125043,1.19349587,-0.0380734,0,0,0,0
1,234.08,23408,0.23385,-2.09575534,0.37310323,60.57295227,-21.30957413,-218.08821106,0,0,0,110.23758698,38.99027252,-9.0107708,1,0,0,0,0.3845126,1.35680795,-0.10577524,0,0,0,0
1,234.09,23409,-0.32847378,-1.91574121,0.44898677,37.87036896,-20.39628029,-214.0022583,0,0,0,111.0909729,41.06450653,-8.27372932,1,0,0,0,0.9751783,1.20257688,-0.17869328,0,0,0,0
1,234.1,23410,-0.5721671,-1.71817589,0.44404802,42.75792313,13.29368973,-203.58538818,0,0,0,112.3084259,42.90677643,-7.09524727,1,0,0,0,1.24443126,1.03093719,-0.16897444,0,0,0,0
1,234.11,23411,-0.37992784,-1.47686028,0.49414846,40.84458923,40.89294434,-182.74510193,0,0,0,113.75912476,44.42851257,-5.5864954,1,0,0,0,1.07305336,0.81444514,-0.21006355,0,0,0,0
1,234.12,23412,0.00040381,-1.0232209,0.36218223,27.67960358,35.56215668,-159.54789734,0,0,0,115.02150726,45.7347641,-4.19453907,1,0,0,0,0.70986646,0.38304588,-0.06954744,0,0,0,0
1,234.13,23413,0.47874311,-0.86446571,0.37349102,28.69207191,20.67939568,-132.0171051,0,0,0,116.07930756,46.78477478,-3.11382437,1,0,0,0,0.24568191,0.24346843,-0.074268,0,0,0,0
1,234.14,23414,-0.30307111,-1.07751393,0.24655834,15.90363121,-19.01031876,-92.99038696,0,0,0,116.49952698,47.7026825,-2.75808907,1,0,0,0,1.0390408,0.47091323,0.05404845,0,0,0,0
1,234.15,23415,-0.27496961,-0.74642467,0.01303784,11.74832535,-8.72053146,-49.01783752,0,0,0,116.77403259,48.17998505,-2.54642606,1,0,0,0,1.01839113,0.14892043,0.28747505,0,0,0,0
1,234.16,23416,-0.34753066,-0.68131155,-0.0941978,0.97346187,-31.34370232,-16.28926468,0,0,0,116.55113983,48.46625519,-2.85767841,1,0,0,0,1.09500837,0.0876978,0.39235443,0,0,0,0
1,234.17,23417,-0.38486844,-0.5372721,-0.11537603,-9.08795738,-32.65866852,9.62963486,0,0,0,116.08110046,48.52475739,-3.36380219,1,0,0,0,1.13409901,-0.05666181,0.40845245,0,0,0,0
1,234.18,23418,-0.4056029,-0.41962388,-0.08884324,-13.44338512,-15.42751789,33.89492798,0,0,0,115.57093811,48.20898056,-3.83126831,1,0,0,0,1.15318513,-0.1784559,0.3776598,0,0,0,0
1,234.19,23419,-0.39060053,-0.36994472,-0.03265213,-18.07731438,7.82333517,58.5145874,0,0,0,115.19049835,47.64681244,-4.10002851,1,0,0,0,1.13237739,-0.2362304,0.31954682,0,0,0,0
1,234.2,23420,-0.36258921,-0.35503769,0.00489006,-24.69861221,27.66707039,83.94086456,0,0,0,114.83091736,46.7691803,-4.25331736,1,0,0,0,1.09538674,-0.2618168,0.28229821,0,0,0,0
1,234.21,23421,-0.29979247,-0.38777772,0.02208536,-30.58369637,44.26821899,109.70487213,0,0,0,114.46748352,45.58748627,-4.33300924,1,0,0,0,1.01977193,-0.24317726,0.26685843,0,0,0,0
1,234.22,23422,-0.22590147,-0.41567162,-0.00390343,-38.42698288,55.93479919,134.85722351,0,0,0,114.03946686,44.12816238,-4.39507723,1,0,0,0,0.92922229,-0.2326602,0.29536593,0,0,0,0
1,234.23,23423,-0.16853777,-0.45713305,-0.03359018,-46.20092392,58.65062714,156.64831543,0,0,0,113.46717072,42.42973709,-4.53715849,1,0,0,0,0.85164249,-0.2115695,0.32706821,0,0,0,0
1,234.24,23424,-0.13702659,-0.4854795,-0.04767786,-55.34974289,63.80262756,183.20977783,0,0,0,112.79606628,40.49430847,-4.71468401,1,0,0,0,0.7961942,-0.20641091,0.34210634,0,0,0,0
1,234.25,23425,-0.12316366,-0.51308042,-0.05885286,-63.20000839,70.4436264,204.05064392,0,0,0,112.05928802,38.33941269,-4.87959623,1,0,0,0,0.7546593,-0.2040344,0.35353678,0,0,0,0
1,234.26,23426,-0.10127793,-0.56174296,-0.05429133,-71.40357208,76.77555847,223.43980408,0,0,0,111.26087952,35.9794426,-5.01912546,1,0,0,0,0.70137584,-0.1821191,0.34824139,0,0,0,0
1,234.27,23427,-0.05630109,-0.6078462,-0.05363061,-79.25405121,81.84669495,241.84729004,0,0,0,110.40237427,33.42802048,-5.13489294,1,0,0,0,0.62121314,-0.16379955,0.34563616,0,0,0,0
1,234.28,23428,-0.00084291,-0.67175972,-0.05023503,-87.54254913,85.42983246,258.77267456,0,0,0,109.4622879,30.69129562,-5.23402262,1,0,0,0,0.52676725,-0.12825239,0.33865762,0,0,0,0
1,234.29,23429,0.05984087,-0.73484904,-0.05819174,-97.28647614,81.50177002,273.80740356,0,0,0,108.42334747,27.83689499,-5.36946058,1,0,0,0,0.42364308,-0.09359363,0.3405214,0,0,0,0
1,234.3,23430,0.06550775,-0.79230565,-0.03929644,-105.61346436,76.38864136,287.74337769,0,0,0,107.2902298,24.86384964,-5.54287815,1,0,0,0,0.37263331,-0.06383081,0.31283849,0,0,0,0
1,234.31,23431,0.04606462,-0.85835242,-0.05135754,-113.42677307,73.6156311,301.40316772,0,0,0,106.0867691,21.76539803,-5.71760702,1,0,0,0,0.34361559,-0.02435249,0.31350422,0,0,0,0
1,234.32,23432,0.02945262,-0.96686262,-0.04514235,-120.34073639,70.0178833,316.45962524,0,0,0,104.8214798,18.52865982,-5.89717627,1,0,0,0,0.30841401,0.05917051,0.29344869,0,0,0,0
1,234.33,23433,0.05780753,-1.09330118,-0.03628527,-126.27323914,68.56954193,330.98696899,0,0,0,103.50708771,15.14667225,-6.0493989,1,0,0,0,0.22494638,0.16276571,0.26832217,0,0,0,0
1,234.34,23434,0.09536867,-1.2324121,0.01585224,-129.17030334,66.54698944,343.05548096,0,0,0,102.18813324,11.65406609,-6.16659403,1,0,0,0,0.12907723,0.28187281,0.19807971,0,0,0,0
1,234.35,23435,0.10115317,-1.40288949,0.07660016,-134.42121887,64.40148926,354.27645874,0,0,0,100.83052826,8.05412865,-6.24362898,1,0,0,0,0.06234857,0.43578842,0.11738247,0,0,0,0
1,234.36,23436,0.09009071,-1.61314535,0.17137644,-143.13264465,62.61118317,364.03900146,0,0,0,99.39616394,4.36057234,-6.26692247,1,0,0,0,0.01014525,0.63330376,0.00034239,0,0,0,0
1,234.37,23437,0.10689013,-1.83250105,0.31955841,-150.3440094,72.25466156,372.88552856,0,0,0,97.89820099,0.56592453,-6.11320114,1,0,0,0,-0.07206108,0.84419006,-0.17248826,0,0,0,0
1,234.38,23438,0.24298765,-2.02890468,0.46978801,-154.66523743,84.13485718,378.7131958,0,0,0,96.34326172,-3.2937808,-5.74813318,1,0,0,0,-0.27516919,1.03693247,-0.34919512,0,0,0,0
1,234.39,23439,0.47888276,-2.18630791,0.54177564,-159.95761108,85.10436249,377.5819397,0,0,0,94.69902039,-7.13382626,-5.26290417,1,0,0,0,-0.5781818,1.19575131,-0.44945335,0,0,0,0
1,234.4,23440,0.63032788,-2.30071855,0.59902149,-163.72531128,88.12210083,365.01177979,0,0,0,92.96032715,-10.83433342,-4.62018633,1,0,0,0,-0.79469144,1.31648564,-0.5367434,0,0,0,0
1,234.41,23441,0.76480293,-2.40035152,0.71811366,-157.806427,101.74510193,340.63613892,0,0,0,91.18180084,-14.27471161,-3.70487046,1,0,0,0,-0.98980558,1.4266808,-0.68662661,0,0,0,0
1,234.42,23442,0.94095999,-2.40059543,0.89128375,-147.75413513,109.97078705,316.56622314,0,0,0,89.39547729,-17.44562531,-2.57842088,1,0,0,0,-1.22122622,1.4408319,-0.89017636,0,0,0,0
1,234.43,23443,1.02834237,-2.20042276,1.1756525,-135.9813385,103.35263824,288.34545898,0,0,0,87.66046143,-20.29707718,-1.41013372,1,0,0,0,-1.35812354,1.25691223,-1.20361316,0,0,0,0
1,234.44,23444,1.27623141,-1.8727603,1.48960781,-107.75627899,92.41518402,253.73019409,0,0,0,86.1641922,-22.78062057,-0.2704342,1,0,0,0,-1.64885306,0.94641554,-1.54302955,0,0,0,0
1,234.45,23445,1.78759623,-1.43656135,1.46529305,-67.36384583,68.29084778,216.85061646,0,0,0,85.11703491,-24.89082336,0.65506542,1,0,0,0,-2.19635415,0.52683461,-1.53735876,0,0,0,0
1,234.46,23446,2.37492132,-1.15795326,1.21909869,-31.05532646,24.9789505,172.63769531,0,0,0,84.61277771,-26.58797646,1.10333526,1,0,0,0,-2.81308937,0.26285464,-1.30119097,0,0,0,0
1,234.47,23447,2.50203562,-1.12568426,1.06907439,-8.58650208,-22.13380814,119.20479584,0,0,0,84.58311462,-27.79563904,0.98203951,1,0,0,0,-2.96194315,0.24173066,-1.15321493,0,0,0,0
1,234.48,23448,2.08861446,-1.04171646,1.14734793,5.59344578,-41.75947571,61.03515244,0,0,0,84.83843231,-28.43207932,0.57044756,1,0,0,0,-2.56190705,0.16454346,-1.22829747,0,0,0,0
1,234.49,23449,1.78880668,-0.93669277,1.19738615,17.81548119,-34.6356163,-25.31879234,0,0,0,85.2147522,-28.20996475,0.15373389,1,0,0,0,-2.26381421,0.05997103,-1.27302659,0,0,0,0
1,234.5,23450,1.62285674,-0.99219269,1.13334012,34.78252792,-12.15750599,-96.76300049,0,0,0,85.66714478,-27.25522041,-0.07007767,1,0,0,0,-2.08705044,0.10921742,-1.20297956,0,0,0,0
1,234.51,23451,1.12752461,-1.50255406,0.8632499,55.268116,3.322258,-141.69908142,0,0,0,86.25328064,-25.83943176,-0.14480567,1,0,0,0,-1.57200229,0.60895658,-0.92542183,0,0,0,0
1,234.52,23452,0.56462973,-1.37367547,0.3141709,66.35150146,10.88236427,-175.23898315,0,0,0,86.91320038,-24.08321762,-0.13913117,1,0,0,0,-0.98346829,0.46719489,-0.36689174,0,0,0,0
1,234.53,23453,-2.45507383,-1.89904344,-1.34903729,1.5656085,-42.99545288,-147.57252502,0,0,0,87.14453888,-22.6337204,-0.68854678,1,0,0,0,2.06217337,0.98068273,1.30216658,0,0,0,0
1,234.54,23454,-1.80982149,-1.002967,-0.39485663,42.83675003,30.32953835,-121.19198608,0,0,0,87.47575378,-21.40925789,-0.4246124,1,0,0,0,1.43756998,0.07586755,0.35151875,0,0,0,0
1,234.55,23455,-0.1014395,-1.16012371,-0.05901053,77.54301453,102.22894287,-118.54673767,0,0,0,87.88201904,-20.18386269,0.6168322,1,0,0,0,-0.25138152,0.22518109,0.02213632,0,0,0,0
1,234.56,23456,1.35428262,-1.89799011,0.28868288,84.50195312,106.6842804,-154.13766479,0,0,0,88.36793518,-18.60770798,1.69390309,1,0,0,0,-1.68351626,0.95426285,-0.31894144,0,0,0,0
1,234.57,23457,0.51148427,-1.86080348,0.58378333,85.31803894,54.97969055,-166.58665466,0,0,0,89.05635071,-16.92945671,2.23148251,1,0,0,0,-0.81304389,0.90761173,-0.60402429,0,0,0,0
1,234.58,23458,0.39688912,-1.51632309,0.22241825,86.50830078,32.51150131,-158.36154175,0,0,0,89.83377838,-15.32067776,2.55445981,1,0,0,0,-0.67130375,0.5547806,-0.23005733,0,0,0,0
1,234.59,23459,0.34979537,-1.13708305,0.1563971,78.22746277,12.76611996,-153.38317871,0,0,0,90.58117676,-13.78714848,2.69200873,1,0,0,0,-0.59768897,0.16834407,-0.15133305,0,0,0,0
1,234.6,23460,0.24420802,-0.69056886,0.98563409,93.32161713,14.63866043,-136.06420898,0,0,0,91.4753952,-12.42957878,2.86629915,1,0,0,0,-0.46783456,-0.28389049,-0.96671021,0,0,0,0
1,234.61,23461,0.34086159,-1.08759415,0.56329167,100.63032532,19.88439178,-120.02759552,0,0,0,92.43097687,-11.23649025,3.11152291,1,0,0,0,-0.5433197,0.10898101,-0.52759874,0,0,0,0
1,234.62,23462,0.42432508,-1.32690585,-0.01997099,64.24210358,-27.14904213,-118.61428833,0,0,0,93.11309052,-10.03833103,2.89434195,1,0,0,0,-0.60633016,0.34486538,0.06923296,0,0,0,0
1,234.63,23463,0.46876919,-0.97190541,0.28521979,65.08234406,-36.45527649,-109.19724274,0,0,0,93.8322525,-8.90923119,2.58646941,1,0,0,0,-0.63100767,-0.01293357,-0.22416176,0,0,0,0
1,234.64,23464,0.09955346,-1.18189192,0.33121234,59.55858994,-65.85340881,-96.56183624,0,0,0,94.51420593,-7.89806557,1.99358499,1,0,0,0,-0.24322842,0.19502805,-0.25756705,0,0,0,0
1,234.65,23465,0.20770763,-1.03402233,0.17441793,50.06413269,-77.79341888,-80.85466766,0,0,0,95.10723877,-7.02695608,1.28017342,1,0,0,0,-0.33559,0.04585381,-0.08990008,0,0,0,0
1,234.66,23466,-0.09918763,-1.04865456,0.10658056,43.62973022,-89.35775757,-74.78753662,0,0,0,95.63845825,-6.19860077,0.45509747,1,0,0,0,-0.01409164,0.05958501,-0.0123097,0,0,0,0
1,234.67,23467,-0.11115497,-1.06673717,0.11739256,46.45154953,-63.89650726,-67.64474487,0,0,0,96.16110229,-5.46032381,-0.11396882,1,0,0,0,0.01126638,0.07713635,-0.01398444,0,0,0,0
1,234.68,23468,-0.1221072,-1.10701716,0.16193634,47.4558754,-30.63674355,-66.40746307,0,0,0,96.66020203,-4.76633215,-0.34627941,1,0,0,0,0.0345524,0.1172214,-0.04959155,0,0,0,0
1,234.69,23469,-0.01321295,-1.08479702,0.12588608,43.28643036,-11.32851887,-65.48133087,0,0,0,97.09577942,-4.10270882,-0.38041568,1,0,0,0,-0.06261498,0.09498146,-0.00546783,0,0,0,0
1,234.7,23470,0.10090504,-1.12470996,0.20992263,41.98830414,-11.32713127,-60.05818558,0,0,0,97.51796722,-3.49254298,-0.4164989,1,0,0,0,-0.16571738,0.13503926,-0.08210073,0,0,0,0
1,234.71,23471,0.19237226,-1.12032163,0.34510005,33.51369858,-37.08026505,-52.24346161,0,0,0,97.86947632,-2.92494655,-0.71438885,1,0,0,0,-0.24708787,0.13093793,-0.21050483,0,0,0,0
1,234.72,23472,0.09669583,-1.10731602,0.2371867,24.06427765,-65.19434357,-45.17960358,0,0,0,98.13697052,-2.38667655,-1.29768312,1,0,0,0,-0.14181004,0.11815727,-0.09746777,0,0,0,0
1,234.73,23473,0.01779284,-1.10814607,0.23686081,18.15535545,-77.41812134,-40.6316185,0,0,0,98.3493042,-1.8765136,-2.00728965,1,0,0,0,-0.05383232,0.1192015,-0.09304655,0,0,0,0
1,234.74,23474,-0.10250644,-1.08553994,0.1725637,13.44220352,-68.4151535,-39.90781403,0,0,0,98.50143433,-1.38152325,-2.62582493,1,0,0,0,0.07518891,0.09675883,-0.02573338,0,0,0,0
1,234.75,23475,-0.0244,-1.10926402,0.19885865,11.15832615,-48.16477966,-39.39613342,0,0,0,98.62142944,-0.9202314,-3.04351354,1,0,0,0,0.00536266,0.12063864,-0.04968713,0,0,0,0
1,234.76,23476,0.05077533,-1.12425661,0.16872697,6.50872421,-49.24264908,-37.82950974,0,0,0,98.69168091,-0.47209969,-3.47340012,1,0,0,0,-0.06194825,0.13574342,-0.01802226,0,0,0,0
1,234.77,23477,0.06452442,-1.11340225,0.13911127,3.01560473,-56.6071434,-36.43864059,0,0,0,98.72398376,-0.02618888,-3.97776771,1,0,0,0,-0.0678932,0.12495406,0.01239424,0,0,0,0
1,234.78,23478,0.02535127,-1.15224445,0.07017767,-1.56389332,-62.86650085,-35.00395584,0,0,0,98.69068146,0.41474172,-4.54297686,1,0,0,0,-0.02097983,0.16379866,0.08131847,0,0,0,0
1,234.79,23479,0.02408007,-1.14797556,0.06957983,-4.78824091,-64.17442322,-34.2274437,0,0,0,98.63639069,0.84979939,-5.12586212,1,0,0,0,-0.01209968,0.15944609,0.08095705,0,0,0,0
1,234.8,23480,-0.03443598,-1.11597145,0.10314777,-5.94254637,-61.55695343,-34.9699173,0,0,0,98.56661224,1.28764367,-5.68229866,1,0,0,0,0.05403386,0.12739094,0.04624957,0,0,0,0
1,234.81,23481,-0.01103929,-1.08915508,0.08268015,-6.47217941,-55.02267075,-36.51382065,0,0,0,98.48902893,1.73035955,-6.17245197,1,0,0,0,0.0383442,0.10056114,0.06541297,0,0,0,0
1,234.82,23482,-0.00653502,-1.04093969,0.1164237,-8.13412094,-48.03601456,-37.61855316,0,0,0,98.3934021,2.1729908,-6.59262848,1,0,0,0,0.04155198,0.05235167,0.03007763,0,0,0,0
1,234.83,23483,0.02822264,-1.00824726,0.15083236,-7.13196564,-41.43081665,-39.26786804,0,0,0,98.31233978,2.61672473,-6.94684505,1,0,0,0,0.01456402,0.01972154,-0.00598263,0,0,0,0
1,234.84,23484,0.03308417,-0.97680604,0.18264091,-3.84230757,-38.48978424,-39.09846497,0,0,0,98.25783539,3.05908442,-7.27179861,1,0,0,0,0.01741228,-0.0115142,-0.03887547,0,0,0,0
1,234.85,23485,0.02263277,-0.95125157,0.18345983,-2.24665928,-36.54654694,-40.25003052,0,0,0,98.21794891,3.50979853,-7.57632256,1,0,0,0,0.03562545,-0.03675933,-0.04050718,0,0,0,0
1,234.86,23486,0.03185531,-0.92976975,0.19805123,-1.62180018,-32.68014145,-41.1570549,0,0,0,98.1844635,3.96377563,-7.84164476,1,0,0,0,0.03431638,-0.05784525,-0.05580847,0,0,0,0
1,234.87,23487,0.05503416,-0.91729939,0.20252231,-0.36330152,-28.12386131,-41.48622513,0,0,0,98.16477966,4.41440773,-8.06163025,1,0,0,0,0.01900007,-0.06982997,-0.06078403,0,0,0,0
1,234.88,23488,0.06862609,-0.90222049,0.19448875,1.41778445,-24.84267616,-41.31184769,0,0,0,98.17723083,4.8584218,-8.25118923,1,0,0,0,0.01317184,-0.08432315,-0.05294036,0,0,0,0
1,234.89,23489,0.10162984,-0.91322196,0.18387324,3.39025831,-22.39835739,-41.49966812,0,0,0,98.19669342,5.30108261,-8.41444397,1,0,0,0,-0.01212079,-0.07260834,-0.04202016,0,0,0,0
1,234.9,23490,0.11383744,-0.92208195,0.1736892,4.608109,-21.51896477,-41.78418732,0,0,0,98.22794342,5.7453742,-8.56846237,1,0,0,0,-0.01663557,-0.0629663,-0.03146757,0,0,0,0
1,234.91,23491,0.11352275,-0.9380303,0.15717508,5.92654419,-20.21064568,-40.33246994,0,0,0,98.27237701,6.17351961,-8.71138382,1,0,0,0,-0.0087716,-0.04616387,-0.01440043,0,0,0,0
1,234.92,23492,0.10323617,-0.94564706,0.15093872,8.0810976,-17.20872879,-39.93847275,0,0,0,98.34062195,6.59357023,-8.82468033,1,0,0,0,0.00886638,-0.0376057,-0.00726291,0,0,0,0
1,234.93,23493,0.11583805,-0.98608017,0.12368923,9.75529289,-15.29686642,-39.49894333,0,0,0,98.41824341,7.00568533,-8.91837025,1,0,0,0,0.00346441,0.00385235,0.02119407,0,0,0,0
1,234.94,23494,0.10810142,-0.98748517,0.09368046,10.54845047,-14.59005737,-41.11024094,0,0,0,98.51311493,7.43378735,-9.00282478,1,0,0,0,0.01844787,0.00636521,0.05255275,0,0,0,0
1,234.95,23495,0.06677926,-0.96249175,0.09208409,10.72085476,-13.01733017,-45.27610779,0,0,0,98.61207581,7.90087605,-9.06468678,1,0,0,0,0.06760216,-0.01735985,0.05565536,0,0,0,0
1,234.96,23496,0.02593203,-0.94139725,0.08584744,11.93876457,-6.83192301,-50.11785507,0,0,0,98.73265839,8.40661335,-9.0565834,1,0,0,0,0.1169239,-0.03699452,0.06360243,0,0,0,0
1,234.97,23497,0.00656939,-0.95430022,0.11397469,12.66449451,-0.72862649,-56.79195404,0,0,0,98.871521,8.96894932,-8.97594547,1,0,0,0,0.14562035,-0.02236299,0.03754802,0,0,0,0
1,234.98,23498,-0.00897028,-0.99046302,0.16324431,13.01044273,1.92407441,-63.48459625,0,0,0,99.02758026,9.55812931,-8.85776806,1,0,0,0,0.17134221,0.01579434,-0.00946707,0,0,0,0
1,234.99,23499,-0.04398542,-1.05283844,0.19206536,14.85962296,-0.43722859,-71.60217285,0,0,0,99.19520569,10.26581573,-8.74706078,1,0,0,0,0.21751775,0.08049314,-0.03580249,0,0,0,0
1,235,23500,-0.04806412,-1.10612524,0.14130105,18.02151299,-5.60291767,-81.3263092,0,0,0,99.38977051,11.07745171,-8.66971397,1,0,0,0,0.23484531,0.13668214,0.01768245,0,0,0,0
1,235.01,23501,-0.03905075,-1.14229274,0.0788958,18.9285202,-7.41727018,-90.3008728,0,0,0,99.5945282,11.9803257,-8.59235859,1,0,0,0,0.24073149,0.17633623,0.08306807,0,0,0,0
1,235.02,23502,-0.05625125,-1.14924121,0.04311986,18.796875,-5.20533609,-98.90026093,0,0,0,99.80809021,12.96393871,-8.47419834,1,0,0,0,0.27419657,0.18732248,0.12176643,0,0,0,0
1,235.03,23503,-0.07911019,-1.16321242,0.03750992,19.5212841,1.10356987,-107.63683319,0,0,0,100.03533936,13.99058151,-8.27342796,1,0,0,0,0.31444946,0.20593882,0.13046727,0,0,0,0
1,235.04,23504,-0.0880088,-1.19552207,0.07139829,19.40830994,8.427104,-116.03618622,0,0,0,100.30422974,15.1178112,-7.97603321,1,0,0,0,0.34158859,0.24351779,0.09992795,0,0,0,0
1,235.05,23505,-0.1057423,-1.25450718,0.13500094,18.29049683,9.78826332,-123.96858215,0,0,0,100.5774231,16.31923485,-7.64263344,1,0,0,0,0.37906629,0.30863291,0.03986851,0,0,0,0
1,235.06,23506,-0.1244582,-1.29489112,0.19699138,19.36154366,4.36580086,-131.16777039,0,0,0,100.85832214,17.59993935,-7.34277534,1,0,0,0,0.41869903,0.3559624,-0.01868301,0,0,0,0
1,235.07,23507,-0.20993812,-1.36865115,0.22727109,19.52304268,-8.739851,-138.77890015,0,0,0,101.11237335,18.9789772,-7.15457869,1,0,0,0,0.5264793,0.43758804,-0.04595493,0,0,0,0
1,235.08,23508,-0.32766387,-1.47852564,0.2295658,19.07038307,-20.82451057,-147.07043457,0,0,0,101.32971954,20.43988037,-7.06862164,1,0,0,0,0.66790324,0.55628949,-0.04608459,0,0,0,0
1,235.09,23509,-0.45465854,-1.5995636,0.18634041,18.25687599,-32.24827957,-154.21232605,0,0,0,101.50797272,22.01533699,-7.08014059,1,0,0,0,0.81981015,0.6871562,-0.0016341,0,0,0,0
1,235.1,23510,-0.57847661,-1.68807161,0.15378831,17.77615166,-41.6687355,-162.03462219,0,0,0,101.65059662,23.68636322,-7.17012739,1,0,0,0,0.97002667,0.78674674,0.03123666,0,0,0,0
1,235.11,23511,-0.71337301,-1.76348364,0.06891748,19.26307297,-52.64300156,-170.47679138,0,0,0,101.76543427,25.4624958,-7.35659885,1,0,0,0,1.13261604,0.87459177,0.1155542,0,0,0,0
1,235.12,23512,-0.77414781,-1.83191633,-0.01735738,23.52510643,-66.46971893,-178.61907959,0,0,0,101.85890198,27.34693336,-7.67487955,1,0,0,0,1.22238505,0.95701718,0.20052154,0,0,0,0
1,235.13,23513,-0.80310029,-1.86665308,-0.06634524,29.12181473,-78.56376648,-186.9672699,0,0,0,101.93915558,29.3248806,-8.1119957,1,0,0,0,1.28147423,1.00745332,0.24756321,0,0,0,0
1,235.14,23514,-0.45366883,-1.84556532,0.12737125,40.91918945,-65.08358002,-197.46974182,0,0,0,102.21831512,31.39180565,-8.37111568,1,0,0,0,0.96283644,1.00403643,0.05283196,0,0,0,0
1,235.15,23515,0.11133804,-1.84590125,0.46339527,61.66025925,-29.80014801,-214.40431213,0,0,0,102.94771576,33.54901886,-8.16306973,1,0,0,0,0.42940027,1.02514672,-0.27943406,0,0,0,0
1,235.16,23516,0.2828224,-1.99417782,0.39503822,78.17957306,-2.53944016,-222.0372467,0,0,0,104.0712738,35.71370697,-7.56286621,1,0,0,0,0.28931239,1.19719505,-0.20178324,0,0,0,0
1,235.17,23517,0.15597405,-2.03696799,0.29012483,70.93658447,1.06742406,-223.28849792,0,0,0,105.21058655,37.87137985,-6.84462404,1,0,0,0,0.4466857,1.26551104,-0.08634535,0,0,0,0
1,235.18,23518,-0.17396066,-1.98422635,0.54716319,55.40257263,-6.43546438,-217.42961121,0,0,0,106.19067383,39.96846008,-6.1681428,1,0,0,0,0.80593377,1.2386601,-0.33591831,0,0,0,0
1,235.19,23519,-0.46512657,-1.80004132,0.55774093,51.28660202,9.83482456,-203.170578,0,0,0,107.29318237,41.88566971,-5.26927328,1,0,0,0,1.12361503,1.07985604,-0.33951151,0,0,0,0
1,235.2,23520,-0.50665981,-1.58217478,0.34582373,51.18305588,30.60704994,-184.09533691,0,0,0,108.59812927,43.54264832,-4.1009841,1,0,0,0,1.18789387,0.88639146,-0.11840259,0,0,0,0
1,235.21,23521,-0.24946439,-1.25231874,0.29750928,38.49032974,45.69140244,-162.93815613,0,0,0,109.92686462,44.93003845,-2.74869704,1,0,0,0,0.94949424,0.57890284,-0.06001358,0,0,0,0
1,235.22,23522,0.36965957,-0.95762539,0.30755639,36.56997299,53.87255096,-143.23666382,0,0,0,111.31963348,46.0810051,-1.30986559,1,0,0,0,0.34568745,0.30429676,-0.05979281,0,0,0,0
1,235.23,23523,0.44175401,-1.02454722,0.37624788,38.46481323,36.71326065,-106.43392181,0,0,0,112.46846008,46.85105133,-0.25056106,1,0,0,0,0.284879,0.38812295,-0.11751277,0,0,0,0
1,235.24,23524,-0.18970209,-0.96714967,0.16458187,22.8043766,2.94511437,-64.4848938,0,0,0,112.99429321,47.43444443,0.15558277,1,0,0,0,0.92402482,0.34144169,0.09857222,0,0,0,0
1,235.25,23525,-0.22480012,-0.7683453,0.00969951,17.4517765,-8.50582695,-32.72341156,0,0,0,113.22360992,47.76889801,0.23003031,1,0,0,0,0.96391046,0.14913769,0.25543278,0,0,0,0
1,235.26,23526,-0.37400043,-0.61626875,-0.05805214,8.0674448,-30.64365196,-2.42101192,0,0,0,113.00337982,47.91149902,-0.1757258,1,0,0,0,1.11569238,-0.00065941,0.32128498,0,0,0,0
1,235.27,23527,-0.43408298,-0.44628659,-0.03726096,-0.02736354,-23.96679306,22.55308533,0,0,0,112.66221619,47.79666138,-0.63533723,1,0,0,0,1.17561138,-0.17225595,0.29714358,0,0,0,0
1,235.28,23528,-0.42661738,-0.35239568,0.00895407,-4.26547241,-4.2400322,46.82885742,0,0,0,112.35823059,47.30098724,-0.97738117,1,0,0,0,1.16437459,-0.27140284,0.24907966,0,0,0,0
1,235.29,23529,-0.37346306,-0.30877849,0.03734279,-9.9870863,19.86125183,71.27936554,0,0,0,112.16591644,46.5661087,-1.10369742,1,0,0,0,1.10320961,-0.32409388,0.22136128,0,0,0,0
1,235.3,23530,-0.34242502,-0.29208332,0.06607519,-17.72959518,40.25491333,95.71091461,0,0,0,112.00213623,45.52789307,-1.08478165,1,0,0,0,1.06102133,-0.35240063,0.19513753,0,0,0,0
1,235.31,23531,-0.28638765,-0.33715448,0.04960508,-25.11414909,56.65005112,119.32095337,0,0,0,111.83073425,44.20948029,-0.97171116,1,0,0,0,0.99007189,-0.32206473,0.21537538,0,0,0,0
1,235.32,23532,-0.20838861,-0.39206582,0.02238215,-33.24040222,65.43481445,141.80038452,0,0,0,111.57744598,42.65000153,-0.8567701,1,0,0,0,0.89357752,-0.28473157,0.24669142,0,0,0,0
1,235.33,23533,-0.16075319,-0.44376636,-0.00062338,-42.87729263,67.36103821,166.15989685,0,0,0,111.15045166,40.82839966,-0.83774614,1,0,0,0,0.82388186,-0.25341535,0.27286103,0,0,0,0
1,235.34,23534,-0.13901898,-0.45476201,-0.00911439,-54.91825104,69.55752563,189.74703979,0,0,0,110.57967377,38.80761337,-0.87155801,1,0,0,0,0.77615094,-0.26569152,0.28280276,0,0,0,0
1,235.35,23535,-0.11818541,-0.4588351,-0.01338263,-63.7078476,74.26320648,208.00419617,0,0,0,109.92443085,36.59913254,-0.90108979,1,0,0,0,0.72611409,-0.28637561,0.28716829,0,0,0,0
1,235.36,23536,-0.11449042,-0.49774617,-0.0112035,-71.49519348,83.21887207,226.054245,0,0,0,109.2282486,34.19048309,-0.86843902,1,0,0,0,0.68958706,-0.27337328,0.2841318,0,0,0,0
1,235.37,23537,-0.09780574,-0.58816791,0.0254078,-79.53433228,90.3667984,243.80606079,0,0,0,108.47632599,31.59126854,-0.78827888,1,0,0,0,0.63624644,-0.20962706,0.2455745,0,0,0,0
1,235.38,23538,-0.04871739,-0.67717689,0.03377697,-88.4960022,93.61069489,261.20812988,0,0,0,107.6293335,28.80147934,-0.69880408,1,0,0,0,0.54663467,-0.14768825,0.23356955,0,0,0,0
1,235.39,23539,-0.03099063,-0.73822224,0.05742725,-97.81315613,90.92562866,276.37475586,0,0,0,106.67897797,25.89248657,-0.63854289,1,0,0,0,0.48482656,-0.11362508,0.20366299,0,0,0,0
1,235.4,23540,-0.0210609,-0.78346562,0.09102136,-102.1627121,89.37549591,290.93408203,0,0,0,105.67900848,22.84934044,-0.58612072,1,0,0,0,0.42776278,-0.09433636,0.16159394,0,0,0,0
1,235.41,23541,-0.03758212,-0.8874073,0.11456253,-107.45496368,87.73036957,303.70135498,0,0,0,104.62496948,19.68862724,-0.5294233,1,0,0,0,0.39395714,-0.01486477,0.12759151,0,0,0,0
1,235.42,23542,-0.04487092,-1.00000834,0.13119295,-113.7032547,86.45922089,319.89706421,0,0,0,103.50775909,16.37551117,-0.46498182,1,0,0,0,0.34768105,0.07511978,0.09814629,0,0,0,0
1,235.43,23543,-0.03035992,-1.12646878,0.15583216,-114.79351807,87.772789,333.69772339,0,0,0,102.38600159,12.91993523,-0.35392669,1,0,0,0,0.27611372,0.18140772,0.05899191,0,0,0,0
1,235.44,23544,-0.00150725,-1.2598052,0.22635713,-116.32679749,88.93045044,346.24203491,0,0,0,101.25423431,9.34887981,-0.1896296,1,0,0,0,0.18709552,0.29769191,-0.02746175,0,0,0,0
1,235.45,23545,0.02341714,-1.42594242,0.25777915,-121.19810486,88.61043549,357.53234863,0,0,0,100.06964111,5.67142344,0.02136311,1,0,0,0,0.09944665,0.45037109,-0.07665107,0,0,0,0
1,235.46,23546,0.04034327,-1.6296308,0.34570786,-127.85748291,93.56891632,367.62930298,0,0,0,98.81126404,1.89177954,0.34190804,1,0,0,0,0.01751499,0.64458233,-0.18461195,0,0,0,0
1,235.47,23547,0.14512625,-1.83307397,0.49334234,-130.69128418,107.64167786,375.30206299,0,0,0,97.50292206,-1.975631,0.87490451,1,0,0,0,-0.15420496,0.84303653,-0.3542558,0,0,0,0
1,235.48,23548,0.43512294,-2.01106334,0.60256183,-133.5199585,110.35552979,377.2935791,0,0,0,96.12528229,-5.84912395,1.52358568,1,0,0,0,-0.51185334,1.0209204,-0.48711649,0,0,0,0
1,235.49,23549,0.689529,-2.12210202,0.61766762,-140.95677185,100.2658844,371.98092651,0,0,0,94.62726593,-9.64659595,2.17864132,1,0,0,0,-0.83267725,1.13666916,-0.5280183,0,0,0,0
1,235.5,23550,0.82163751,-2.25127387,0.66890836,-141.95051575,89.61714172,358.35818481,0,0,0,93.07500458,-13.28225803,2.84503055,1,0,0,0,-1.02845764,1.27507496,-0.60648328,0,0,0,0
1,235.51,23551,1.04193902,-2.37573886,0.72396827,-134.24694824,80.76809692,331.8583374,0,0,0,91.55250549,-16.63071823,3.5414567,1,0,0,0,-1.30738592,1.41243696,-0.6882652,0,0,0,0
1,235.52,23552,1.17389059,-2.34306455,0.90439093,-125.32554626,68.39630127,305.89703369,0,0,0,90.08925629,-19.69923973,4.21489048,1,0,0,0,-1.49233615,1.39532065,-0.89389217,0,0,0,0
1,235.53,23553,1.21035814,-2.17980289,1.1142379,-117.75242615,51.16560364,279.75494385,0,0,0,88.70737457,-22.4860363,4.79263592,1,0,0,0,-1.57628417,1.24936342,-1.12695956,0,0,0,0
1,235.54,23554,1.36614585,-1.82339346,1.43059659,-95.06678772,35.19133377,246.74052429,0,0,0,87.56671143,-24.94060516,5.2650671,1,0,0,0,-1.77361178,0.91083497,-1.46293759,0,0,0,0
1,235.55,23555,1.74209452,-1.34738052,1.43610048,-58.20557404,18.93208504,212.27180481,0,0,0,86.84201813,-27.05158234,5.59162569,1,0,0,0,-2.18494463,0.45201427,-1.48184907,0,0,0,0
1,235.56,23556,2.17420697,-1.14834058,1.18159568,-22.00477028,-12.38424683,171.38647461,0,0,0,86.63646698,-28.7698288,5.56263018,1,0,0,0,-2.6461482,0.26823199,-1.23272467,0,0,0,0
1,235.57,23557,2.27008033,-1.15536749,0.92276603,-1.50840175,-48.65517807,118.38550568,0,0,0,86.8577652,-29.97947884,5.08257055,1,0,0,0,-2.76354575,0.28702307,-0.97213614,0,0,0,0
1,235.58,23558,1.93648243,-1.1110611,0.87061739,11.37644482,-66.070755,53.22311401,0,0,0,87.34820557,-30.5310421,4.34606934,1,0,0,0,-2.44231129,0.24949874,-0.91348737,0,0,0,0
1,235.59,23559,1.70820045,-1.00738442,0.89072531,24.01045227,-51.26025772,-28.49546814,0,0,0,87.89616394,-30.26770592,3.7387917,1,0,0,0,-2.2145505,0.14576222,-0.92548549,0,0,0,0
1,235.6,23560,1.66235304,-1.04618764,0.87085396,35.56151962,-35.27647018,-89.95793152,0,0,0,88.47062683,-29.37988472,3.29962325,1,0,0,0,-2.15863395,0.17844611,-0.89734387,0,0,0,0
1,235.61,23561,1.2690922,-1.29784966,0.74880028,51.46379852,-24.34664536,-135.38154602,0,0,0,89.13430786,-28.03153801,2.98974228,1,0,0,0,-1.74727654,0.41979155,-0.76607805,0,0,0,0
1,235.62,23562,0.34570432,-1.51411676,0.1796961,59.38375092,-20.41470528,-154.75117493,0,0,0,89.84066772,-26.48603249,2.7450738,1,0,0,0,-0.80101305,0.62384284,-0.18599364,0,0,0,0
1,235.63,23563,-2.81478691,-1.81969237,-0.76916653,17.23408127,-44.15013504,-145.04804993,0,0,0,90.22367096,-25.03616524,2.2572844,1,0,0,0,2.38378668,0.91736889,0.77104938,0,0,0,0
1,235.64,23564,-2.17888713,-1.17772627,-1.06210113,34.28221512,12.26100349,-107.91344452,0,0,0,90.50993347,-23.95822716,2.39805055,1,0,0,0,1.76629972,0.26684374,1.06797647,0,0,0,0
1,235.65,23565,0.15603773,-1.23164535,-0.49245161,69.65583038,74.61640167,-128.13777161,0,0,0,90.87802887,-22.68646812,3.2281394,1,0,0,0,-0.5498172,0.31254551,0.50471067,0,0,0,0
1,235.66,23566,1.06817925,-1.94282711,0.02915284,65.09152222,83.14109039,-170.04940796,0,0,0,91.18274689,-21.00094414,4.15670252,1,0,0,0,-1.43724203,1.0136199,-0.0120392,0,0,0,0
1,235.67,23567,0.54971987,-1.88870144,0.479036,75.2443161,47.56247711,-179.37768555,0,0,0,91.74315643,-19.21918678,4.71128368,1,0,0,0,-0.88988334,0.94870222,-0.45440465,0,0,0,0
1,235.68,23568,0.12314164,-1.50719321,0.2609995,82.77458191,21.14793396,-175.1789856,0,0,0,92.48032379,-17.45871925,5.00305367,1,0,0,0,-0.43422168,0.55755877,-0.22441421,0,0,0,0
1,235.69,23569,-0.02687711,-1.00645018,0.08338097,72.40163422,13.20298958,-171.75085449,0,0,0,93.14004517,-15.74980736,5.22854328,1,0,0,0,-0.25515664,0.04831314,-0.03488062,0,0,0,0
1,235.7,23570,-0.04644448,-0.48271263,0.82770401,82.95169067,33.07049561,-153.48162842,0,0,0,93.85723877,-14.23826981,5.66626453,1,0,0,0,-0.20876561,-0.48226264,-0.76748484,0,0,0,0
1,235.71,23571,0.50094998,-0.8019492,1.09086454,119.02143097,72.57655334,-134.03330994,0,0,0,94.84855652,-12.95726109,6.51510239,1,0,0,0,-0.73308253,-0.16773367,-1.01490605,0,0,0,0
1,235.72,23572,0.66125762,-1.53504753,-0.02632867,77.56318665,19.48588181,-130.23194885,0,0,0,95.55384827,-11.6772089,6.83611107,1,0,0,0,-0.87212425,0.56178427,0.11712576,0,0,0,0
1,235.73,23573,0.53339368,-1.08201313,0.28449526,58.46237564,-22.68369102,-132.10525513,0,0,0,96.17824554,-10.29452705,6.73803711,1,0,0,0,-0.72105432,0.10505013,-0.18314347,0,0,0,0
1,235.74,23574,0.16363858,-1.12151146,0.40514645,61.59486008,-46.07297897,-122.44480896,0,0,0,96.84766388,-9.02527428,6.41486359,1,0,0,0,-0.32864618,0.14179109,-0.29169145,0,0,0,0
1,235.75,23575,0.52993572,-1.1024996,0.06850693,46.76974487,-71.56104279,-102.00233459,0,0,0,97.40174866,-7.92414331,5.8248148,1,0,0,0,-0.67465341,0.12083863,0.05544325,0,0,0,0
1,235.76,23576,0.12732783,-1.12812948,0.11150142,43.29174423,-92.05751038,-84.75475311,0,0,0,97.9388504,-6.961236,5.01875734,1,0,0,0,-0.25461844,0.14531013,0.02204667,0,0,0,0
1,235.77,23577,-0.13061759,-1.09522176,0.19345909,45.35214615,-66.71777344,-74.47172546,0,0,0,98.45636749,-6.12926769,4.4608655,1,0,0,0,0.01858122,0.11185072,-0.05060482,0,0,0,0
1,235.78,23578,-0.1018026,-1.05461359,0.26541418,44.50782013,-29.11966705,-72.39070892,0,0,0,98.93444061,-5.3675499,4.27665091,1,0,0,0,0.00338207,0.07107455,-0.11393657,0,0,0,0
1,235.79,23579,-0.10445879,-1.00182867,0.23161793,40.50670624,3.30711055,-69.80704498,0,0,0,99.32717133,-4.68372107,4.42059231,1,0,0,0,0.01845567,0.01830752,-0.07263649,0,0,0,0
1,235.8,23580,0.06178088,-1.10756958,0.17371425,38.21506119,22.56007195,-64.5997467,0,0,0,99.68413544,-4.08388901,4.75075769,1,0,0,0,-0.13683987,0.12422843,-0.00819983,0,0,0,0
1,235.81,23581,0.22042242,-1.10020387,0.32936195,32.96894455,7.72950125,-55.94330597,0,0,0,100.00209045,-3.54575062,4.92296791,1,0,0,0,-0.28570646,0.11716212,-0.1580206,0,0,0,0
1,235.82,23582,0.19907767,-1.0474664,0.40611729,23.26093102,-39.36543655,-46.82516479,0,0,0,100.25185394,-3.01539111,4.61734629,1,0,0,0,-0.25516468,0.06471054,-0.22994393,0,0,0,0
1,235.83,23583,0.01024658,-1.07639873,0.25728399,13.95826149,-69.25453186,-40.36150742,0,0,0,100.42102051,-2.49696994,4.00746489,1,0,0,0,-0.05716878,0.09379812,-0.07759762,0,0,0,0
1,235.84,23584,-0.09189088,-1.07379508,0.19030447,9.22524452,-60.32109833,-39.48078918,0,0,0,100.5338974,-1.99904525,3.48573732,1,0,0,0,0.0538097,0.09124617,-0.0082567,0,0,0,0
1,235.85,23585,-0.02992916,-1.10482407,0.21969701,3.83661532,-40.17990494,-40.54231644,0,0,0,100.58218384,-1.5268364,3.16492105,1,0,0,0,0.00021798,0.12222919,-0.03634084,0,0,0,0
1,235.86,23586,0.03134738,-1.09424543,0.24606881,-2.56795454,-38.57464981,-38.67758942,0,0,0,100.5634613,-1.07583117,2.85664034,1,0,0,0,-0.05303985,0.11146018,-0.06260832,0,0,0,0
1,235.87,23587,0.03288392,-1.09078228,0.22528562,-5.64183187,-45.4354744,-34.66104126,0,0,0,100.51275635,-0.65197098,2.47330356,1,0,0,0,-0.04700359,0.1077307,-0.04251236,0,0,0,0
1,235.88,23588,0.05790396,-1.10410988,0.20757057,-7.00296307,-52.14169312,-30.75113869,0,0,0,100.44483948,-0.24089175,2.01785827,1,0,0,0,-0.06485827,0.12079695,-0.02579299,0,0,0,0
1,235.89,23589,0.08556709,-1.10773003,0.14428663,-11.16112423,-58.94130325,-28.6280117,0,0,0,100.33362579,0.14700478,1.4897573,1,0,0,0,-0.08553699,0.12409349,0.03586629,0,0,0,0
1,235.9,23590,0.05274566,-1.08190668,0.1801419,-12.33460999,-63.91414261,-25.66242409,0,0,0,100.20691681,0.51346356,0.90659863,1,0,0,0,-0.04616315,0.09790076,-0.00213727,0,0,0,0
1,235.91,23591,0.0229659,-1.03957295,0.20121154,-13.7691803,-62.99849701,-25.03909683,0,0,0,100.06226349,0.87081397,0.33046904,1,0,0,0,-0.01007,0.05520585,-0.02556514,0,0,0,0
1,235.92,23592,0.00497247,-0.98991621,0.22456738,-12.83633423,-55.71892166,-23.44226456,0,0,0,99.92475128,1.19837677,-0.17767151,1,0,0,0,0.01384797,0.00520718,-0.0513882,0,0,0,0
1,235.93,23593,0.02879674,-0.96757734,0.25064456,-10.05325031,-45.70236206,-22.11580086,0,0,0,99.83193207,1.49943292,-0.5937084,1,0,0,0,-0.00460695,-0.01736575,-0.07947302,0,0,0,0
1,235.94,23594,0.06122826,-0.94052404,0.23861782,-8.04358101,-42.1937027,-20.80409622,0,0,0,99.74061584,1.77615237,-0.97430849,1,0,0,0,-0.0320216,-0.04454342,-0.06895041,0,0,0,0
1,235.95,23595,0.06072887,-0.93010259,0.22343405,-5.31702328,-40.8779335,-19.89450073,0,0,0,99.67511749,2.04116821,-1.34390128,1,0,0,0,-0.02683794,-0.0550402,-0.05507939,0,0,0,0
1,235.96,23596,0.0587262,-0.92405385,0.18565373,-2.6065495,-39.71160507,-19.49394608,0,0,0,99.63546753,2.29993653,-1.70296526,1,0,0,0,-0.02028186,-0.06107304,-0.01818602,0,0,0,0
1,235.97,23597,0.05966863,-0.94491553,0.15349944,-0.73588306,-38.49555206,-19.92248726,0,0,0,99.61340332,2.56070709,-2.04951501,1,0,0,0,-0.01668335,-0.04011065,0.01345539,0,0,0,0
1,235.98,23598,0.04365159,-0.96432996,0.13657627,1.9833343,-37.09945297,-20.41178513,0,0,0,99.61338043,2.82016659,-2.38091016,1,0,0,0,0.00385662,-0.02051391,0.03022858,0,0,0,0
1,235.99,23599,0.01755448,-0.97252059,0.15895152,3.51943612,-34.68501663,-22.60701752,0,0,0,99.63284302,3.10103011,-2.68550086,1,0,0,0,0.03468199,-0.01205795,0.00800519,0,0,0,0
1,236,23600,-0.00720291,-0.97529411,0.14940071,6.23557091,-30.47692871,-25.96798706,0,0,0,99.68060303,3.40813589,-2.94282103,1,0,0,0,0.06460775,-0.00890148,0.01811443,0,0,0,0
1,236.01,23601,0.02611732,-1.02234817,0.13380171,7.90451717,-25.60375595,-27.85586929,0,0,0,99.74688721,3.72589374,-3.14858484,1,0,0,0,0.03678507,0.03866243,0.03473047,0,0,0,0
1,236.02,23602,0.03294852,-1.0262816,0.12862106,7.75543404,-22.38762093,-29.81103134,0,0,0,99.81288147,4.0576992,-3.31896424,1,0,0,0,0.03561416,0.04315667,0.04097214,0,0,0,0
1,236.03,23603,0.05549197,-1.0368396,0.13416308,9.39950275,-23.3422699,-32.13480377,0,0,0,99.88270569,4.41080523,-3.49268198,1,0,0,0,0.01909337,0.05435494,0.03659298,0,0,0,0
1,236.04,23604,0.04598016,-1.02006233,0.12848502,10.01349449,-27.33391762,-36.09168243,0,0,0,99.96612549,4.81343651,-3.70038867,1,0,0,0,0.0352269,0.03831498,0.04348498,0,0,0,0
1,236.05,23605,-0.05214049,-0.98494112,0.17544359,9.96948433,-28.7177124,-42.26716232,0,0,0,100.04737854,5.27957487,-3.91055965,1,0,0,0,0.14102605,0.00408387,-0.00220086,0,0,0,0
1,236.06,23606,-0.10163751,-0.97917634,0.17917806,11.37303925,-22.18524742,-49.94195175,0,0,0,100.14850616,5.81013775,-4.04202938,1,0,0,0,0.19931319,-0.00059062,-0.00450953,0,0,0,0
1,236.07,23607,-0.15767767,-1.01315498,0.17986271,11.58063316,-15.71296692,-59.17773819,0,0,0,100.25901794,6.42038441,-4.09209681,1,0,0,0,0.26541439,0.03475013,-0.00348986,0,0,0,0
1,236.08,23608,-0.12288203,-1.05835938,0.19034226,12.44732475,-13.60250664,-69.10298157,0,0,0,100.37802887,7.08773232,-4.10329723,1,0,0,0,0.24202354,0.08159016,-0.01225192,0,0,0,0
1,236.09,23609,-0.13584618,-1.10790086,0.15826334,14.15215778,-17.39735413,-79.4230957,0,0,0,100.51598358,7.90034485,-4.13060427,1,0,0,0,0.26784256,0.13314006,0.02174153,0,0,0,0
1,236.1,23610,-0.14474379,-1.13849425,0.06999471,17.36948776,-20.43823242,-93.74263,0,0,0,100.68551636,8.8593626,-4.15935612,1,0,0,0,0.29240286,0.16640827,0.11227559,0,0,0,0
1,236.11,23611,-0.16851491,-1.17642903,0.0156118,18.30475807,-18.12538528,-105.43375397,0,0,0,100.8718338,9.92897415,-4.13994455,1,0,0,0,0.33390033,0.20768675,0.16920501,0,0,0,0
1,236.12,23612,-0.19853434,-1.19054258,0.0014115,19.27185631,-11.51698971,-117.51209259,0,0,0,101.08526611,11.10449982,-4.02733755,1,0,0,0,0.38342857,0.22586247,0.18612996,0,0,0,0
1,236.13,23613,-0.19755338,-1.24204588,0.03257549,20.94124222,-3.15548515,-129.43836975,0,0,0,101.32770538,12.34945011,-3.8028388,1,0,0,0,0.4035292,0.28227389,0.15814219,0,0,0,0
1,236.14,23614,-0.20931135,-1.28900826,0.09896302,21.64172363,2.81367898,-140.4360199,0,0,0,101.615242,13.72014809,-3.48785019,1,0,0,0,0.43764013,0.33500898,0.09521218,0,0,0,0
1,236.15,23615,-0.23800573,-1.34301102,0.17751513,23.28198242,3.29083228,-150.26750183,0,0,0,101.93535614,15.18449211,-3.13791704,1,0,0,0,0.49053442,0.395942,0.02056379,0,0,0,0
1,236.16,23616,-0.24086551,-1.40113044,0.24154563,24.70842171,-3.54161167,-159.01010132,0,0,0,102.26766205,16.74671364,-2.8271873,1,0,0,0,0.51905376,0.46212953,-0.03948814,0,0,0,0
1,236.17,23617,-0.32619172,-1.44719505,0.23667786,26.22471428,-16.55406952,-167.12667847,0,0,0,102.59247589,18.41446495,-2.61944079,1,0,0,0,0.63157153,0.51746273,-0.03107756,0,0,0,0
1,236.18,23618,-0.44862622,-1.54841423,0.19353969,28.32773018,-35.46858215,-175.72250366,0,0,0,102.88586426,20.18596458,-2.57692242,1,0,0,0,0.78278291,0.62928474,0.01493827,0,0,0,0
1,236.19,23619,-0.59707904,-1.62093318,0.14394563,29.29567719,-45.52254868,-183.16752625,0,0,0,103.16685486,22.07312393,-2.60979986,1,0,0,0,0.96124911,0.71374023,0.06651537,0,0,0,0
1,236.2,23620,-0.71545041,-1.69539344,0.11550277,32.61720276,-54.95980072,-191.52656555,0,0,0,103.45279694,24.06349373,-2.71190524,1,0,0,0,1.11111033,0.8018496,0.0964773,0,0,0,0
1,236.21,23621,-0.81021702,-1.78452075,0.02510317,37.89546585,-69.48365021,-199.33952332,0,0,0,103.73431396,26.16440392,-2.94051123,1,0,0,0,1.23862958,0.90643895,0.18779808,0,0,0,0
1,236.22,23622,-0.84032762,-1.90633523,-0.00833619,45.43603897,-87.91630554,-204.68887329,0,0,0,104.00112915,28.36239624,-3.3489604,1,0,0,0,1.3025378,1.04560709,0.22138901,0,0,0,0
1,236.23,23623,-0.68600637,-1.89137042,0.10558167,60.52668381,-89.54742432,-207.81518555,0,0,0,104.40066528,30.58267021,-3.76279998,1,0,0,0,1.18225193,1.04989386,0.10781226,0,0,0,0
1,236.24,23624,-0.12030192,-1.81766891,0.42079669,87.45835876,-51.56550598,-217.58403015,0,0,0,105.31324768,32.81723785,-3.69424486,1,0,0,0,0.64991522,0.99806237,-0.20257917,0,0,0,0
1,236.25,23625,0.51158625,-2.01864052,0.20474514,109.30393219,0.460466,-229.74995422,0,0,0,106.83822632,35.02312469,-2.92204261,1,0,0,0,0.05037824,1.22460091,0.02664377,0,0,0,0
1,236.26,23626,0.35507369,-2.21246934,0.41288728,64.84358215,-23.09182739,-236.8855896,0,0,0,107.84175873,37.35321808,-2.31886101,1,0,0,0,0.23933649,1.44564748,-0.17098519,0,0,0,0
1,236.27,23627,-0.16570815,-2.0341711,0.59298873,44.5273819,-17.73767853,-234.98141479,0,0,0,108.74073792,39.6398201,-1.59210837,1,0,0,0,0.79222286,1.29456937,-0.3473593,0,0,0,0
1,236.28,23628,-0.40614074,-1.89242685,0.6846019,58.5661087,25.19968796,-228.87229919,0,0,0,110.18509674,41.69817352,-0.2760593,1,0,0,0,1.06155252,1.18098962,-0.43129623,0,0,0,0
1,236.29,23629,-0.421386,-1.69577718,0.39986253,52.64481354,48.44489288,-208.10426331,0,0,0,111.81327057,43.46730042,1.35118175,1,0,0,0,1.10119772,1.01211596,-0.13461006,0,0,0,0
1,236.3,23630,-0.19890678,-1.21304548,0.25689092,43.36844635,42.79121399,-177.67883301,0,0,0,113.29416656,44.94419861,2.85316896,1,0,0,0,0.89866054,0.55430335,0.0193844,0,0,0,0
1,236.31,23631,0.49074531,-0.83744532,0.34421253,44.20711899,40.74342728,-148.92713928,0,0,0,114.73309326,46.13905334,4.24928474,1,0,0,0,0.22518755,0.20060986,-0.05816235,0,0,0,0
1,236.32,23632,-0.2553089,-1.0899868,0.24631682,39.36087418,-8.56617832,-102.21894073,0,0,0,115.50311279,47.10123444,4.76827621,1,0,0,0,0.98376858,0.47053814,0.04626477,0,0,0,0
1,236.33,23633,-0.41296601,-0.89810073,0.07060598,33.53957367,-18.97779274,-53.29030228,0,0,0,115.80115509,47.5074501,4.78432274,1,0,0,0,1.14954388,0.28894293,0.22329143,0,0,0,0
1,236.34,23634,-0.49524119,-0.71319729,-0.08239311,25.05587578,-44.53503799,-18.12197304,0,0,0,115.69728088,47.86437988,4.30543232,1,0,0,0,1.23538697,0.10772479,0.37494093,0,0,0,0
1,236.35,23635,-0.54483438,-0.54137057,-0.14694992,12.26041222,-61.82959366,15.84910202,0,0,0,115.1255722,47.98664093,3.37045074,1,0,0,0,1.28760016,-0.06366643,0.4336991,0,0,0,0
1,236.36,23636,-0.51820403,-0.42059085,-0.10880335,7.21478271,-47.58323669,44.02496338,0,0,0,114.5151825,47.78681946,2.45078421,1,0,0,0,1.26003146,-0.18845612,0.38942501,0,0,0,0
1,236.37,23637,-0.44942945,-0.3718181,-0.02804562,2.02158403,-22.53451538,69.05764008,0,0,0,114.0008316,47.24983597,1.72637856,1,0,0,0,1.18644452,-0.24472374,0.30494678,0,0,0,0
1,236.38,23638,-0.41935837,-0.34930846,0.02454066,-3.59640813,2.11743784,95.00080109,0,0,0,113.5558548,46.30477142,1.17738497,1,0,0,0,1.14727163,-0.27840525,0.25130635,0,0,0,0
1,236.39,23639,-0.38718858,-0.35582235,0.02515324,-8.19454861,23.7718792,122.29607391,0,0,0,113.19997406,45.08790207,0.79497391,1,0,0,0,1.10128069,-0.28696942,0.25206864,0,0,0,0
1,236.4,23640,-0.32262799,-0.4118354,-0.01563745,-15.85102177,39.53372955,150.32928467,0,0,0,112.82271576,43.54970932,0.48200262,1,0,0,0,1.01913142,-0.24878047,0.29565281,0,0,0,0
1,236.41,23641,-0.25750256,-0.46660161,-0.06239557,-24.06676292,46.69046021,175.32800293,0,0,0,112.35858917,41.75162125,0.15226616,1,0,0,0,0.93235165,-0.21494581,0.34521979,0,0,0,0
1,236.42,23642,-0.2078321,-0.4728241,-0.07970191,-31.8231411,55.32670593,198.74610901,0,0,0,111.83782196,39.70203781,-0.15795866,1,0,0,0,0.85716528,-0.23206061,0.36500323,0,0,0,0
1,236.43,23643,-0.18138084,-0.4964689,-0.05922584,-39.35607529,68.08478546,219.8477478,0,0,0,111.28498077,37.37925339,-0.39121765,1,0,0,0,0.80088991,-0.23382747,0.34686777,0,0,0,0
1,236.44,23644,-0.14889579,-0.52435809,-0.03253765,-48.62386322,81.78527069,240.78919983,0,0,0,110.72583771,34.83826447,-0.51464415,1,0,0,0,0.7339111,-0.23302218,0.32231396,0,0,0,0
1,236.45,23645,-0.13673873,-0.58362699,-0.01176956,-57.5086174,88.54945374,260.43670654,0,0,0,110.09870148,32.08863068,-0.6089918,1,0,0,0,0.6833148,-0.2014564,0.30281687,0,0,0,0
1,236.46,23646,-0.1191097,-0.66764903,-0.02567525,-68.42246246,90.68491364,279.79208374,0,0,0,109.36068726,29.14881134,-0.71491539,1,0,0,0,0.62304038,-0.14569992,0.31601781,0,0,0,0
1,236.47,23647,-0.07266447,-0.76702344,-0.02859441,-79.85017395,85.49181366,296.77490234,0,0,0,108.48188019,26.06417847,-0.88869733,1,0,0,0,0.53019428,-0.07449572,0.31541854,0,0,0,0
1,236.48,23648,-0.01564717,-0.84673166,-0.04483358,-90.06603241,81.26007843,311.88183594,0,0,0,107.48149109,22.83460045,-1.10003471,1,0,0,0,0.42330244,-0.02222946,0.32492658,0,0,0,0
1,236.49,23649,0.03655171,-0.90923536,-0.01613535,-97.38079071,76.14170074,325.22787476,0,0,0,106.42263794,19.50160408,-1.3360467,1,0,0,0,0.31784618,0.01431106,0.28673208,0,0,0,0
1,236.5,23650,0.06400931,-1.00749743,0.00248208,-104.49866486,69.02375031,338.18045044,0,0,0,105.29428864,16.05989075,-1.60934293,1,0,0,0,0.23431198,0.08888914,0.25607336,0,0,0,0
1,236.51,23651,0.06145359,-1.13891411,0.03696587,-110.33864594,61.48294449,353.08981323,0,0,0,104.11442566,12.48851395,-1.92055917,1,0,0,0,0.17769691,0.19928366,0.20709024,0,0,0,0
1,236.52,23652,0.0340865,-1.29117179,0.06730986,-117.76981354,52.00419998,368.52078247,0,0,0,102.87013245,8.78372574,-2.28090906,1,0,0,0,0.14267646,0.33364993,0.15971741,0,0,0,0
1,236.53,23653,0.00261541,-1.48565733,0.12219863,-124.24005127,47.90961075,381.13357544,0,0,0,101.58396912,4.95555449,-2.62197495,1,0,0,0,0.10885153,0.51405001,0.08556005,0,0,0,0
1,236.54,23654,0.01301037,-1.73601151,0.20757066,-132.59365845,47.05822372,392.68774414,0,0,0,100.24275208,1.01084995,-2.90396428,1,0,0,0,0.03058592,0.75470191,-0.02125268,0,0,0,0
1,236.55,23655,0.08644695,-1.98027492,0.33237988,-138.69548035,54.72022247,401.95230103,0,0,0,98.85713959,-3.04339719,-3.03140593,1,0,0,0,-0.11288922,0.9942131,-0.16945899,0,0,0,0
1,236.56,23656,0.24347453,-2.18345261,0.49061438,-141.53962708,59.80009079,407.29672241,0,0,0,97.43983459,-7.15976906,-3.01665926,1,0,0,0,-0.34129465,1.19809306,-0.35260457,0,0,0,0
1,236.57,23657,0.50608659,-2.35350513,0.54510713,-143.27168274,55.16225815,405.70587158,0,0,0,95.99514008,-11.25342178,-2.94286728,1,0,0,0,-0.6749568,1.374511,-0.43282437,0,0,0,0
1,236.58,23658,0.64010644,-2.40967607,0.56931835,-146.13705444,51.4883194,392.62573242,0,0,0,94.49826813,-15.20582104,-2.7857461,1,0,0,0,-0.87757766,1.44228637,-0.48360744,0,0,0,0
1,236.59,23659,0.8474139,-2.55018282,0.61954331,-140.47958374,59.27820587,370.7394104,0,0,0,92.98474884,-18.94349861,-2.42009044,1,0,0,0,-1.14914608,1.59882081,-0.56046069,0,0,0,0
1,236.6,23660,1.05962658,-2.53768277,0.73716778,-131.80839539,63.33353424,341.96496582,0,0,0,91.4777298,-22.38507462,-1.88647819,1,0,0,0,-1.42000055,1.6056397,-0.70390177,0,0,0,0
1,236.61,23661,1.1649766,-2.22667384,1.1110301,-116.72457886,60.40918732,301.74279785,0,0,0,90.05997467,-25.4100647,-1.26978433,1,0,0,0,-1.57661521,1.31550968,-1.10181034,0,0,0,0
1,236.62,23662,1.47428215,-1.7347753,1.33571959,-82.10684204,57.86889267,259.4836731,0,0,0,88.93565369,-27.99946404,-0.59550732,1,0,0,0,-1.92919111,0.84439701,-1.34616494,0,0,0,0
1,236.63,23663,2.11497784,-1.3766892,1.15506208,-43.93038559,35.85934067,215.84898376,0,0,0,88.271492,-30.14126205,-0.1264209,1,0,0,0,-2.60550809,0.50563395,-1.17815459,0,0,0,0
1,236.64,23664,2.55881333,-1.17798281,0.89013064,-18.29030418,-2.95482373,162.1776123,0,0,0,88.07594299,-31.76323891,-0.10025612,1,0,0,0,-3.07683802,0.32311261,-0.9182409,0,0,0,0
1,236.65,23665,2.46204901,-1.15058696,0.86786109,-0.29697281,-27.3790493,104.67468262,0,0,0,88.22479248,-32.81832886,-0.38373682,1,0,0,0,-2.9988246,0.30731601,-0.89510858,0,0,0,0
1,236.66,23666,2.14764071,-1.07773709,0.9728843,10.63621616,-29.19775009,41.85495377,0,0,0,88.51333618,-33.24505997,-0.71747845,1,0,0,0,-2.69435096,0.24074353,-0.99624252,0,0,0,0
1,236.67,23667,1.95079625,-0.99730998,0.95392835,17.30471992,-18.92784882,-35.76683807,0,0,0,88.81520081,-32.89194489,-0.95307189,1,0,0,0,-2.49669743,0.15968028,-0.97295302,0,0,0,0
1,236.68,23668,1.73955023,-1.03272116,0.92247611,33.58394241,-4.39080334,-103.69143677,0,0,0,89.19987488,-31.83945656,-1.03267312,1,0,0,0,-2.27380705,0.1875371,-0.93660295,0,0,0,0
1,236.69,23669,1.00303078,-1.47120559,0.88236302,61.8887825,11.41712379,-164.39855957,0,0,0,89.75906372,-30.19439125,-0.91733092,1,0,0,0,-1.51561105,0.61263955,-0.88951004,0,0,0,0
1,236.7,23670,-0.2184059,-1.46793389,0.28726754,65.35671234,17.94799805,-176.36845398,0,0,0,90.31062317,-28.43081474,-0.70946312,1,0,0,0,-0.26800808,0.59425354,-0.28546312,0,0,0,0
1,236.71,23671,-3.68590832,-1.80426097,-0.70572597,18.16925812,-7.8605175,-142.04179382,0,0,0,90.52760315,-27.00980377,-0.78565705,1,0,0,0,3.22442484,0.91716748,0.71320325,0,0,0,0
1,236.72,23672,-1.28468978,-1.16508353,-0.68660384,67.89167023,80.86963654,-113.20318604,0,0,0,90.79948425,-25.88741875,0.13121209,1,0,0,0,0.84153849,0.2687189,0.69737691,0,0,0,0
1,236.73,23673,1.05027878,-1.61233413,-0.56208962,65.42169189,127.34222412,-145.34848022,0,0,0,90.84186554,-24.44297981,1.56464362,1,0,0,0,-1.47348499,0.70642895,0.57539445,0,0,0,0
1,236.74,23674,1.25121391,-2.23574662,0.02070747,68.41304779,94.19721985,-195.17597961,0,0,0,91.10038757,-22.50658989,2.62738419,1,0,0,0,-1.64594758,1.31713343,-0.00519951,0,0,0,0
1,236.75,23675,0.57400668,-1.965083,0.30701509,77.83253479,43.85396576,-194.8873291,0,0,0,91.68668365,-20.56861877,3.14906859,1,0,0,0,-0.93702263,1.03364897,-0.28348163,0,0,0,0
1,236.76,23676,0.43284878,-1.36296666,0.37230688,84.74351501,23.21380424,-183.17584229,0,0,0,92.42744446,-18.74618149,3.46510839,1,0,0,0,-0.76538235,0.42058361,-0.33701491,0,0,0,0
1,236.77,23677,0.19601749,-0.81598836,0.99944568,89.68206024,3.17202425,-169.08825684,0,0,0,93.28735352,-17.05909348,3.58615375,1,0,0,0,-0.49965328,-0.13549416,-0.95042008,0,0,0,0
1,236.78,23678,0.30175555,-0.73939526,1.08981442,120.47280884,38.93601227,-149.77693176,0,0,0,94.37656403,-15.57031631,4.08161783,1,0,0,0,-0.57943904,-0.21893956,-1.02341771,0,0,0,0
1,236.79,23679,0.36170784,-1.33425629,0.11415336,90.66532135,23.31045914,-139.07929993,0,0,0,95.18940735,-14.20343971,4.44307232,1,0,0,0,-0.61572784,0.37064856,-0.03122671,0,0,0,0
1,236.8,23680,0.77797496,-1.1639905,0.07957216,68.289711,10.8656826,-133.19494629,0,0,0,95.81594086,-12.8882246,4.6855092,1,0,0,0,-1.00917614,0.19572555,0.01508695,0,0,0,0
1,236.81,23681,0.19032411,-1.20143354,0.3426587,64.11653137,-13.46656609,-130.68336487,0,0,0,96.45483398,-11.57401752,4.69173384,1,0,0,0,-0.39948785,0.22932911,-0.2367716,0,0,0,0
1,236.82,23682,0.19966252,-1.11514246,0.3023701,53.47239685,-32.06045532,-115.47801971,0,0,0,97.02493286,-10.38954639,4.50542021,1,0,0,0,-0.38731807,0.13987128,-0.18578333,0,0,0,0
1,236.83,23683,0.47133359,-1.00465643,0.20094496,42.26479721,-63.33830643,-96.23303223,0,0,0,97.53601837,-9.31713867,3.99491167,1,0,0,0,-0.6402629,0.0271455,-0.07484174,0,0,0,0
1,236.84,23684,0.03863186,-1.09243596,0.1342176,33.25842667,-97.8775177,-80.22077942,0,0,0,98.00253296,-8.38995838,3.12310076,1,0,0,0,-0.19041768,0.11323749,0.00034312,0,0,0,0
1,236.85,23685,-0.21531144,-1.11898732,0.12527148,36.5970726,-79.75432587,-73.53829193,0,0,0,98.46470642,-7.54819489,2.43232942,1,0,0,0,0.07864045,0.1387434,0.01763184,0,0,0,0
1,236.86,23686,-0.12856387,-1.08344531,0.22545983,37.60673904,-35.44390488,-68.60098267,0,0,0,98.87229156,-6.81680489,2.18336248,1,0,0,0,0.00522775,0.10257408,-0.07491492,0,0,0,0
1,236.87,23687,-0.12921439,-1.02264106,0.13717265,37.3929863,-1.07981086,-69.08568573,0,0,0,99.23538971,-6.13300228,2.28197813,1,0,0,0,0.01802379,0.04135554,0.01999412,0,0,0,0
1,236.88,23688,0.11010928,-1.12748718,0.19234446,37.87083435,14.70180702,-61.17085648,0,0,0,99.59776306,-5.52178526,2.52785206,1,0,0,0,-0.21042281,0.14606872,-0.02881087,0,0,0,0
1,236.89,23689,0.19625442,-1.11313856,0.39791602,27.87320709,-13.43337727,-52.98058701,0,0,0,99.88009644,-4.97671747,2.48497653,1,0,0,0,-0.28651497,0.13170071,-0.22872901,0,0,0,0
1,236.9,23690,0.13400038,-1.07273078,0.28811851,16.20763397,-54.35786819,-45.16567612,0,0,0,100.07958221,-4.43757248,2.02640986,1,0,0,0,-0.21489964,0.09118257,-0.11488287,0,0,0,0
1,236.91,23691,0.00867634,-1.07832885,0.22688571,10.06571388,-73.90933228,-39.3887825,0,0,0,100.22821808,-3.91950274,1.36660254,1,0,0,0,-0.08036514,0.09659304,-0.05067836,0,0,0,0
1,236.92,23692,-0.06845715,-1.06388974,0.21510598,6.27806473,-71.56298065,-37.28486252,0,0,0,100.33200073,-3.42490339,0.72771132,1,0,0,0,0.00551712,0.0819488,-0.03671142,0,0,0,0
1,236.93,23693,-0.04097492,-1.08440518,0.18934074,3.07612157,-56.65059662,-37.43734741,0,0,0,100.39202118,-2.94629073,0.23707387,1,0,0,0,-0.01355713,0.10221505,-0.00955418,0,0,0,0
1,236.94,23694,-0.00257287,-1.09217858,0.22138856,-1.28600824,-52.48602295,-35.28746033,0,0,0,100.40065002,-2.50447106,-0.21597959,1,0,0,0,-0.04397801,0.10967675,-0.04105923,0,0,0,0
1,236.95,23695,0.01505652,-1.1049186,0.2124545,-2.55247974,-57.29269409,-31.63630295,0,0,0,100.39541626,-2.08989167,-0.7227996,1,0,0,0,-0.05421273,0.12209755,-0.03210617,0,0,0,0
1,236.96,23696,0.04815383,-1.13202405,0.13640428,-6.24773073,-63.32208633,-30.13973045,0,0,0,100.35160065,-1.67936325,-1.29167509,1,0,0,0,-0.0801397,0.14887068,0.04354699,0,0,0,0
1,236.97,23697,0.05760529,-1.1045264,0.16462111,-8.44291782,-66.77259827,-28.00114441,0,0,0,100.28287506,-1.28428984,-1.89865923,1,0,0,0,-0.08259841,0.12097749,0.01427288,0,0,0,0
1,236.98,23698,0.00314563,-1.08008003,0.19403055,-10.56140804,-67.91362,-28.05866051,0,0,0,100.19159698,-0.88711935,-2.51801491,1,0,0,0,-0.02121478,0.09612711,-0.01653081,0,0,0,0
1,236.99,23699,-0.01069008,-1.0265646,0.21201773,-11.02017403,-63.19662094,-27.13997841,0,0,0,100.08840942,-0.50869107,-3.09237146,1,0,0,0,-0.0006466,0.0422091,-0.03619929,0,0,0,0
1,237,23700,-0.0227991,-0.99651194,0.23723546,-11.33846664,-57.19791794,-26.27789879,0,0,0,99.97801208,-0.15026684,-3.6098249,1,0,0,0,0.01786267,0.011778,-0.06324846,0,0,0,0
1,237.01,23701,-0.01186294,-0.98121369,0.2622816,-9.4566927,-50.87923813,-25.4389782,0,0,0,99.88329315,0.18805642,-4.06712246,1,0,0,0,0.01296428,-0.00383839,-0.09003662,0,0,0,0
1,237.02,23702,-0.00302656,-0.96873343,0.26387864,-7.32230234,-49.33583069,-24.44945526,0,0,0,99.80736542,0.51328719,-4.5114336,1,0,0,0,0.0098567,-0.01655199,-0.09310538,0,0,0,0
1,237.03,23703,-0.04081752,-0.95899004,0.24348024,-4.41586256,-47.62919998,-25.47986031,0,0,0,99.77902985,0.82900512,-4.94425344,1,0,0,0,0.05331828,-0.02639687,-0.07361524,0,0,0,0
1,237.04,23704,-0.04656554,-0.94044119,0.22951441,-2.40976238,-42.78213501,-26.70720863,0,0,0,99.7483902,1.16474974,-5.32065535,1,0,0,0,0.06469189,-0.04492809,-0.06005624,0,0,0,0
1,237.05,23705,-0.01823951,-0.940449,0.18291034,1.06281435,-37.4166832,-28.29637909,0,0,0,99.75156403,1.5069766,-5.64160109,1,0,0,0,0.04228438,-0.04482761,-0.01364966,0,0,0,0
1,237.06,23706,-0.00934707,-0.9377383,0.14810725,3.54864573,-32.1554184,-30.53966522,0,0,0,99.77928925,1.86248028,-5.90681791,1,0,0,0,0.03948987,-0.04731628,0.02146828,0,0,0,0
1,237.07,23707,0.00054668,-0.94952518,0.11983406,5.38134003,-26.04510498,-33.30742645,0,0,0,99.82598877,2.23502684,-6.10688972,1,0,0,0,0.03600255,-0.03519975,0.05039382,0,0,0,0
1,237.08,23708,0.03977422,-0.9636513,0.09760715,6.46208334,-18.96026611,-35.14453888,0,0,0,99.85926819,2.61663485,-6.22697067,1,0,0,0,0.00336062,-0.02067176,0.07340176,0,0,0,0
1,237.09,23709,0.05827391,-0.98324084,0.0832865,7.52849913,-14.66499424,-36.73436737,0,0,0,99.93057251,3.00371075,-6.30841494,1,0,0,0,-0.00841313,-0.0006308,0.08848909,0,0,0,0
1,237.1,23710,0.07054671,-1.01366866,0.09396928,7.96227551,-12.49765682,-38.72653198,0,0,0,100.00707245,3.40676308,-6.36455441,1,0,0,0,-0.01377433,0.0303842,0.07901813,0,0,0,0
1,237.11,23711,0.06630348,-1.03338909,0.11532603,8.03470516,-13.72994804,-40.71934891,0,0,0,100.08332825,3.83166623,-6.42885017,1,0,0,0,-0.00228844,0.05076993,0.05890679,0,0,0,0
1,237.12,23712,0.01084738,-0.97840279,0.1453765,8.68580818,-16.3826561,-45.30837631,0,0,0,100.16438293,4.30649137,-6.5106926,1,0,0,0,0.06105429,-0.00344837,0.0301021,0,0,0,0
1,237.13,23713,-0.04348758,-0.93555582,0.18270168,9.28913975,-16.7734108,-52.39002228,0,0,0,100.25563812,4.81948709,-6.58550215,1,0,0,0,0.12427447,-0.04535925,-0.0058606,0,0,0,0
1,237.14,23714,-0.11244399,-0.92173207,0.20894927,9.75158501,-12.82438755,-60.83621597,0,0,0,100.35163879,5.44096756,-6.60291958,1,0,0,0,0.20308581,-0.05805023,-0.03062108,0,0,0,0
1,237.15,23715,-0.14498414,-0.98880994,0.26575431,9.86345577,-6.93181515,-70.1651535,0,0,0,100.45629883,6.14359188,-6.54409313,1,0,0,0,0.24734703,0.01045904,-0.08592402,0,0,0,0
1,237.16,23716,-0.13839792,-1.07496619,0.26845431,11.23660374,-5.18266344,-78.42095184,0,0,0,100.57920837,6.92408895,-6.45128393,1,0,0,0,0.25376201,0.09838845,-0.08687335,0,0,0,0
1,237.17,23717,-0.0616414,-1.10640562,0.2160815,13.50469303,-8.98161697,-86.91059113,0,0,0,100.72353363,7.79483414,-6.37833595,1,0,0,0,0.19147305,0.13201357,-0.03254751,0,0,0,0
1,237.18,23718,-0.089903,-1.12936747,0.09494025,14.67697048,-16.89421844,-97.04523468,0,0,0,100.85665894,8.74968338,-6.36133671,1,0,0,0,0.23585454,0.15764982,0.09064114,0,0,0,0
1,237.19,23719,-0.12772493,-1.16056097,0.03415729,15.41136837,-17.86631584,-108.33514404,0,0,0,101.01578522,9.84724522,-6.33081293,1,0,0,0,0.2914899,0.19205247,0.15330476,0,0,0,0
1,237.2,23720,-0.17057742,-1.18218756,0.01677985,16.16287804,-12.44130993,-119.75983429,0,0,0,101.19760895,11.04635429,-6.22036743,1,0,0,0,0.3543458,0.21771233,0.17290747,0,0,0,0
1,237.21,23721,-0.18294746,-1.20124769,0.04697784,17.78242683,-4.7878294,-130.81887817,0,0,0,101.41894531,12.33851433,-6.00635624,1,0,0,0,0.38823873,0.24165112,0.14534539,0,0,0,0
1,237.22,23722,-0.17238975,-1.25638282,0.09480845,19.67620087,0.88392586,-140.4347229,0,0,0,101.68283081,13.7126379,-5.70883322,1,0,0,0,0.40057859,0.30261368,0.10065681,0,0,0,0
1,237.23,23723,-0.16647059,-1.32312882,0.16862243,21.18748665,-1.04708195,-148.47309875,0,0,0,101.96572113,15.1409874,-5.40655994,1,0,0,0,0.41869164,0.37614053,0.03024201,0,0,0,0
1,237.24,23724,-0.1960403,-1.36730731,0.23076242,23.11151314,-10.68637466,-155.53996277,0,0,0,102.25984192,16.68422508,-5.17585182,1,0,0,0,0.47331899,0.42806792,-0.02855798,0,0,0,0
1,237.25,23725,-0.24086407,-1.40339816,0.23430723,25.83811569,-27.24738884,-162.08576965,0,0,0,102.5437088,18.32583427,-5.08990192,1,0,0,0,0.5449245,0.47314233,-0.02911323,0,0,0,0
1,237.26,23726,-0.38263986,-1.47479439,0.18479067,27.35159492,-45.88515472,-168.32623291,0,0,0,102.78953552,20.06879234,-5.17306852,1,0,0,0,0.71490204,0.55472577,0.02257666,0,0,0,0
1,237.27,23727,-0.56355149,-1.60343111,0.15479603,27.94218826,-58.99866104,-175.5227356,0,0,0,102.99836731,21.9114418,-5.36952353,1,0,0,0,0.92534506,0.69482589,0.05367266,0,0,0,0
1,237.28,23728,-0.69853264,-1.75007486,0.08241435,29.58714867,-71.09319305,-185.15248108,0,0,0,103.17407227,23.85976028,-5.66751957,1,0,0,0,1.09128928,0.85445791,0.12620223,0,0,0,0
1,237.29,23729,-0.76389951,-1.88377798,0.00686782,33.78116608,-87.05031586,-192.05911255,0,0,0,103.32243347,25.92877388,-6.11652517,1,0,0,0,1.18877685,1.00275183,0.20090216,0,0,0,0
1,237.3,23730,-0.81625223,-1.98051202,-0.00788567,41.14296722,-107.95310974,-196.31546021,0,0,0,103.42958832,28.08838463,-6.78590345,1,0,0,0,1.27446604,1.11588037,0.21365222,0,0,0,0
1,237.31,23731,-0.53391749,-1.90034974,0.17087749,59.84020996,-103.55232239,-201.12969971,0,0,0,103.7297821,30.28622437,-7.39876986,1,0,0,0,1.02567923,1.05405843,0.03368031,0,0,0,0
1,237.32,23732,-0.04440383,-1.885885,0.515742,83.28801727,-66.53781891,-213.66720581,0,0,0,104.48814392,32.51991653,-7.54530048,1,0,0,0,0.56958002,1.0608151,-0.30760938,0,0,0,0
1,237.33,23733,0.20498055,-2.06604481,0.50109398,97.07361603,-11.65227795,-224.70332336,0,0,0,105.77436829,34.71175766,-6.97664642,1,0,0,0,0.35269582,1.2653625,-0.28254777,0,0,0,0
1,237.34,23734,0.4377003,-2.12435055,0.43256083,81.3317337,8.93741417,-230.00761414,0,0,0,107.11951447,36.89232635,-6.06714916,1,0,0,0,0.15104471,1.3499279,-0.20124453,0,0,0,0
1,237.35,23735,0.08127473,-2.02945781,0.42073387,58.37382507,0.10458659,-227.87088013,0,0,0,108.24475861,39.06296921,-5.18743134,1,0,0,0,0.53784567,1.28194332,-0.18035237,0,0,0,0
1,237.36,23736,-0.40088838,-1.83110368,0.52225697,57.90787506,16.30379105,-215.63475037,0,0,0,109.54122162,41.0503273,-4.07417297,1,0,0,0,1.04797041,1.1104157,-0.27370656,0,0,0,0
1,237.37,23737,-0.30619556,-1.56951833,0.34074363,55.22684097,40.09010696,-193.97254944,0,0,0,111.03451538,42.73069763,-2.66565704,1,0,0,0,0.9769206,0.87471354,-0.08135797,0,0,0,0
1,237.38,23738,0.12413955,-1.19724214,0.21019444,39.42899323,27.36936569,-171.44274902,0,0,0,112.2438736,44.18357849,-1.45829034,1,0,0,0,0.56623411,0.5257107,0.05881143,0,0,0,0
1,237.39,23739,0.73359621,-0.83033526,0.28885499,35.18502045,19.63927078,-148.20808411,0,0,0,113.34637451,45.47396469,-0.39365542,1,0,0,0,-0.02636769,0.17927034,-0.01337339,0,0,0,0
1,237.4,23740,-0.17571567,-1.09025764,0.2384299,23.87726784,-24.18736076,-111.15563965,0,0,0,113.81604767,46.58953094,-0.07218847,1,0,0,0,0.89740062,0.45634592,0.03959297,0,0,0,0
1,237.41,23741,-0.2407081,-0.80552059,0.08843326,20.65478706,-8.1370163,-67.96656799,0,0,0,114.23897552,47.24345779,0.22391847,1,0,0,0,0.9724313,0.18322709,0.18963403,0,0,0,0
1,237.42,23742,-0.28315061,-0.61842716,0.02949458,18.73928642,-15.85106564,-35.27565002,0,0,0,114.42721558,47.6302681,0.22528423,1,0,0,0,1.02042735,0.00312513,0.24947318,0,0,0,0
1,237.43,23743,-0.28332791,-0.45565394,0.00643479,10.26395893,-23.95399857,-7.39128733,0,0,0,114.28359985,47.71697617,-0.08244176,1,0,0,0,1.0233568,-0.15702687,0.27101594,0,0,0,0
1,237.44,23744,-0.21103072,-0.29420125,0.0201341,5.14645386,-12.92279911,20.87004471,0,0,0,114.111763,47.57959747,-0.38444856,1,0,0,0,0.95014423,-0.32029846,0.25572875,0,0,0,0
1,237.45,23745,-0.17147152,-0.22909896,0.06221638,-3.36361885,0.44204089,46.20805359,0,0,0,113.87828827,47.15566635,-0.65597773,1,0,0,0,0.9068023,-0.39015374,0.21311809,0,0,0,0
1,237.46,23746,-0.20257546,-0.19820641,0.0988301,-11.24154758,11.77303696,70.63941193,0,0,0,113.57780457,46.46164322,-0.91385049,1,0,0,0,0.93085682,-0.42929018,0.17656156,0,0,0,0
1,237.47,23747,-0.24173164,-0.21997647,0.11294918,-17.7129097,24.73454475,94.72276306,0,0,0,113.24597931,45.49414825,-1.12882471,1,0,0,0,0.95959479,-0.41907626,0.16320093,0,0,0,0
1,237.48,23748,-0.25770786,-0.24629714,0.09152607,-23.23441505,36.85440826,118.10211182,0,0,0,112.88581848,44.21898651,-1.309793,1,0,0,0,0.96149886,-0.40748131,0.18633935,0,0,0,0
1,237.49,23749,-0.23118608,-0.29648578,0.06132134,-30.15087509,44.09084702,140.21601868,0,0,0,112.45748138,42.75523376,-1.49402463,1,0,0,0,0.91725934,-0.37503347,0.21851763,0,0,0,0
1,237.5,23750,-0.1903373,-0.3368364,0.01687559,-37.30519104,51.36351776,160.35586548,0,0,0,111.96697235,41.07651138,-1.66977477,1,0,0,0,0.85582751,-0.35441184,0.26459593,0,0,0,0
1,237.51,23751,-0.16772264,-0.36163014,-0.0002462,-45.46835327,57.34587097,178.56791687,0,0,0,111.40510559,39.20534897,-1.83592117,1,0,0,0,0.80943638,-0.35131356,0.28277898,0,0,0,0
1,237.52,23752,-0.08553476,-0.38962242,-0.01041424,-50.55702209,63.92181015,195.71691895,0,0,0,110.8140564,37.14932251,-1.97405303,1,0,0,0,0.70030886,-0.34644383,0.29352492,0,0,0,0
1,237.53,23753,-0.08786463,-0.42218629,0.02302517,-59.38199615,71.31678772,215.52865601,0,0,0,110.14604187,34.85568237,-2.08628321,1,0,0,0,0.6719712,-0.33847281,0.25995994,0,0,0,0
1,237.54,23754,-0.11261751,-0.486711,0.05050784,-67.44477081,74.51641846,233.04171753,0,0,0,109.41343689,32.41059875,-2.19139743,1,0,0,0,0.66218472,-0.29978716,0.23099326,0,0,0,0
1,237.55,23755,-0.10032037,-0.56028819,0.06904407,-74.65570831,74.83588409,250.37042236,0,0,0,108.60176849,29.79966545,-2.31755209,1,0,0,0,0.61219478,-0.25230169,0.20935418,0,0,0,0
1,237.56,23756,-0.07828608,-0.63032234,0.06727136,-83.35652161,75.10793304,266.99932861,0,0,0,107.70417786,27.0285778,-2.45213437,1,0,0,0,0.5489316,-0.20848453,0.20603305,0,0,0,0
1,237.57,23757,-0.03658636,-0.6888842,0.06766211,-90.66923523,75.7780838,281.41107178,0,0,0,106.74497986,24.11632919,-2.57354641,1,0,0,0,0.46263033,-0.17568156,0.19840226,0,0,0,0
1,237.58,23758,-0.00095602,-0.74619359,0.05968442,-96.5725174,74.22471619,294.16937256,0,0,0,105.72553253,21.07113838,-2.69411278,1,0,0,0,0.37918428,-0.1430247,0.19720022,0,0,0,0
1,237.59,23759,0.00403277,-0.85621727,0.06277637,-101.49458313,70.03018188,306.63955688,0,0,0,104.66526031,17.92841339,-2.82980418,1,0,0,0,0.32341319,-0.056051,0.1827527,0,0,0,0
1,237.6,23760,0.01510353,-0.97327095,0.11915211,-102.80323792,69.66759491,320.72061157,0,0,0,103.60572815,14.64821815,-2.94172692,1,0,0,0,0.25867623,0.04019497,0.11350691,0,0,0,0
1,237.61,23761,0.02295026,-1.10084391,0.17492878,-105.37804413,68.77045441,334.81088257,0,0,0,102.53182983,11.23137283,-3.03117442,1,0,0,0,0.19388461,0.14956711,0.04358368,0,0,0,0
1,237.62,23762,0.04455061,-1.27901888,0.22976163,-110.58925629,67.63699341,349.66558838,0,0,0,101.41511536,7.67055845,-3.09597707,1,0,0,0,0.112127,0.31254041,-0.02718356,0,0,0,0
1,237.63,23763,0.04293129,-1.48701608,0.29754534,-117.83109283,66.54979706,361.4833374,0,0,0,100.23459625,3.99406004,-3.12180829,1,0,0,0,0.05085529,0.50885063,-0.11304848,0,0,0,0
1,237.64,23764,0.07513934,-1.71959627,0.42680112,-124.90779114,76.23137665,371.72860718,0,0,0,98.98918915,0.20207736,-2.99078131,1,0,0,0,-0.04664757,0.73377997,-0.26256788,0,0,0,0
1,237.65,23765,0.26647297,-1.94338691,0.57747787,-126.45115662,89.59233093,379.11468506,0,0,0,97.71378326,-3.67873764,-2.65491581,1,0,0,0,-0.30520374,0.95453948,-0.43506241,0,0,0,0
1,237.66,23766,0.54713881,-2.11296082,0.60958111,-132.3603363,85.40079498,378.28009033,0,0,0,96.35242462,-7.5376687,-2.26924205,1,0,0,0,-0.65332115,1.12595439,-0.49064273,0,0,0,0
1,237.67,23767,0.67673051,-2.24273753,0.60582894,-136.62626648,75.96673584,368.50909424,0,0,0,94.92071533,-11.27951241,-1.87015486,1,0,0,0,-0.84843981,1.26225162,-0.51209795,0,0,0,0
1,237.68,23768,0.79886276,-2.38135123,0.63529569,-132.53291321,72.05367279,351.12365723,0,0,0,93.48959351,-14.82901669,-1.39748979,1,0,0,0,-1.0325563,1.41161549,-0.56703824,0,0,0,0
