SensorId,TimeStamp (s),FrameNumber,AccX (g),AccY (g),AccZ (g),GyroX (deg/s),GyroY (deg/s),GyroZ (deg/s),MagX (uT),MagY (uT),MagZ (uT),EulerX (deg),EulerY (deg),EulerZ (deg),QuatW,QuatX,QuatY,QuatZ,LinAccX (g),LinAccY (g),LinAccZ (g),Pressure (kPa),Altitude (m),Temperature (degC),HeaveMotion (m)
1,84.99,8499,0.13126427,-0.97630739,0.24686891,5.23853922,-24.46630859,-7.91438293,0,0,0,103.65565491,11.34846592,4.10497904,1,0,0,0,0.06459399,0.0233777,-0.01542964,0,0,0,0
1,85,8500,0.08853103,-0.97227138,0.24325646,4.32696819,-26.52992249,-9.51997852,0,0,0,103.65135193,11.5036087,3.86489511,1,0,0,0,0.10986697,0.01985556,-0.01186566,0,0,0,0
1,85.01,8501,0.09302897,-0.98700309,0.2459012,3.94199753,-29.01534462,-12.43192768,0,0,0,103.63892365,11.69286919,3.60699463,1,0,0,0,0.10839432,0.03513922,-0.01485378,0,0,0,0
1,85.02,8502,0.10276965,-0.9832359,0.22789063,2.43802547,-24.07730103,-16.17012024,0,0,0,103.62005615,11.87828732,3.41467929,1,0,0,0,0.10200231,0.03198533,0.00273867,0,0,0,0
1,85.03,8503,0.10557766,-0.98318052,0.25935572,-1.30712163,-21.32147598,-22.07649994,0,0,0,103.57398987,12.14300632,3.25588846,1,0,0,0,0.10302915,0.03258419,-0.02946888,0,0,0,0
1,85.04,8504,0.10181005,-0.9696852,0.27554655,-6.17043972,-13.42897606,-27.36616707,0,0,0,103.49781799,12.44050694,3.1878345,1,0,0,0,0.1116747,0.01984677,-0.04700985,0,0,0,0
1,85.05,8505,0.13674705,-0.96264029,0.27474779,-7.16697454,-11.74180031,-31.5338726,0,0,0,103.41702271,12.77451611,3.1460011,1,0,0,0,0.08217764,0.01364189,-0.04787518,0,0,0,0
1,85.06,8506,0.18531102,-0.96066642,0.24770036,-5.1488266,-11.50199223,-33.98813248,0,0,0,103.3578949,13.13179207,3.11192584,1,0,0,0,0.03959312,0.01273136,-0.02223589,0,0,0,0
1,85.07,8507,0.20738235,-0.96564245,0.21671885,-0.96039617,-10.88847446,-34.69713211,0,0,0,103.33909607,13.48806286,3.08560443,1,0,0,0,0.0236399,0.01896292,0.00783313,0,0,0,0
1,85.08,8508,0.22023411,-0.9583773,0.19747178,1.51547074,-8.66941929,-35.13875198,0,0,0,103.35347748,13.84996986,3.08225513,1,0,0,0,0.01683882,0.01312153,0.02677055,0,0,0,0
1,85.09,8509,0.20698282,-0.96482158,0.19252147,5.6624217,-5.35231495,-35.97286224,0,0,0,103.4179306,14.21231556,3.11441851,1,0,0,0,0.03623847,0.02122642,0.03213041,0,0,0,0
1,85.1,8510,0.23331039,-0.95364612,0.1985552,7.5525589,-1.52625179,-37.66580963,0,0,0,103.51216888,14.58217525,3.1896348,1,0,0,0,0.01612014,0.01191263,0.02709744,0,0,0,0
1,85.11,8511,0.27857479,-0.94874585,0.20551616,6.94639826,1.43291736,-39.02342987,0,0,0,103.60946655,14.9581604,3.29868364,1,0,0,0,-0.02283922,0.00900479,0.02138131,0,0,0,0
1,85.12,8512,0.26136288,-0.90025091,0.22041406,3.84752536,6.8130002,-40.54949951,0,0,0,103.69999695,15.33709812,3.47109151,1,0,0,0,0.00070738,-0.03749652,0.00750125,0,0,0,0
1,85.13,8513,0.27227807,-0.87149835,0.26291338,5.91560364,8.06008911,-40.84009552,0,0,0,103.80787659,15.71463013,3.65311289,1,0,0,0,-0.00377929,-0.06410868,-0.03368787,0,0,0,0
1,85.14,8514,0.31378335,-0.89049602,0.24155936,8.73871231,7.46623945,-38.71175385,0,0,0,103.94233704,16.07254601,3.82501006,1,0,0,0,-0.03914235,-0.04291588,-0.01066691,0,0,0,0
1,85.15,8515,0.3034068,-0.96237004,0.18697251,12.51323032,8.09630775,-36.84311676,0,0,0,104.11637878,16.4103756,3.999825,1,0,0,0,-0.02302461,0.03118348,0.04599515,0,0,0,0
1,85.16,8516,0.2929706,-1.00942707,0.18358032,18.82322693,0.25698119,-37.53775024,0,0,0,104.33278656,16.77365112,4.09864759,1,0,0,0,-0.00672331,0.08074841,0.05224583,0,0,0,0
1,85.17,8517,0.27859128,-1.03474283,0.20894043,14.24776649,0.21974827,-39.7920723,0,0,0,104.49391937,17.14862251,4.19996595,1,0,0,0,0.01393688,0.10870674,0.02955608,0,0,0,0
1,85.18,8518,0.28310898,-1.02617526,0.19924136,6.60108662,-7.09709358,-39.06726837,0,0,0,104.56903839,17.54460907,4.2307415,1,0,0,0,0.01586208,0.10252334,0.04050744,0,0,0,0
1,85.19,8519,0.29543361,-1.04007077,0.24304312,1.71947265,-13.38712692,-35.66934586,0,0,0,104.57348633,17.92351723,4.18896627,1,0,0,0,0.01001577,0.11852267,-0.00336285,0,0,0,0
1,85.2,8520,0.31991455,-1.05025268,0.24460779,-5.94173717,-18.48405075,-34.53321838,0,0,0,104.48384094,18.30417252,4.09186888,1,0,0,0,-0.00826222,0.13041508,-0.00634795,0,0,0,0
1,85.21,8521,0.30810234,-1.07564569,0.24148354,-5.61324024,-25.42509651,-33.18413925,0,0,0,104.37299347,18.68889046,3.91940713,1,0,0,0,0.00995873,0.15741989,-0.00548609,0,0,0,0
1,85.22,8522,0.27145225,-1.07753718,0.26254821,2.93202877,-24.44528198,-35.90205002,0,0,0,104.35169983,19.08292389,3.76763439,1,0,0,0,0.05311354,0.16119561,-0.02808845,0,0,0,0
1,85.23,8523,0.28548747,-1.0797143,0.25135255,7.04294157,-20.96372986,-33.89892197,0,0,0,104.38054657,19.4633255,3.64159513,1,0,0,0,0.0454103,0.16556938,-0.01716809,0,0,0,0
1,85.24,8524,0.27659485,-1.07104146,0.26273635,6.11100054,-17.59830475,-34.37281036,0,0,0,104.41130066,19.84002113,3.55136395,1,0,0,0,0.06048907,0.15916222,-0.0285416,0,0,0,0
1,85.25,8525,0.28146729,-1.07322073,0.29940376,-1.42287135,-17.88308716,-36.17386627,0,0,0,104.36672211,20.23486328,3.46271896,1,0,0,0,0.0619338,0.16349711,-0.06600564,0,0,0,0
1,85.26,8526,0.26163706,-1.05416667,0.3043769,-6.7046175,-13.41484737,-38.48892212,0,0,0,104.28675842,20.64097977,3.42564988,1,0,0,0,0.08836475,0.14650619,-0.07275824,0,0,0,0
1,85.27,8527,0.23444965,-1.0206356,0.30596405,-8.64443207,-10.10185719,-41.66346359,0,0,0,104.21121979,21.04459572,3.44446254,1,0,0,0,0.12229583,0.11513637,-0.0761818,0,0,0,0
1,85.28,8528,0.25353497,-1.08442223,0.35046676,-7.04653645,-12.60113811,-37.23270416,0,0,0,104.12870789,21.43644905,3.41122603,1,0,0,0,0.10976,0.18107674,-0.12247541,0,0,0,0
1,85.29,8529,-0.01055076,-1.03694689,0.39810175,-23.54426575,-2.4280622,-43.47302628,0,0,0,103.92583466,21.86414146,3.49927926,1,0,0,0,0.37986916,0.13531186,-0.17304267,0,0,0,0
1,85.3,8530,0.32328179,-1.11062324,0.43132484,-33.48400497,1.02451193,-45.49806213,0,0,0,103.6389389,22.30356979,3.62691236,1,0,0,0,0.05380972,0.21091476,-0.21150401,0,0,0,0
1,85.31,8531,0.13496244,-1.04708636,0.26037738,-0.53908306,-17.44648933,-38.29693604,0,0,0,103.60076141,22.71690559,3.54126215,1,0,0,0,0.24833772,0.14956023,-0.04237965,0,0,0,0
1,85.32,8532,0.13486156,-1.06014764,0.23413394,-36.15028,-37.72579956,-64.83885956,0,0,0,103.14328003,23.41087341,3.31030226,1,0,0,0,0.25830767,0.16542332,-0.02230941,0,0,0,0
1,85.33,8533,-0.01157061,-1.21410179,0.22863571,-27.27127838,-46.26309586,-70.99789429,0,0,0,102.74185944,24.20643425,2.99115515,1,0,0,0,0.41639364,0.3227722,-0.02460152,0,0,0,0
1,85.34,8534,-0.06723294,-1.27561021,0.20740044,-33.04201126,-42.60184097,-84.46344757,0,0,0,102.30430603,25.1232605,2.73509026,1,0,0,0,0.48634824,0.38914001,-0.01121326,0,0,0,0
1,85.35,8535,0.04515948,-1.33093095,0.18820091,-5.46396112,-62.09244919,-83.73582458,0,0,0,102.0432663,26.07252693,2.25737262,1,0,0,0,0.38887459,0.45010304,0.00083658,0,0,0,0
1,85.36,8536,-0.09544185,-1.43063474,0.21007042,-6.53028917,-61.44832993,-89.85738373,0,0,0,101.77029419,27.07872391,1.79281211,1,0,0,0,0.54447883,0.55632627,-0.02588841,0,0,0,0
1,85.37,8537,-0.19273226,-1.4588021,0.25392872,-24.89333534,-64.36852264,-104.76882935,0,0,0,101.30019379,28.21219254,1.32318079,1,0,0,0,0.65891999,0.59183884,-0.07783691,0,0,0,0
1,85.38,8538,-0.17055123,-1.5823797,0.25356588,-21.11487007,-61.84175873,-110.78749084,0,0,0,100.87238312,29.41832161,0.87373257,1,0,0,0,0.65488338,0.72369581,-0.0860938,0,0,0,0
1,85.39,8539,-0.16669323,-1.60719848,0.2543312,-6.70667744,-60.66239166,-109.74250793,0,0,0,100.57872772,30.60941505,0.42110616,1,0,0,0,0.66921139,0.75764477,-0.09402141,0,0,0,0
1,85.4,8540,-0.16013938,-1.61815608,0.29632726,0.87262738,-66.30478668,-110.86424255,0,0,0,100.31408691,31.81986809,-0.10641256,1,0,0,0,0.68047535,0.77827442,-0.14201476,0,0,0,0
1,85.41,8541,-0.1207617,-1.65733683,0.37689626,1.66824436,-69.229599,-133.97233582,0,0,0,100.04737854,33.26091385,-0.63359994,1,0,0,0,0.66110784,0.82909942,-0.22858357,0,0,0,0
1,85.42,8542,0.17840402,-1.68196666,0.38017291,3.54302168,-68.4702301,-151.15298462,0,0,0,99.80416107,34.85874557,-1.13006985,1,0,0,0,0.38434523,0.86765122,-0.23825654,0,0,0,0
1,85.43,8543,0.26148921,-1.64812481,0.35827607,9.04585361,-59.06658554,-171.56600952,0,0,0,99.68504333,36.64959717,-1.48959303,1,0,0,0,0.32573622,0.85036814,-0.22163282,0,0,0,0
1,85.44,8544,0.24870074,-1.64095783,0.49882573,3.43431115,-50.16895294,-181.55943298,0,0,0,99.57347107,38.52355576,-1.72996294,1,0,0,0,0.36463314,0.86227435,-0.36695236,0,0,0,0
1,85.45,8545,0.17259498,-1.64501762,0.59731352,-19.81249809,-43.86190414,-173.57090759,0,0,0,99.25379944,40.30770874,-1.92150128,1,0,0,0,0.46546283,0.88541263,-0.47159171,0,0,0,0
1,85.46,8546,0.15610357,-1.41279256,0.53719169,-32.7660408,-32.93560791,-167.98132324,0,0,0,98.87220764,42.01828766,-2.00245023,1,0,0,0,0.50475979,0.67162925,-0.41944122,0,0,0,0
1,85.47,8547,0.08917211,-1.29220212,0.38043985,-10.6393528,-42.76237869,-162.90826416,0,0,0,98.60301971,43.65962601,-2.23388529,1,0,0,0,0.59368455,0.57003397,-0.27035671,0,0,0,0
1,85.48,8548,0.19786637,-1.34547007,0.49737442,17.42792892,-67.14740753,-152.28730774,0,0,0,98.34598541,45.26476669,-2.85008669,1,0,0,0,0.50575912,0.64259899,-0.39332369,0,0,0,0
1,85.49,8549,-0.00162649,-1.16713798,0.23294564,-26.85796547,-33.85567856,-120.93925476,0,0,0,97.90742493,46.50971603,-3.08578277,1,0,0,0,0.7214036,0.47991669,-0.13493058,0,0,0,0
1,85.5,8550,-0.06727543,-0.78050888,0.24212508,-13.94338608,-45.54806137,-106.71086884,0,0,0,97.4357605,47.62805176,-3.53961444,1,0,0,0,0.80139482,0.10746235,-0.15241843,0,0,0,0
1,85.51,8551,0.28100604,-0.49616274,0.2874949,-31.45273018,-27.76700974,-67.05383301,0,0,0,96.90898895,48.32815933,-3.82534599,1,0,0,0,0.4633404,-0.16647479,-0.20474926,0,0,0,0
1,85.52,8552,0.89883339,-0.3697626,0.17623511,-22.50571442,-2.21353078,-39.75589371,0,0,0,96.76246643,48.80574799,-3.76187658,1,0,0,0,-0.1488021,-0.28705558,-0.09853654,0,0,0,0
1,85.53,8553,0.58131194,-0.66640234,0.37924147,7.39056206,-7.62034559,-54.9548378,0,0,0,96.82444763,49.36044312,-3.77779174,1,0,0,0,0.17521533,0.01706457,-0.30165446,0,0,0,0
1,85.54,8554,0.12110267,-0.56228244,0.29215708,-43.52172089,-23.06280708,-40.67192078,0,0,0,96.17434692,49.79058456,-4.05987406,1,0,0,0,0.64071751,-0.08136766,-0.21912028,0,0,0,0
1,85.55,8555,-0.10927095,-0.44057649,0.3176941,-59.43968964,-27.96508789,-32.46776962,0,0,0,95.2875061,50.14156723,-4.44168234,1,0,0,0,0.87567639,-0.19868243,-0.25476605,0,0,0,0
1,85.56,8556,-0.21309078,-0.34025124,0.27156481,-44.471241,-15.50863266,1.40923595,0,0,0,94.65651703,50.14105988,-4.6842308,1,0,0,0,0.98110437,-0.29788533,-0.21740086,0,0,0,0
1,85.57,8557,-0.21997997,-0.35743257,0.20825782,-29.17686272,10.80677509,36.16310883,0,0,0,94.48537445,49.72628021,-4.52381992,1,0,0,0,0.9851014,-0.28445289,-0.15759154,0,0,0,0
1,85.58,8558,-0.13787401,-0.37080213,0.18335238,-28.31174469,35.05123138,56.03740311,0,0,0,94.55886841,49.1401062,-4.05429125,1,0,0,0,0.89686078,-0.27828026,-0.13214631,0,0,0,0
1,85.59,8559,-0.02602201,-0.36297721,0.2043801,-19.04484749,52.37247086,73.59234619,0,0,0,94.89458466,48.36361313,-3.35443258,1,0,0,0,0.77690351,-0.29517668,-0.14966327,0,0,0,0
1,85.6,8560,0.03945875,-0.3913722,0.20312586,-16.90309715,62.51531219,87.02006531,0,0,0,95.32897949,47.44115829,-2.5412631,1,0,0,0,0.70130146,-0.27765211,-0.14264655,0,0,0,0
1,85.61,8561,0.14381093,-0.35157165,0.20114033,-11.48050976,63.29544449,95.44997406,0,0,0,95.78957367,46.42990875,-1.7537986,1,0,0,0,0.58534926,-0.32947367,-0.1342414,0,0,0,0
1,85.62,8562,0.14311506,-0.41366822,0.2627081,-9.02096367,67.50650024,108.19140625,0,0,0,96.29692841,45.26479721,-0.92685443,1,0,0,0,0.5728063,-0.28052634,-0.18845196,0,0,0,0
1,85.63,8563,0.14469403,-0.42866671,0.2692064,-24.17304993,70.8584671,120.22830963,0,0,0,96.61665344,43.99035645,-0.1277428,1,0,0,0,0.55591929,-0.2802493,-0.18834555,0,0,0,0
1,85.64,8564,0.13323794,-0.42098981,0.27322984,-28.68983459,77.95616913,133.64912415,0,0,0,96.9107132,42.5713501,0.71951932,1,0,0,0,0.55029958,-0.30375886,-0.18683147,0,0,0,0
1,85.65,8565,0.14425583,-0.40203914,0.24388674,-22.13544655,82.93223572,154.15408325,0,0,0,97.25476074,40.93938065,1.56828701,1,0,0,0,0.51919377,-0.34036648,-0.15114224,0,0,0,0
1,85.66,8566,0.14766246,-0.45483246,0.23531903,-13.50531769,85.19358826,169.63186646,0,0,0,97.64507294,39.14692307,2.38452482,1,0,0,0,0.49285108,-0.30649033,-0.13507041,0,0,0,0
1,85.67,8567,0.1848792,-0.50388247,0.26784313,-13.71734238,85.51016235,185.00242615,0,0,0,97.99069977,37.18772507,3.15722346,1,0,0,0,0.42988911,-0.27735841,-0.16001159,0,0,0,0
1,85.68,8568,0.2214542,-0.56074053,0.3045316,-13.59874821,85.73000336,199.28289795,0,0,0,98.26895905,35.09366608,3.85915732,1,0,0,0,0.3647418,-0.24114068,-0.18940796,0,0,0,0
1,85.69,8569,0.23225683,-0.60997784,0.33311814,-11.20013046,83.36630249,212.99749756,0,0,0,98.50389099,32.86489868,4.4792819,1,0,0,0,0.3227188,-0.21285337,-0.21134008,0,0,0,0
1,85.7,8570,0.24039701,-0.66612011,0.3551476,-6.09814835,77.21826935,228.08685303,0,0,0,98.70412445,30.4942131,4.97571278,1,0,0,0,0.28049585,-0.17775373,-0.22704224,0,0,0,0
1,85.71,8571,0.25720122,-0.72706312,0.37282324,-1.33504879,67.54069519,242.33375549,0,0,0,98.8579483,27.99619102,5.31681681,1,0,0,0,0.22670588,-0.13765639,-0.23887089,0,0,0,0
1,85.72,8572,0.25988674,-0.76443189,0.34063673,6.39226246,54.69433594,257.66195679,0,0,0,99.00461578,25.36187935,5.48331356,1,0,0,0,0.18407476,-0.12063359,-0.20138982,0,0,0,0
1,85.73,8573,0.31532955,-0.79051828,0.35913226,33.17044067,36.82101059,272.33029175,0,0,0,99.30596924,22.61472511,5.40790272,1,0,0,0,0.08585406,-0.11365686,-0.21306652,0,0,0,0
1,85.74,8574,0.29010519,-0.90260786,0.35851747,49.18365479,31.8867054,286.56533813,0,0,0,99.73617554,19.73589897,5.23656082,1,0,0,0,0.06538945,-0.01892723,-0.2029753,0,0,0,0
1,85.75,8575,0.27483401,-0.96637589,0.34555385,44.09773254,23.43380737,295.19009399,0,0,0,100.08618927,16.78782654,4.94461679,1,0,0,0,0.03239626,0.02918598,-0.18100928,0,0,0,0
1,85.76,8576,0.27701238,-1.05804193,0.3143135,44.32670975,19.52036095,302.64825439,0,0,0,100.43487549,13.77515316,4.58416891,1,0,0,0,-0.01957907,0.10748322,-0.1412677,0,0,0,0
1,85.77,8577,0.20593104,-1.10827172,0.34201688,41.0933075,6.02950287,306.20361328,0,0,0,100.74036407,10.75402069,4.0712142,1,0,0,0,-0.00023974,0.14651972,-0.16171482,0,0,0,0
1,85.78,8578,0.15712987,-1.27663958,0.38236761,24.56186295,12.7853508,309.72293091,0,0,0,100.91145325,7.68785715,3.60935378,1,0,0,0,-0.0033815,0.30627257,-0.19656472,0,0,0,0
1,85.79,8579,0.14460114,-1.38251722,0.38621116,15.53059292,21.81134224,322.97674561,0,0,0,101.02404022,4.47561741,3.20683765,1,0,0,0,-0.04562337,0.40576315,-0.19671829,0,0,0,0
1,85.8,8580,0.19185242,-1.46468675,0.36387965,24.32483673,45.3985939,320.11984253,0,0,0,101.25735474,1.24694955,3.03411794,1,0,0,0,-0.14877994,0.48462081,-0.17058423,0,0,0,0
1,85.81,8581,0.26408598,-1.63800621,0.48921525,56.02311325,75.28601837,321.43164062,0,0,0,101.81530762,-2.05317307,3.13088799,1,0,0,0,-0.2783047,0.65856594,-0.28865486,0,0,0,0
1,85.82,8582,0.50547081,-1.7430228,0.40706289,76.00834656,92.14180756,306.4414978,0,0,0,102.55792236,-5.23726082,3.38483548,1,0,0,0,-0.57622683,0.76836926,-0.19542244,0,0,0,0
1,85.83,8583,0.70998424,-1.8621937,0.37812093,73.73192596,90.69589996,300.1701355,0,0,0,103.27178192,-8.36559677,3.59557033,1,0,0,0,-0.83520621,0.89589399,-0.15375039,0,0,0,0
1,85.84,8584,0.79083252,-1.72455704,0.35044703,24.76522255,70.72503662,281.42492676,0,0,0,103.51296234,-11.26709557,3.63277173,1,0,0,0,-0.96801132,0.767331,-0.12212457,0,0,0,0
1,85.85,8585,0.76976836,-1.61947584,0.30242988,31.68528938,76.03638458,257.88400269,0,0,0,103.79951477,-13.9526186,3.76661062,1,0,0,0,-0.99413872,0.67272872,-0.07186978,0,0,0,0
1,85.86,8586,1.02532876,-1.64399135,0.30857104,24.99280739,90.42206573,223.13719177,0,0,0,103.95714569,-16.3358326,4.12058401,1,0,0,0,-1.29192924,0.70855778,-0.07671674,0,0,0,0
1,85.87,8587,1.0697571,-1.5659672,0.32541075,44.63993073,97.8560257,190.22593689,0,0,0,104.2507782,-18.40884399,4.62624931,1,0,0,0,-1.37292242,0.64191186,-0.0927925,0,0,0,0
1,85.88,8588,1.2594465,-1.46721721,0.44107342,35.78782272,90.23199463,162.0357666,0,0,0,104.44281006,-20.20225334,5.12726831,1,0,0,0,-1.59440124,0.55451,-0.20719577,0,0,0,0
1,85.89,8589,1.24078846,-1.26716793,0.5025236,3.86422038,90.64189148,119.47090149,0,0,0,104.25885773,-21.58469582,5.7493844,1,0,0,0,-1.60071969,0.3633979,-0.27099738,0,0,0,0
1,85.9,8590,1.45561647,-1.04028618,0.25148508,5.81492949,99.28170013,70.32376862,0,0,0,103.99572754,-22.50858498,6.60351086,1,0,0,0,-1.83339715,0.14217538,-0.02640826,0,0,0,0
1,85.91,8591,1.55472469,-0.97445679,0.20468652,27.22969627,84.55045319,25.33513641,0,0,0,103.94923401,-22.95856857,7.42702055,1,0,0,0,-1.9427824,0.08006305,0.01772671,0,0,0,0
1,85.92,8592,1.41355515,-0.97965717,0.20895112,27.42526245,75.42164612,-29.82722282,0,0,0,103.88360596,-22.82011604,8.28761482,1,0,0,0,-1.80305779,0.08564687,0.01248044,0,0,0,0
1,85.93,8593,1.3640058,-1.02756739,0.25731754,27.10865974,72.99801636,-78.46456909,0,0,0,103.78234863,-22.23272324,9.25820923,1,0,0,0,-1.74642456,0.13032401,-0.03663635,0,0,0,0
1,85.94,8594,1.44611454,-1.05348241,0.21961872,23.10988808,55.50597763,-118.48490906,0,0,0,103.68584442,-21.21359062,10.14169502,1,0,0,0,-1.81466556,0.15043378,0.00093893,0,0,0,0
1,85.95,8595,1.34194553,-1.12239695,0.14358889,15.12556744,27.91382408,-142.47634888,0,0,0,103.60868073,-19.89480209,10.79032612,1,0,0,0,-1.69062984,0.21154974,0.07716721,0,0,0,0
1,85.96,8596,-0.07427134,-1.44843519,-0.23564099,43.22498703,-13.37820816,-162.97612,0,0,0,103.95059967,-18.27993202,11.06415749,1,0,0,0,-0.24990822,0.52987605,0.46166503,0,0,0,0
1,85.97,8597,-1.48833311,-1.45251524,-0.35286441,-3.21409369,0.88240421,-149.64019775,0,0,0,103.79928589,-16.83622742,11.45276451,1,0,0,0,1.19015479,0.52592647,0.58194125,0,0,0,0
1,85.98,8598,-3.62162542,-1.56431031,-0.89228046,82.44561005,5.73597908,-162.68836975,0,0,0,104.49222565,-15.27112103,11.92189312,1,0,0,0,3.34924936,0.6313501,1.12749743,0,0,0,0
1,85.99,8599,-1.39375257,-0.97675425,-0.50546247,124.50112152,69.48028564,-60.11653519,0,0,0,105.51552582,-14.87137794,12.77740479,1,0,0,0,1.13527811,0.04443821,0.75836003,0,0,0,0
1,86,8600,1.38362312,-1.07241213,0.46535379,67.9072876,21.62919426,-87.44416046,0,0,0,106.08052063,-14.09016609,13.2388258,1,0,0,0,-1.63010168,0.14086147,-0.19807044,0,0,0,0
1,86.01,8601,1.12310624,-1.185233,0.57374287,-78.15023041,226.63520813,-75.1374588,0,0,0,104.70066071,-13.96753311,15.69573879,1,0,0,0,-1.36638856,0.24951537,-0.31841037,0,0,0,0
1,86.02,8602,0.45757258,-1.44228041,0.45265919,-63.24119186,124.30763245,-158.77235413,0,0,0,103.68934631,-12.72204304,17.32831764,1,0,0,0,-0.68695503,0.49789304,-0.21717671,0,0,0,0
1,86.03,8603,0.65402287,-1.5804038,0.54520911,-8.44877815,120.84366608,-170.59579468,0,0,0,103.27039337,-11.34401417,18.93586159,1,0,0,0,-0.85917348,0.62834436,-0.31838244,0,0,0,0
1,86.04,8604,0.63893592,-1.52207935,0.59626621,16.8676548,80.78617859,-161.91085815,0,0,0,103.22002411,-9.95240974,20.11290932,1,0,0,0,-0.82100427,0.56481129,-0.37167543,0,0,0,0
1,86.05,8605,0.31792098,-1.35240912,0.19205634,23.96767998,44.61821747,-170.70124817,0,0,0,103.32569122,-8.39363003,20.95030785,1,0,0,0,-0.47422749,0.39122319,0.03516831,0,0,0,0
1,86.06,8606,0.36418569,-1.15581274,0.20716749,5.29757643,26.44441223,-145.03323364,0,0,0,103.29970551,-7.04352617,21.5477314,1,0,0,0,-0.493972,0.19105975,0.02168168,0,0,0,0
1,86.07,8607,0.66410786,-0.70411718,0.17825422,-13.57293701,13.37267113,-95.57377625,0,0,0,103.12638092,-6.06400061,21.86452293,1,0,0,0,-0.77706188,-0.26348069,0.04750889,0,0,0,0
1,86.08,8608,0.48073143,-0.81113929,0.19107445,13.9320631,-63.20181656,-88.99106598,0,0,0,103.30544281,-5.05315208,21.45066261,1,0,0,0,-0.57564032,-0.15791541,0.03673931,0,0,0,0
1,86.09,8609,0.24587847,-1.04107428,0.22150896,10.88482952,-81.41291809,-93.71824646,0,0,0,103.45948029,-3.95289516,20.87392235,1,0,0,0,-0.32189089,0.07116918,0.00974213,0,0,0,0
1,86.1,8610,0.1480552,-1.05261564,0.29284918,11.47419453,-74.99875641,-80.40298462,0,0,0,103.60699463,-2.99570966,20.33185196,1,0,0,0,-0.20637295,0.08211367,-0.0589613,0,0,0,0
1,86.11,8611,0.02196582,-0.99340904,0.27558702,14.21337032,-58.16334152,-72.39840698,0,0,0,103.76725006,-2.15476394,19.93757248,1,0,0,0,-0.06487609,0.02278495,-0.03887885,0,0,0,0
1,86.12,8612,0.07898461,-0.96981037,0.2590867,16.43174744,-18.3025322,-64.50099182,0,0,0,103.93209076,-1.46355295,19.90578461,1,0,0,0,-0.10901375,-0.00058578,-0.01946618,0,0,0,0
1,86.13,8613,0.13509467,-1.01452827,0.26029328,10.62326431,-15.789464,-61.49540329,0,0,0,104.03843689,-0.82867026,19.9013443,1,0,0,0,-0.15366973,0.0444586,-0.0181981,0,0,0,0
1,86.14,8614,0.05094672,-0.99358279,0.25823781,-0.8292855,1.17845643,-60.26273346,0,0,0,104.02880096,-0.24688485,20.05891609,1,0,0,0,-0.05896294,0.02346061,-0.01576948,0,0,0,0
1,86.15,8615,0.14131349,-1.00381029,0.21887015,-1.64218199,5.41491222,-50.64829636,0,0,0,104.01229095,0.23139898,20.23412895,1,0,0,0,-0.14041495,0.0335806,0.02330346,0,0,0,0
1,86.16,8616,0.09600372,-1.04976726,0.29071659,-1.76695538,1.66152,-51.56597519,0,0,0,103.9957962,0.72769028,20.37510109,1,0,0,0,-0.08654962,0.07955733,-0.04864782,0,0,0,0
1,86.17,8617,0.1030178,-1.02664983,0.34066096,-20.25513077,-7.88977623,-48.68742752,0,0,0,103.80784607,1.2316792,20.41396332,1,0,0,0,-0.0849046,0.05604008,-0.10069968,0,0,0,0
1,86.18,8618,0.14671962,-0.95396739,0.30944577,-26.21160316,-19.66653252,-44.36107254,0,0,0,103.5434494,1.7091682,20.32769585,1,0,0,0,-0.12002213,-0.0174832,-0.07372557,0,0,0,0
1,86.19,8619,0.16082771,-0.95457155,0.2814697,-19.77411079,-29.78091812,-41.11177826,0,0,0,103.33907318,2.1782124,20.13346672,1,0,0,0,-0.12585515,-0.01756012,-0.04967071,0,0,0,0
1,86.2,8620,0.08957089,-0.94614261,0.24201483,-14.33710194,-34.84951782,-38.77070236,0,0,0,103.18515015,2.6355052,19.88294983,1,0,0,0,-0.04656824,-0.02637848,-0.01321789,0,0,0,0
1,86.21,8621,0.0465582,-0.92764324,0.19551241,-8.00775433,-35.47895813,-38.64559937,0,0,0,103.09220123,3.09246874,19.62492943,1,0,0,0,0.00441513,-0.0449784,0.03121136,0,0,0,0
1,86.22,8622,0.05805502,-0.94461304,0.17932132,-4.4296279,-26.9904995,-37.55686951,0,0,0,103.02705383,3.51924443,19.44357491,1,0,0,0,0.00058305,-0.02785675,0.04619978,0,0,0,0
1,86.23,8623,0.08255643,-0.95607167,0.19221506,-9.83263874,-15.56006527,-39.9283638,0,0,0,102.92474365,3.94328976,19.38151932,1,0,0,0,-0.01650465,-0.01629384,0.03170027,0,0,0,0
1,86.24,8624,0.10607541,-0.93091267,0.14218031,-16.18195915,-9.79268169,-36.86029053,0,0,0,102.76193237,4.32443714,19.36794472,1,0,0,0,-0.03312329,-0.04154779,0.07916707,0,0,0,0
1,86.25,8625,0.13897245,-0.94477874,0.17753309,-11.65382099,-10.28706264,-36.39656448,0,0,0,102.6437912,4.70211554,19.34756279,1,0,0,0,-0.05949915,-0.02771465,0.04141149,0,0,0,0
1,86.26,8626,0.1120172,-0.97134334,0.20010912,-16.04167557,-13.12809181,-38.98373032,0,0,0,102.47963715,5.11117506,19.30407143,1,0,0,0,-0.02562811,-0.00113083,0.01628439,0,0,0,0
1,86.27,8627,0.07028205,-0.9515397,0.23730315,-15.98162079,-11.28938293,-42.11263657,0,0,0,102.3265686,5.54055929,19.28929329,1,0,0,0,0.02349723,-0.02090435,-0.02387132,0,0,0,0
1,86.28,8628,0.05651632,-0.94176489,0.24120837,-13.22046185,-8.88616943,-44.44548416,0,0,0,102.19514465,5.99375296,19.29685593,1,0,0,0,0.04493158,-0.03045405,-0.03027393,0,0,0,0
1,86.29,8629,0.06323081,-0.94206655,0.22290051,-8.60984421,-8.01400185,-45.90907288,0,0,0,102.11102295,6.45942545,19.31524277,1,0,0,0,0.04623404,-0.02969518,-0.0138764,0,0,0,0
1,86.3,8630,0.13211656,-0.93272781,0.19236487,-2.74061036,-8.88713741,-44.73125458,0,0,0,102.08441162,6.91543198,19.32209587,1,0,0,0,-0.01466313,-0.03832521,0.01561554,0,0,0,0
1,86.31,8631,0.14667258,-0.9626627,0.21527614,6.6087923,-8.29849339,-44.62876511,0,0,0,102.15210724,7.36919451,19.33473587,1,0,0,0,-0.02132145,-0.00731757,-0.00690077,0,0,0,0
1,86.32,8632,0.16558218,-0.97911716,0.21328315,24.24593925,-8.65048981,-44.32381058,0,0,0,102.39735413,7.82527685,19.34306717,1,0,0,0,-0.03245772,0.01067717,-0.00258313,0,0,0,0
1,86.33,8633,0.16815294,-1.02858579,0.24442744,29.59762764,-17.10967255,-45.39899445,0,0,0,102.68360901,8.30562115,19.27404594,1,0,0,0,-0.02688475,0.0624111,-0.02869053,0,0,0,0
1,86.34,8634,0.15487757,-1.03200758,0.24500307,16.27100945,-17.55091286,-48.05845642,0,0,0,102.83653259,8.81312561,19.20842171,1,0,0,0,-0.0050139,0.06784837,-0.02607145,0,0,0,0
1,86.35,8635,0.1510442,-0.970828,0.24857977,2.54755211,-17.89249611,-47.87701035,0,0,0,102.85121155,9.3196888,19.13956261,1,0,0,0,0.00767355,0.00822563,-0.02903657,0,0,0,0
1,86.36,8636,0.25620863,-1.02871239,0.27503085,-7.21950197,-11.46308899,-44.18182755,0,0,0,102.77667999,9.7759304,19.12565041,1,0,0,0,-0.0892631,0.06729865,-0.05638112,0,0,0,0
1,86.37,8637,0.2784403,-0.96202481,0.2538628,-8.34436607,-9.81286716,-37.77892303,0,0,0,102.70716858,10.18850231,19.11073303,1,0,0,0,-0.10425855,0.00149219,-0.03699019,0,0,0,0
1,86.38,8638,0.29486564,-1.02913845,0.2712068,-6.26549721,-13.74078178,-34.8583107,0,0,0,102.63391876,10.55873108,19.0521946,1,0,0,0,-0.11402359,0.0695612,-0.05555861,0,0,0,0
1,86.39,8639,0.32147518,-1.00734591,0.21436353,-10.10210896,-19.98498726,-34.08001328,0,0,0,102.50997162,10.93485165,18.92912674,1,0,0,0,-0.13414648,0.04851963,-0.00092309,0,0,0,0
1,86.4,8640,0.26827192,-0.98153073,0.19801515,-2.80324173,-22.17244339,-30.87029266,0,0,0,102.45248413,11.28415489,18.77645302,1,0,0,0,-0.07476921,0.02356543,0.01377757,0,0,0,0
1,86.41,8641,0.16773355,-1.01286829,0.19921413,3.15011621,-22.45517159,-22.77439308,0,0,0,102.44961548,11.55496502,18.60286331,1,0,0,0,0.03091314,0.05585966,0.01214471,0,0,0,0
1,86.42,8642,0.06692564,-1.05628633,0.18449654,-5.731637,-20.72281837,-26.8975563,0,0,0,102.34359741,11.83191681,18.45871925,1,0,0,0,0.13641843,0.10002474,0.02577113,0,0,0,0
1,86.43,8643,0.01427586,-1.11852336,0.26704779,-12.49422073,-25.60769463,-45.8064537,0,0,0,102.18600464,12.33398151,18.30248642,1,0,0,0,0.19610511,0.16320969,-0.05942256,0,0,0,0
1,86.44,8644,-0.05409189,-0.86655557,0.22872423,3.29119778,-15.36340714,-34.39944458,0,0,0,102.20172119,12.70261955,18.22290802,1,0,0,0,0.27181539,-0.08752798,-0.02301079,0,0,0,0
1,86.45,8645,-0.08163757,-1.20258474,0.30847964,-17.14568138,-16.73118019,-46.37983322,0,0,0,102.01509857,13.19124317,18.15505409,1,0,0,0,0.30636966,0.24986041,-0.10401936,0,0,0,0
1,86.46,8646,0.01515176,-1.07796812,0.28151694,-10.48529148,-19.58169937,-61.03676224,0,0,0,101.89445496,13.82890511,18.08786583,1,0,0,0,0.21984532,0.12695336,-0.08067622,0,0,0,0
1,86.47,8647,0.02497176,-1.13095367,0.26625115,-17.01076126,-16.01889038,-61.98234177,0,0,0,101.71873474,14.44030857,18.06830597,1,0,0,0,0.22065569,0.18200894,-0.06835867,0,0,0,0
1,86.48,8648,0.04395105,-1.19118142,0.25035983,-24.52945137,-23.46330261,-74.6124649,0,0,0,101.45204926,15.21829319,17.98558998,1,0,0,0,0.21335968,0.24448217,-0.05662144,0,0,0,0
1,86.49,8649,0.07884331,-1.17983329,0.24329847,-24.12869835,-31.28998947,-79.8368988,0,0,0,101.16872406,16.06251717,17.82946205,1,0,0,0,0.19249061,0.23591022,-0.05523271,0,0,0,0
1,86.5,8650,0.04347249,-1.26291859,0.29078344,-26.87616158,-32.59972382,-85.47093201,0,0,0,100.85364532,16.96382141,17.66617393,1,0,0,0,0.24258968,0.32227045,-0.10822561,0,0,0,0
1,86.51,8651,0.08805189,-1.23365521,0.25878364,-36.80791855,-25.97983742,-93.96841431,0,0,0,100.45996857,17.93535233,17.58074951,1,0,0,0,0.21377075,0.29661071,-0.08321454,0,0,0,0
1,86.52,8652,0.06766213,-1.20098376,0.2359343,-23.52895164,-25.89718246,-95.35490417,0,0,0,100.19873047,18.89861679,17.50101089,1,0,0,0,0.25023243,0.26808435,-0.0667654,0,0,0,0
1,86.53,8653,0.08717754,-1.48557353,0.39167181,-17.02975845,-32.0856514,-97.34482574,0,0,0,99.9773407,19.91326523,17.34716225,1,0,0,0,0.24711044,0.55765325,-0.22677846,0,0,0,0
1,86.54,8654,0.07330292,-1.44831383,0.32486346,-53.74630737,-37.66966248,-104.95837402,0,0,0,99.36727905,21.01130104,17.13904572,1,0,0,0,0.27843142,0.52533609,-0.16879445,0,0,0,0
1,86.55,8655,-0.0456665,-1.38971961,0.38906416,-48.24847031,-34.65218735,-106.35502625,0,0,0,98.81587982,22.11619759,16.95182228,1,0,0,0,0.41540155,0.47210667,-0.24329989,0,0,0,0
1,86.56,8656,-0.04476875,-1.37891376,0.32471865,-47.30094528,-31.01301003,-115.14328766,0,0,0,98.28644562,23.30106163,16.80475426,1,0,0,0,0.43303204,0.46744692,-0.1889255,0,0,0,0
1,86.57,8657,-0.18967168,-1.44433725,0.34417504,-49.83870697,-34.30416489,-115.25602722,0,0,0,97.71317291,24.46811295,16.61983109,1,0,0,0,0.59705752,0.53988695,-0.21781531,0,0,0,0
1,86.58,8658,-0.32427189,-1.57141566,0.49925995,-61.17341614,-60.69460678,-121.6581192,0,0,0,96.8915329,25.75187683,16.1257534,1,0,0,0,0.75116658,0.67428559,-0.38583493,0,0,0,0
1,86.59,8659,-0.62079537,-1.54212213,0.59268391,-47.80679321,-44.82990265,-128.84432983,0,0,0,96.26572418,27.08325386,15.79311371,1,0,0,0,1.06837499,0.65362942,-0.49166849,0,0,0,0
1,86.6,8660,-0.59616524,-1.52002239,0.56824797,-28.74572372,-25.83324814,-137.04325867,0,0,0,95.91915894,28.47330856,15.66629791,1,0,0,0,1.06458545,0.64142025,-0.47555724,0,0,0,0
1,86.61,8661,-0.36539343,-1.64616132,0.5910939,6.82161331,-41.33758545,-150.06829834,0,0,0,95.84246063,30.00839806,15.37077618,1,0,0,0,0.85680377,0.77982712,-0.50206894,0,0,0,0
1,86.62,8662,-0.06970752,-1.68774521,0.6015873,19.18034744,-64.21744537,-169.16088867,0,0,0,95.76042175,31.7461834,14.83384609,1,0,0,0,0.58575594,0.83562452,-0.51493728,0,0,0,0
1,86.63,8663,0.32097977,-1.66992188,0.76880461,29.35805893,-82.50657654,-170.37605286,0,0,0,95.63585663,33.52338028,14.05932999,1,0,0,0,0.22181608,0.83422208,-0.68570334,0,0,0,0
1,86.64,8664,0.57778263,-1.6797142,0.76679713,13.02572918,-70.27083588,-155.84007263,0,0,0,95.39112854,35.14257431,13.39526939,1,0,0,0,-0.01140349,0.8594718,-0.6871047,0,0,0,0
1,86.65,8665,0.46015617,-1.68489528,0.89433926,-58.6302681,-104.54847717,-198.85255432,0,0,0,94.16538239,37.21210098,12.31189537,1,0,0,0,0.13316706,0.88272232,-0.82838947,0,0,0,0
1,86.66,8666,0.08194382,-1.37263882,0.60963774,-83.75175476,-73.47432709,-203.16596985,0,0,0,92.84675598,39.28458786,11.53531361,1,0,0,0,0.54095399,0.59172404,-0.56436723,0,0,0,0
1,86.67,8667,-0.11948078,-1.32867968,0.71502,-36.94095612,-56.35215378,-176.65837097,0,0,0,92.08525085,41.05075455,10.92044258,1,0,0,0,0.76792705,0.56809777,-0.68409836,0,0,0,0
1,86.68,8668,-0.4386715,-1.30282891,0.5201351,-31.91889572,-11.57701874,-152.6381073,0,0,0,91.70714569,42.58006668,10.83251381,1,0,0,0,1.10790884,0.56020361,-0.49619716,0,0,0,0
1,86.69,8669,-0.15285937,-0.91943276,0.0641471,-50.46032715,-40.29743958,-143.89517212,0,0,0,90.85256195,44.02745819,10.32326317,1,0,0,0,0.84140873,0.19443794,-0.04912152,0,0,0,0
1,86.7,8670,0.27149409,-0.40953133,0.17518729,-35.61236954,-41.74549103,-101.72854614,0,0,0,90.09448242,45.04838943,9.74993038,1,0,0,0,0.43187115,-0.30126244,-0.17063251,0,0,0,0
1,86.71,8671,0.73729247,-0.41196278,0.22889976,-41.51552963,-3.49732018,-75.46411133,0,0,0,89.6421051,45.80302811,9.69745255,1,0,0,0,-0.02368023,-0.28856266,-0.2315335,0,0,0,0
1,86.72,8672,0.47449943,-0.67898989,0.27518857,-10.97589302,-9.77872086,-81.05671692,0,0,0,89.47774506,46.56132126,9.61166954,1,0,0,0,0.2484668,-0.0118591,-0.28100598,0,0,0,0
1,86.73,8673,-0.12828448,-0.56480587,0.22869658,-24.99948502,-25.86686325,-72.95513916,0,0,0,88.94059753,47.28731155,9.2186842,1,0,0,0,0.8598699,-0.11686105,-0.2385359,0,0,0,0
1,86.74,8674,-0.4069581,-0.43960378,0.24558541,-19.88739777,-18.48221779,-48.37932968,0,0,0,88.52829742,47.76692963,8.92924786,1,0,0,0,1.14566684,-0.23422959,-0.26145554,0,0,0,0
1,86.75,8675,-0.38259187,-0.37275532,0.10706721,-6.0545454,8.07844067,-2.47521544,0,0,0,88.5561676,47.79376221,9.04854774,1,0,0,0,1.12361097,-0.29850149,-0.12452156,0,0,0,0
1,86.76,8676,-0.28993404,-0.33938798,0.07700633,8.48100662,35.98470688,35.15905762,0,0,0,89.04342651,47.4498291,9.59329224,1,0,0,0,1.02846193,-0.33468762,-0.09085536,0,0,0,0
1,86.77,8677,-0.21243742,-0.41422945,0.13856882,14.23664474,63.27530289,52.99700546,0,0,0,89.89669037,46.88278198,10.56535053,1,0,0,0,0.94518018,-0.26624382,-0.14381187,0,0,0,0
1,86.78,8678,-0.0638186,-0.3974447,0.14836283,7.98882103,83.04109192,60.93613434,0,0,0,90.84980011,46.26800537,11.76761627,1,0,0,0,0.78928936,-0.29076952,-0.14259782,0,0,0,0
1,86.79,8679,-0.00134918,-0.39286968,0.18328992,5.65229177,99.75515747,71.15380096,0,0,0,91.91767883,45.53245926,13.1758852,1,0,0,0,0.71849692,-0.30378994,-0.16491856,0,0,0,0
1,86.8,8680,0.01230455,-0.36253408,0.19378905,6.42380333,115.53884125,88.5670929,0,0,0,93.10025787,44.59712219,14.7553978,1,0,0,0,0.69434965,-0.34424341,-0.16113737,0,0,0,0
1,86.81,8681,0.01958825,-0.39706904,0.2114922,9.98524857,129.11213684,105.16773987,0,0,0,94.37944794,43.46329117,16.45184517,1,0,0,0,0.67388046,-0.32171342,-0.16250043,0,0,0,0
1,86.82,8682,0.10613207,-0.38928187,0.14967461,6.57856131,138.85348511,126.18326569,0,0,0,95.63251495,42.07403946,18.19740868,1,0,0,0,0.57091749,-0.34362245,-0.08343752,0,0,0,0
1,86.83,8683,0.18060771,-0.37774077,0.13358566,16.87108803,132.45610046,150.3757019,0,0,0,96.81412506,40.4356041,19.73219872,1,0,0,0,0.47635579,-0.37145168,-0.04977039,0,0,0,0
1,86.84,8684,0.16956307,-0.44662488,0.16328058,19.53606796,120.81607056,170.66236877,0,0,0,97.81868744,38.58884811,21.00338745,1,0,0,0,0.46365771,-0.32073262,-0.06279168,0,0,0,0
1,86.85,8685,0.18022564,-0.50012791,0.12023019,15.16192436,112.64523315,183.49893188,0,0,0,98.62738037,36.61159515,22.07920456,1,0,0,0,0.42662483,-0.28621942,-0.00496419,0,0,0,0
1,86.86,8686,0.18464702,-0.5334,0.16185762,19.6462059,100.72280884,200.62768555,0,0,0,99.31188965,34.47288895,22.91764069,1,0,0,0,0.39303178,-0.2726025,-0.03329364,0,0,0,0
1,86.87,8687,0.16562352,-0.60745174,0.20193303,24.89598846,92.82546997,220.15684509,0,0,0,99.92719269,32.13607407,23.58065605,1,0,0,0,0.37944716,-0.21886496,-0.06065485,0,0,0,0
1,86.88,8688,0.16783738,-0.69243944,0.21838418,29.55839157,84.48169708,240.59791565,0,0,0,100.46585846,29.61861992,24.05318069,1,0,0,0,0.3408255,-0.15464003,-0.06489222,0,0,0,0
1,86.89,8689,0.19473237,-0.76167268,0.21478523,34.40086746,74.60031128,258.62124634,0,0,0,100.9464035,26.93895531,24.34003067,1,0,0,0,0.27402282,-0.10599139,-0.04970914,0,0,0,0
1,86.9,8690,0.21569054,-0.82677698,0.22016779,40.08904266,62.40992355,275.66210938,0,0,0,101.38552094,24.11378098,24.42712593,1,0,0,0,0.20976871,-0.06078477,-0.04403532,0,0,0,0
1,86.91,8691,0.2207713,-0.91884202,0.23889317,38.6151123,40.30914688,292.14877319,0,0,0,101.69328308,21.17084503,24.2216835,1,0,0,0,0.15835452,0.01246053,-0.05308022,0,0,0,0
1,86.92,8692,0.23127647,-0.92858458,0.22092184,43.10565567,21.04016304,294.28152466,0,0,0,101.98500824,18.24448013,23.80194283,1,0,0,0,0.09978047,0.00524577,-0.02690524,0,0,0,0
1,86.93,8693,0.20556144,-0.9384284,0.24837622,67.14205933,14.86771011,299.74179077,0,0,0,102.50862885,15.2835083,23.29075241,1,0,0,0,0.07693781,0.00124374,-0.04427166,0,0,0,0
1,86.94,8694,0.11257367,-1.22919023,0.32035542,59.34669113,23.02699661,304.81564331,0,0,0,102.99228668,12.26012707,22.82725716,1,0,0,0,0.11922918,0.28090009,-0.10404706,0,0,0,0
1,86.95,8695,0.1296186,-1.22094834,0.31419984,47.41599274,21.73778152,309.74124146,0,0,0,103.37257385,9.19458866,22.32472801,1,0,0,0,0.04986062,0.26333216,-0.08940928,0,0,0,0
1,86.96,8696,0.10797343,-1.34358203,0.27838272,37.17773056,39.51801682,308.51873779,0,0,0,103.6984787,6.10246897,21.98485565,1,0,0,0,0.01861794,0.3793669,-0.04593391,0,0,0,0
1,86.97,8697,0.18630697,-1.64244413,0.41060996,19.28454399,50.40114975,315.00827026,0,0,0,103.86850739,2.92533565,21.71792793,1,0,0,0,-0.11429526,0.67427015,-0.1714212,0,0,0,0
1,86.98,8698,0.30921009,-1.49037695,0.45670912,17.46006393,68.82598877,316.4727478,0,0,0,104.03977203,-0.31207642,21.62576866,1,0,0,0,-0.29356623,0.51998657,-0.21619101,0,0,0,0
1,86.99,8699,0.51201528,-1.63765299,0.42783564,47.79098129,92.93910217,308.59869385,0,0,0,104.51226807,-3.53194928,21.76677322,1,0,0,0,-0.5527491,0.66963005,-0.18081,0,0,0,0
1,87,8700,0.75841314,-1.72562432,0.48131058,63.83540726,95.73558807,294.45339966,0,0,0,105.13518524,-6.62345123,21.93911552,1,0,0,0,-0.85375333,0.76381975,-0.22517048,0,0,0,0
1,87.01,8701,0.92172486,-1.69169652,0.41296259,49.62342453,100.2770462,282.04656982,0,0,0,105.60050201,-9.60871601,22.16077232,1,0,0,0,-1.06956673,0.73842537,-0.14989865,0,0,0,0
1,87.02,8702,1.07061875,-1.67067063,0.37403715,59.98324585,76.0109787,263.43453979,0,0,0,106.19863129,-12.34048843,22.16681099,1,0,0,0,-1.26724517,0.72808129,-0.10444234,0,0,0,0
1,87.03,8703,1.06621122,-1.70828629,0.35059813,55.81634903,74.08552551,233.25930786,0,0,0,106.74414062,-14.78759193,22.21719933,1,0,0,0,-1.30631304,0.77783352,-0.07407623,0,0,0,0
1,87.04,8704,1.26907003,-1.65000033,0.32502732,40.75894165,64.37761688,206.11795044,0,0,0,107.1486969,-16.94670868,22.23213959,1,0,0,0,-1.54716456,0.73151439,-0.04407357,0,0,0,0
1,87.05,8705,1.35095215,-1.53871799,0.34463897,36.25471497,41.34506226,180.77278137,0,0,0,107.55752563,-18.79553986,22.08060455,1,0,0,0,-1.66224015,0.6319499,-0.06039977,0,0,0,0
1,87.06,8706,1.25927329,-1.35391784,0.40556282,23.7894001,57.06624985,144.65995789,0,0,0,107.75749207,-20.3471756,22.19193649,1,0,0,0,-1.59783316,0.45752853,-0.119542,0,0,0,0
1,87.07,8707,1.33745563,-1.15689945,0.35845518,28.62678528,78.2816925,101.48793793,0,0,0,107.87506866,-21.53189087,22.64858818,1,0,0,0,-1.69790125,0.26898175,-0.07271211,0,0,0,0
1,87.08,8708,1.6194346,-1.10826302,0.18380296,25.44163895,91.65296936,45.02230835,0,0,0,107.83375549,-22.24166679,23.44000626,1,0,0,0,-1.99443662,0.22595744,0.1006276,0,0,0,0
1,87.09,8709,1.70759165,-1.0265547,0.16676249,14.66087723,84.99572754,-12.21645546,0,0,0,107.63211823,-22.38422012,24.35543442,1,0,0,0,-2.08826232,0.14567724,0.11456184,0,0,0,0
1,87.1,8710,1.56704259,-0.98031253,0.15325221,20.31985092,57.05698395,-62.05021286,0,0,0,107.53660583,-21.96490669,25.14528847,1,0,0,0,-1.94427466,0.09733757,0.1261144,0,0,0,0
1,87.11,8711,1.07498372,-1.40920591,0.32089996,42.60092545,47.10534668,-104.99819183,0,0,0,107.65979767,-21.10617447,25.96915054,1,0,0,0,-1.44081986,0.52205503,-0.03963973,0,0,0,0
1,87.12,8712,0.64635986,-1.43761289,-0.32460535,1.0969069,38.30582428,-123.00304413,0,0,0,107.37339783,-20.02280617,26.75020409,1,0,0,0,-0.99529421,0.54404485,0.6070075,0,0,0,0
1,87.13,8713,-0.69948477,-1.30778384,-0.3862184,-14.61378765,19.24168205,-151.20915222,0,0,0,107.00611877,-18.63484192,27.41786766,1,0,0,0,0.37035853,0.4054085,0.6643182,0,0,0,0
1,87.14,8714,-2.6070466,-1.630844,-0.74985069,36.99187469,40.68035507,-185.72889709,0,0,0,107.07728577,-16.97632599,28.39440346,1,0,0,0,2.30510235,0.71886438,1.02744198,0,0,0,0
1,87.15,8715,-1.21252406,-1.41665304,-0.45749056,84.06370544,68.54431152,-115.33244324,0,0,0,107.62335968,-16.08028984,29.43485069,1,0,0,0,0.93052697,0.50123477,0.74466169,0,0,0,0
1,87.16,8716,0.65735501,-1.35487044,0.18593492,33.78221893,67.68088531,-116.89709473,0,0,0,107.68096924,-15.17388344,30.47504425,1,0,0,0,-0.92497945,0.43750647,0.10868159,0,0,0,0
1,87.17,8717,0.72356153,-1.43500698,0.19930153,-23.30365372,102.79761505,-162.542099,0,0,0,107.06694794,-13.91366005,31.98310852,1,0,0,0,-0.97254157,0.51020038,0.08826406,0,0,0,0
1,87.18,8718,0.32500231,-1.48663878,0.67059982,-32.71828079,106.19672394,-183.10580444,0,0,0,106.37797546,-12.46614838,33.56946945,1,0,0,0,-0.5502212,0.55327642,-0.39122918,0,0,0,0
1,87.19,8719,0.47272864,-1.23256481,0.69843346,-39.97223282,124.12776947,-183.48809814,0,0,0,105.62495422,-11.04459953,35.30503845,1,0,0,0,-0.67330122,0.29044968,-0.42986462,0,0,0,0
1,87.2,8720,0.45264864,-0.95704919,0.62159961,-28.80908203,120.31980896,-179.32981873,0,0,0,105.0382309,-9.63227844,36.96561813,1,0,0,0,-0.62924063,0.00731169,-0.363222,0,0,0,0
1,87.21,8721,0.48968554,-0.66824001,0.15726045,23.45568466,68.5368576,-201.56149292,0,0,0,105.08688354,-7.86254263,38.16373444,1,0,0,0,-0.63931608,-0.2867735,0.09862452,0,0,0,0
1,87.22,8722,0.8421914,-1.12456238,0.31954476,54.46834564,-28.13902092,-228.66459656,0,0,0,105.59267426,-5.55396938,38.48915863,1,0,0,0,-0.95265639,0.16674608,-0.05446908,0,0,0,0
1,87.23,8723,0.93112451,-1.01960361,0.18744963,-16.48476601,-2.10611916,-128.25154114,0,0,0,105.39980316,-4.312572,38.81309509,1,0,0,0,-1.0133152,0.05914791,0.07851499,0,0,0,0
1,87.24,8724,0.55325371,-0.93689036,0.12159182,-15.1548872,-26.79590797,-73.96153259,0,0,0,105.25200653,-3.52856016,38.74986267,1,0,0,0,-0.62031031,-0.02549893,0.14164761,0,0,0,0
1,87.25,8725,0.40653014,-1.07467723,0.14614725,9.29670429,-92.76203918,-100.67477417,0,0,0,105.37673187,-2.31265283,38.12002182,1,0,0,0,-0.45493871,0.11135167,0.11771433,0,0,0,0
1,87.26,8726,0.39151254,-1.11009073,0.17397778,12.13806248,-81.62117004,-82.7465744,0,0,0,105.5160141,-1.29781151,37.55317688,1,0,0,0,-0.42029798,0.14666618,0.09240825,0,0,0,0
1,87.27,8727,0.22528875,-1.05829108,0.14932483,18.04675484,-51.61159134,-67.08333588,0,0,0,105.68779755,-0.49322447,37.22838211,1,0,0,0,-0.23920508,0.09534743,0.11998926,0,0,0,0
1,87.28,8728,0.09192129,-0.97310078,0.22135662,26.05541611,-30.33776283,-74.50769043,0,0,0,105.94865417,0.30627921,37.13958359,1,0,0,0,-0.091968,0.01111466,0.05170979,0,0,0,0
1,87.29,8729,0.05898743,-1.01115882,0.36965474,17.2449398,-27.93189812,-77.46884155,0,0,0,106.12039948,1.12800384,37.08536911,1,0,0,0,-0.04454877,0.05036703,-0.09278961,0,0,0,0
1,87.3,8730,0.07768645,-1.01318002,0.34394795,5.16245699,-15.39043331,-67.75855255,0,0,0,106.17327881,1.82164586,37.12598038,1,0,0,0,-0.05016866,0.0530307,-0.06583741,0,0,0,0
1,87.31,8731,0.16888501,-1.03605223,0.29439172,-4.30817604,1.45951772,-48.91238785,0,0,0,106.13562012,2.28736925,37.27628326,1,0,0,0,-0.13174394,0.07622749,-0.01626884,0,0,0,0
1,87.32,8732,0.13913155,-1.03784299,0.28039429,-12.69165802,-0.27876708,-39.62570953,0,0,0,106.01433563,2.68114328,37.37874985,1,0,0,0,-0.09511974,0.07781833,-0.0039685,0,0,0,0
1,87.33,8733,0.10487333,-1.05009758,0.36222798,-20.35291672,-11.47322273,-45.47363663,0,0,0,105.81143188,3.14986658,37.39319992,1,0,0,0,-0.05309271,0.0896544,-0.08862069,0,0,0,0
1,87.34,8734,0.16960685,-1.00997961,0.419081,-35.2833786,-28.51771355,-40.48707581,0,0,0,105.44869995,3.61653471,37.22745895,1,0,0,0,-0.1094934,0.04853803,-0.15073815,0,0,0,0
1,87.35,8735,0.24512562,-0.97038823,0.35492048,-39.17393112,-39.41831589,-29.00102806,0,0,0,105.03662872,3.9999125,36.92272949,1,0,0,0,-0.17774752,0.00751054,-0.09354031,0,0,0,0
1,87.36,8736,0.22160819,-0.91813773,0.23779465,-23.61955643,-38.22090912,-19.34276772,0,0,0,104.77728271,4.28506041,36.60223389,1,0,0,0,-0.14866301,-0.04586117,0.01790452,0,0,0,0
1,87.37,8737,0.1331012,-0.9294076,0.17782925,-9.58137989,-40.39151764,-22.13005447,0,0,0,104.64177704,4.6034627,36.26436996,1,0,0,0,-0.05506477,-0.03493352,0.07506123,0,0,0,0
1,87.38,8738,0.028978,-0.93117487,0.18575676,-9.38179779,-39.45701599,-33.75841522,0,0,0,104.5230484,5.02951622,35.96641541,1,0,0,0,0.05579977,-0.03320663,0.06479514,0,0,0,0
1,87.39,8739,-0.00837002,-0.95677596,0.22464569,-9.79844189,-30.50735092,-39.94750214,0,0,0,104.40710449,5.49257374,35.77003479,1,0,0,0,0.10105161,-0.0073846,0.02394815,0,0,0,0
1,87.4,8740,0.06665055,-0.93052626,0.22249314,-15.69788933,-19.0598793,-35.66303253,0,0,0,104.24058533,5.8852911,35.67309952,1,0,0,0,0.03348519,-0.03363636,0.02318818,0,0,0,0
1,87.41,8741,0.11008244,-0.87583327,0.19209394,-5.50732565,-10.25689602,-27.10939407,0,0,0,104.18202972,6.17326403,35.63998795,1,0,0,0,-0.00433965,-0.0882083,0.05171027,0,0,0,0
1,87.42,8742,0.1110711,-0.98868364,0.25658643,2.81952929,-12.66721535,-27.08223724,0,0,0,104.20648193,6.46469069,35.58454132,1,0,0,0,-0.00038859,0.0252419,-0.01260443,0,0,0,0
1,87.43,8743,0.10101345,-0.98218513,0.25932103,-12.37213707,-14.04315567,-32.24975967,0,0,0,104.07608795,6.81172657,35.52677155,1,0,0,0,0.01520618,0.01900522,-0.01688743,0,0,0,0
1,87.44,8744,0.10606132,-0.9474107,0.27656201,-7.65342855,-21.41755867,-41.51151276,0,0,0,103.98629761,7.26635551,35.4187355,1,0,0,0,0.01735001,-0.01541336,-0.03628247,0,0,0,0
1,87.45,8745,0.11636461,-0.91749406,0.29146469,8.87974262,-26.90088654,-45.85582733,0,0,0,104.05525208,7.77641201,35.26745987,1,0,0,0,0.01558213,-0.04422727,-0.05130706,0,0,0,0
1,87.46,8746,0.17574643,-0.98121893,0.2717095,9.38437366,-33.67027664,-48.82916641,0,0,0,104.11968231,8.33200264,35.05773926,1,0,0,0,-0.03453619,0.02108195,-0.03048555,0,0,0,0
1,87.47,8747,0.17285126,-1.04777694,0.26304507,-0.31271863,-36.67103195,-54.48558044,0,0,0,104.07966614,8.94880962,34.83221817,1,0,0,0,-0.02132517,0.08916138,-0.02203367,0,0,0,0
1,87.48,8748,0.16669874,-1.01238549,0.20837347,-17.53019142,-41.04691315,-60.43363953,0,0,0,103.86304474,9.63433933,34.57635117,1,0,0,0,-0.00385393,0.05479075,0.02928417,0,0,0,0
1,87.49,8749,0.16180351,-0.89333844,0.17771752,5.77333879,-47.81627655,-64.38599396,0,0,0,103.86604309,10.37395954,34.26146698,1,0,0,0,0.01343455,-0.06254113,0.05802085,0,0,0,0
1,87.5,8750,0.14469241,-1.01575255,0.25978452,42.98305511,-50.43762207,-57.78517532,0,0,0,104.22985077,11.05686283,33.90612793,1,0,0,0,0.04309197,0.06312132,-0.0205825,0,0,0,0
1,87.51,8751,0.17089376,-1.07950056,0.28187659,22.7877388,-28.94944763,-42.70786285,0,0,0,104.42286682,11.54238892,33.72814941,1,0,0,0,0.02601876,0.12981366,-0.03833194,0,0,0,0
1,87.52,8752,0.15716399,-1.11760783,0.3062984,-7.76909065,-32.16900253,-52.13634872,0,0,0,104.30961609,12.10822582,33.54972839,1,0,0,0,0.0491486,0.16969028,-0.06364691,0,0,0,0
1,87.53,8753,0.0797244,-0.90674686,0.20245475,-19.84955788,-29.51078415,-60.79421616,0,0,0,104.08081055,12.76992702,33.40924454,1,0,0,0,0.13704325,-0.03983712,0.03624763,0,0,0,0
1,87.54,8754,0.08998502,-0.93030512,0.27969599,8.27410698,-23.11237526,-56.2857399,0,0,0,104.14342499,13.37209129,33.31972885,1,0,0,0,0.13773982,-0.01411361,-0.04261695,0,0,0,0
1,87.55,8755,0.06912053,-1.15757227,0.31756309,-21.46435738,-19.59145355,-58.89009857,0,0,0,103.91736603,13.99095535,33.27151489,1,0,0,0,0.16849387,0.21527344,-0.08176639,0,0,0,0
1,87.56,8756,0.01522472,-0.90369308,0.31906471,-33.30898285,-10.51355934,-70.60752106,0,0,0,103.60113525,14.70180798,33.33935547,1,0,0,0,0.23394363,-0.03714737,-0.08945606,0,0,0,0
1,87.57,8757,0.04429726,-0.99013883,0.34683013,-40.07903671,-10.56807423,-78.29492188,0,0,0,103.23239136,15.46461201,33.43291092,1,0,0,0,0.21753292,0.05119638,-0.12363832,0,0,0,0
1,87.58,8758,0.07058533,-1.04527724,0.33636343,-29.56594467,-9.28068066,-81.3132782,0,0,0,102.96331787,16.27765465,33.53022003,1,0,0,0,0.20457986,0.10869952,-0.11936252,0,0,0,0
1,87.59,8759,0.06330322,-1.03919768,0.30417976,3.35275555,-6.92738247,-81.46096802,0,0,0,103.03151703,17.08702278,33.65062714,1,0,0,0,0.22548413,0.10626501,-0.08918447,0,0,0,0
1,87.6,8760,0.10433906,-1.24267757,0.31694803,7.61744881,-5.55470276,-79.01210022,0,0,0,103.14702606,17.86916351,33.78175735,1,0,0,0,0.1976213,0.31425798,-0.10051692,0,0,0,0
1,87.61,8761,0.14771526,-1.25282168,0.26352945,-14.46028709,-12.60329723,-86.66459656,0,0,0,103.02666473,18.74179268,33.85941696,1,0,0,0,0.16799539,0.32864368,-0.04858213,0,0,0,0
1,87.62,8762,0.15464933,-1.16354585,0.19148228,-10.93518066,-19.90006828,-97.60824585,0,0,0,102.9204483,19.7163105,33.89174652,1,0,0,0,0.17675409,0.24406765,0.01996204,0,0,0,0
1,87.63,8763,0.1276862,-1.2383703,0.21297711,-7.24415112,-22.77190971,-102.16706085,0,0,0,102.85015106,20.76303291,33.89800262,1,0,0,0,0.22032656,0.32447714,-0.00402767,0,0,0,0
1,87.64,8764,0.13164295,-1.14325821,0.20460309,-2.59644842,-18.52622795,-106.21620178,0,0,0,102.84589386,21.8398037,33.95762634,1,0,0,0,0.23374522,0.23571339,0.0023417,0,0,0,0
1,87.65,8765,0.1675525,-0.97961372,0.239537,25.60381508,-27.30244446,-113.29701233,0,0,0,103.09637451,23.0051918,33.94369507,1,0,0,0,0.2163672,0.07976419,-0.03255319,0,0,0,0
1,87.66,8766,0.30457255,-1.40428102,0.26332274,11.82491398,-24.20973778,-112.67190552,0,0,0,103.22396851,24.15742302,33.96731567,1,0,0,0,0.09768588,0.51303452,-0.05395508,0,0,0,0
1,87.67,8767,0.17432301,-1.18188357,0.23423772,-10.26740646,-33.45920563,-108.81824493,0,0,0,103.07943726,25.26326942,33.88980484,1,0,0,0,0.24590623,0.29830593,-0.02767711,0,0,0,0
1,87.68,8768,0.10477819,-1.3063283,0.26860088,-4.67356157,-50.18406296,-131.74528503,0,0,0,102.93904114,26.65992737,33.67621994,1,0,0,0,0.33560315,0.43159133,-0.06648374,0,0,0,0
1,87.69,8769,0.13777038,-1.12556076,0.19237016,-6.49853897,-57.36831665,-139.48977661,0,0,0,102.74415588,28.14733887,33.39484024,1,0,0,0,0.32537761,0.26135486,0.00406913,0,0,0,0
1,87.7,8770,-0.00575767,-1.44297981,0.36521173,17.93045425,-60.81932449,-126.68759155,0,0,0,102.75109863,29.51729012,33.03731155,1,0,0,0,0.49037236,0.58990043,-0.17192546,0,0,0,0
1,87.71,8771,-0.10619166,-1.37920499,0.39999694,4.0508337,-61.04642105,-129.74023438,0,0,0,102.60932159,30.91683769,32.67646027,1,0,0,0,0.61282575,0.53793532,-0.21146387,0,0,0,0
1,87.72,8772,-0.26979467,-1.71316993,0.53913283,-3.09427953,-66.09281158,-125.09249878,0,0,0,102.35095978,32.25835419,32.24659729,1,0,0,0,0.79609448,0.88300717,-0.3553037,0,0,0,0
1,87.73,8773,-0.28035811,-1.48804939,0.38213199,-3.04142952,-66.60570526,-123.15677643,0,0,0,102.06664276,33.60273361,31.78055954,1,0,0,0,0.82661986,0.66925508,-0.20569189,0,0,0,0
1,87.74,8774,-0.18526311,-1.54658186,0.43536654,26.88985062,-76.60529327,-117.09633636,0,0,0,101.99124146,34.90756607,31.16906929,1,0,0,0,0.75046659,0.73972315,-0.26365891,0,0,0,0
1,87.75,8775,0.05775766,-1.66082036,0.48594302,28.17715263,-81.59548187,-121.07325745,0,0,0,101.88111877,36.26092911,30.49554062,1,0,0,0,0.52641171,0.86674458,-0.31817785,0,0,0,0
1,87.76,8776,0.47022307,-1.90059555,0.61813629,26.68540573,-71.01340485,-122.85513306,0,0,0,101.81533813,37.60907745,29.94164467,1,0,0,0,0.13324261,1.12018025,-0.45461535,0,0,0,0
1,87.77,8777,0.56459969,-1.8623302,0.59710407,3.145257,-72.24594879,-149.11026001,0,0,0,101.52832794,39.20910263,29.42857742,1,0,0,0,0.05871519,1.09655476,-0.4389984,0,0,0,0
1,87.78,8778,0.37020668,-1.75919485,0.6722554,-19.45750999,-98.17715454,-196.26454163,0,0,0,100.84020996,41.32505798,28.6662426,1,0,0,0,0.27915522,1.01315188,-0.5251863,0,0,0,0
1,87.79,8779,0.05502247,-1.51811016,0.86295569,-44.75832748,-128.69004822,-202.03681946,0,0,0,99.56334686,43.54203415,27.43623161,1,0,0,0,0.6237222,0.79505575,-0.73503077,0,0,0,0
1,87.8,8780,-0.12256526,-1.6193316,0.74767196,-71.7897644,-68.60250854,-188.92315674,0,0,0,98.47088623,45.51566696,26.90156555,1,0,0,0,0.82663828,0.91781545,-0.6379168,0,0,0,0
1,87.81,8781,0.16835895,-1.09201181,0.44736215,-0.50399762,-98.54662323,-155.09788513,0,0,0,97.66574097,47.18806839,25.79856682,1,0,0,0,0.55846786,0.41175282,-0.3529897,0,0,0,0
1,87.82,8782,0.06167165,-1.403561,0.65245646,14.86360931,-67.34011841,-138.59135437,0,0,0,97.29434204,48.62118149,25.09757042,1,0,0,0,0.68265766,0.74149704,-0.56530708,0,0,0,0
1,87.83,8783,-0.12575787,-0.86045814,0.23141013,-49.22306824,-65.97833252,-131.98118591,0,0,0,96.22019196,50.00934219,24.33084297,1,0,0,0,0.88628221,0.21554187,-0.15638441,0,0,0,0
1,87.84,8784,0.17495844,-0.38653639,0.23695712,-18.68219185,-66.31664276,-82.08391571,0,0,0,95.33361816,50.89247513,23.42386436,1,0,0,0,0.59805381,-0.24479708,-0.17491317,0,0,0,0
1,87.85,8785,0.4828485,-0.49716493,0.20988527,10.63577747,-22.31022263,-24.59671974,0,0,0,95.19313049,51.15779114,23.1063633,1,0,0,0,0.29523626,-0.12839414,-0.15279919,0,0,0,0
1,87.86,8786,-0.10436472,-0.58552688,0.35967261,-9.07661057,-30.39609909,-29.71802139,0,0,0,94.75639343,51.48031998,22.66335487,1,0,0,0,0.88530463,-0.03670277,-0.30529171,0,0,0,0
1,87.87,8787,-0.4958699,-0.44783995,0.38759387,-39.68416595,-44.98260117,-31.70275688,0,0,0,93.90065765,51.7277832,22.07030106,1,0,0,0,1.28047442,-0.17050526,-0.34245992,0,0,0,0
1,87.88,8788,-0.57107478,-0.39953873,0.3003203,-21.39715767,-20.73607635,9.51728153,0,0,0,93.41716003,51.64604187,21.72706795,1,0,0,0,1.35614848,-0.21867,-0.26191464,0,0,0,0
1,87.89,8789,-0.4385002,-0.35899425,0.20201638,-2.38635635,10.77255917,66.75580597,0,0,0,93.47740936,50.97323608,21.83507729,1,0,0,0,1.21854854,-0.26559937,-0.16467804,0,0,0,0
1,87.9,8790,-0.2894997,-0.31551102,0.16152667,20.28634453,29.44320297,102.81666565,0,0,0,93.95567322,49.92819977,22.19220924,1,0,0,0,1.05931997,-0.3213543,-0.11970371,0,0,0,0
1,87.91,8791,-0.15759592,-0.39393499,0.22412015,23.91957855,34.1990242,118.49000549,0,0,0,94.49002075,48.72129822,22.58130646,1,0,0,0,0.91440916,-0.25782794,-0.17512366,0,0,0,0
1,87.92,8792,-0.07270112,-0.41462207,0.2429954,12.69726276,41.03300858,132.68977356,0,0,0,94.98069,47.33550644,23.06176186,1,0,0,0,0.81445509,-0.25367332,-0.18703091,0,0,0,0
1,87.93,8793,-0.01158167,-0.38102034,0.28309047,7.09287214,60.751297,151.52244568,0,0,0,95.54344177,45.77093124,23.73940468,1,0,0,0,0.735394,-0.30595493,-0.21908407,0,0,0,0
1,87.94,8794,0.0274145,-0.42673454,0.29164553,8.92878151,72.4670639,167.38731384,0,0,0,96.18076324,44.03175354,24.51567459,1,0,0,0,0.67593449,-0.28023359,-0.21804106,0,0,0,0
1,87.95,8795,0.05549458,-0.43302873,0.27279994,8.89669609,81.21004486,183.11752319,0,0,0,96.83037567,42.1203804,25.33643723,1,0,0,0,0.62453681,-0.29525414,-0.18873346,0,0,0,0
1,87.96,8796,0.12222961,-0.42168385,0.25798315,21.71089554,82.56075287,196.11849976,0,0,0,97.54845428,40.07141113,26.0982399,1,0,0,0,0.53180122,-0.32862765,-0.1622349,0,0,0,0
1,87.97,8797,0.12287096,-0.48985326,0.23179652,33.91189957,82.57830048,209.75868225,0,0,0,98.32623291,37.86526871,26.78980255,1,0,0,0,0.50248599,-0.28274959,-0.12277231,0,0,0,0
1,87.98,8798,0.13746312,-0.58318293,0.18981923,39.96053314,80.5223999,227.19456482,0,0,0,99.06332397,35.49776459,27.35406113,1,0,0,0,0.45590714,-0.2121983,-0.0667898,0,0,0,0
1,87.99,8799,0.16613917,-0.64304262,0.14487588,44.29119492,76.09008789,244.57095337,0,0,0,99.7456131,32.96068573,27.77858925,1,0,0,0,0.39191663,-0.17528738,-0.00795706,0,0,0,0
1,88,8800,0.17562582,-0.68546325,0.14107777,47.44147491,64.43202972,262.36660767,0,0,0,100.32987213,30.26503944,27.98664093,1,0,0,0,0.34368736,-0.15572172,0.00905625,0,0,0,0
1,88.01,8801,0.15196064,-0.77231753,0.15793543,52.65080643,49.79390717,282.25430298,0,0,0,100.84102631,27.39920998,27.95340729,1,0,0,0,0.32496026,-0.09135593,0.00458106,0,0,0,0
1,88.02,8802,0.13167377,-0.84032631,0.16605204,56.4546051,37.92860794,301.52688599,0,0,0,101.30606842,24.35679054,27.7276001,1,0,0,0,0.29899803,-0.0450677,0.00822266,0,0,0,0
1,88.03,8803,0.16786714,-0.95298785,0.17761238,51.41942978,18.9775486,319.896698,0,0,0,101.63214874,21.18421173,27.2390995,1,0,0,0,0.21292064,0.04708703,0.00705003,0,0,0,0
1,88.04,8804,0.17107168,-0.95604724,0.21586624,59.2595787,8.83795738,328.48327637,0,0,0,102.01604462,17.9506855,26.61776733,1,0,0,0,0.15722162,0.03172325,-0.0219719,0,0,0,0
1,88.05,8805,0.20526144,-1.09540892,0.21601285,64.01013947,27.09879875,339.43740845,0,0,0,102.52256012,14.57633781,26.14164162,1,0,0,0,0.06785674,0.15579213,-0.01047514,0,0,0,0
1,88.06,8806,0.06703657,-1.26916182,0.34195682,28.24495125,28.09058762,329.6673584,0,0,0,102.70063019,11.29797649,25.68296051,1,0,0,0,0.14980534,0.31678051,-0.12819666,0,0,0,0
1,88.07,8807,0.07905699,-1.35450459,0.31792715,76.71639252,44.75085449,323.93322754,0,0,0,103.41771698,8.03962421,25.38312149,1,0,0,0,0.08169106,0.39353433,-0.09335785,0,0,0,0
1,88.08,8808,0.17262973,-1.63700485,0.22708619,-0.03388673,75.59199524,334.07327271,0,0,0,103.41355896,4.61470318,25.34464455,1,0,0,0,-0.06998119,0.6694634,0.0032274,0,0,0,0
1,88.09,8809,0.26225537,-1.63197553,0.34645638,46.94578934,91.63635254,332.16500854,0,0,0,103.88640594,1.17043865,25.45245361,1,0,0,0,-0.21904945,0.66142702,-0.11007825,0,0,0,0
1,88.1,8810,0.42867297,-1.81940043,0.339261,40.15979004,106.62414551,337.48202515,0,0,0,104.28629303,-2.36233592,25.66436195,1,0,0,0,-0.44695324,0.8500582,-0.09483697,0,0,0,0
1,88.11,8811,0.63780558,-1.72501743,0.28682727,38.93091202,108.69628906,328.52694702,0,0,0,104.65847015,-5.81497097,25.89679337,1,0,0,0,-0.71678847,0.76009524,-0.03702357,0,0,0,0
1,88.12,8812,0.77162594,-1.73333907,0.34268931,43.17867661,115.42113495,310.89755249,0,0,0,105.04721832,-9.10744953,26.21471405,1,0,0,0,-0.90877318,0.77624881,-0.08791564,0,0,0,0
1,88.13,8813,0.92522395,-1.881616,0.31721741,42.57206726,127.03556824,287.13806152,0,0,0,105.38337708,-12.21162033,26.69530678,1,0,0,0,-1.11718822,0.93493462,-0.05892019,0,0,0,0
1,88.14,8814,1.05980349,-2.04816771,0.33780283,36.21920395,122.68785095,256.82107544,0,0,0,105.62494659,-15.01439381,27.20527458,1,0,0,0,-1.30154979,1.11340046,-0.07782938,0,0,0,0
1,88.15,8815,1.30916238,-2.01778316,0.44266769,22.42170715,131.75404358,220.55859375,0,0,0,105.65261841,-17.49378967,27.90651131,1,0,0,0,-1.59458649,1.09506607,-0.18385452,0,0,0,0
1,88.16,8816,1.48117971,-1.62470555,0.50372344,-0.11859851,121.50405121,191.64753723,0,0,0,105.43001556,-19.66583633,28.59945297,1,0,0,0,-1.80468071,0.7130608,-0.25046188,0,0,0,0
1,88.17,8817,1.57211041,-1.21966648,0.49367744,5.79492331,133.10174561,151.98881531,0,0,0,105.15619659,-21.46580124,29.5350666,1,0,0,0,-1.92780948,0.31803277,-0.24778768,0,0,0,0
1,88.18,8818,1.756832,-1.02820945,0.24523197,24.93398857,155.98937988,82.09775543,0,0,0,104.87944031,-22.66290474,30.93157005,1,0,0,0,-2.13560772,0.13421868,-0.00590503,0,0,0,0
1,88.19,8819,1.79310954,-0.99545473,0.16397387,28.42967224,160.00395203,15.86799812,0,0,0,104.52396393,-23.22264481,32.56869507,1,0,0,0,-2.18493319,0.10540277,0.06899297,0,0,0,0
1,88.2,8820,1.7864995,-1.03628421,0.17822717,20.95879364,151.96658325,-56.02184677,0,0,0,104.04345703,-23.05511284,34.32080078,1,0,0,0,-2.18000317,0.14519466,0.04784245,0,0,0,0
1,88.21,8821,1.85347462,-0.96476507,0.16888948,16.72092056,118.42614746,-105.0480423,0,0,0,103.62407684,-22.31785583,35.83928299,1,0,0,0,-2.23825884,0.06827302,0.05071174,0,0,0,0
1,88.22,8822,1.52614057,-1.4174273,0.25481969,39.14252472,89.80005646,-138.17338562,0,0,0,103.53705597,-21.16736794,37.12052536,1,0,0,0,-1.89463079,0.51353317,-0.03766498,0,0,0,0
1,88.23,8823,0.63698971,-1.44178998,-0.28999275,10.97220707,63.12227249,-165.24928284,0,0,0,103.27394867,-19.70832634,38.18803024,1,0,0,0,-0.98323548,0.52957118,0.50888282,0,0,0,0
1,88.24,8824,-0.92418081,-1.1264298,-0.10881475,-9.69001865,80.44239807,-200.64797974,0,0,0,102.75610352,-17.93232155,39.49005508,1,0,0,0,0.60420543,0.20278859,0.31956363,0,0,0,0
1,88.25,8825,-2.74997783,-1.68257463,-0.35054994,-22.01452065,110.27215576,-188.42102051,0,0,0,102.08019257,-16.33071518,41.04286575,1,0,0,0,2.46020269,0.74775392,0.55567861,0,0,0,0
1,88.26,8826,-0.76087159,-1.20919466,-0.40176964,1.22934067,138.56607056,-97.93631744,0,0,0,101.64751434,-15.6582346,42.66347122,1,0,0,0,0.48756927,0.26779205,0.59938705,0,0,0,0
1,88.27,8827,1.61129665,-0.85676116,-0.27457687,56.31971359,47.90380096,-219.65367126,0,0,0,101.96209717,-13.59777832,43.60933685,1,0,0,0,-1.86419678,-0.09052283,0.47086862,0,0,0,0
1,88.28,8828,1.07726419,-1.55467248,0.79289591,47.94882584,67.9083252,-190.93173218,0,0,0,102.2067337,-11.87432671,44.69961548,1,0,0,0,-1.29240382,0.60002887,-0.58718348,0,0,0,0
1,88.29,8829,0.19456479,-1.4812994,0.5606342,13.36330414,76.159935,-182.9389801,0,0,0,102.11682892,-10.2464838,45.85124207,1,0,0,0,-0.3830691,0.52123505,-0.35404795,0,0,0,0
1,88.3,8830,0.57184249,-1.3408587,0.72718441,34.53640366,40.27399826,-157.03999329,0,0,0,102.34153748,-8.79694653,46.58694458,1,0,0,0,-0.73368418,0.37650144,-0.51796174,0,0,0,0
1,88.31,8831,0.75278652,-1.29770184,0.70947921,19.05883789,95.31417084,-133.22529602,0,0,0,102.35638428,-7.70020676,47.81630325,1,0,0,0,-0.89355648,0.33072799,-0.49706525,0,0,0,0
1,88.32,8832,0.71553725,-1.19660425,-0.05885281,-4.45145607,27.39945793,-165.37669373,0,0,0,102.21569061,-6.10551453,48.43138504,1,0,0,0,-0.83293295,0.22619596,0.26970619,0,0,0,0
1,88.33,8833,0.99565047,-1.02909493,0.01711458,-2.96797419,-5.18671751,-129.9932251,0,0,0,102.16451263,-4.82393456,48.65617371,1,0,0,0,-1.08747673,0.05575556,0.19298825,0,0,0,0
1,88.34,8834,0.84783548,-0.90071481,0.40799782,12.0632534,-30.00702095,-106.93345642,0,0,0,102.28954315,-3.71525788,48.58883286,1,0,0,0,-0.91987789,-0.07406664,-0.19685537,0,0,0,0
1,88.35,8835,0.22850005,-0.93737763,0.29014274,10.32277584,-55.25707245,-95.88789368,0,0,0,102.41113281,-2.66028738,48.2538147,1,0,0,0,-0.28172293,-0.03798702,-0.0761222,0,0,0,0
1,88.36,8836,-0.00568356,-0.99928576,0.34171253,10.40964317,-49.28702927,-86.07154083,0,0,0,102.52674866,-1.71353531,47.95800018,1,0,0,0,-0.03018549,0.02353084,-0.12585422,0,0,0,0
1,88.37,8837,0.0641111,-1.02828574,0.39355022,15.65217972,-16.97841644,-74.52035522,0,0,0,102.69976807,-0.92274404,47.9433136,1,0,0,0,-0.0852908,0.05273759,-0.17482151,0,0,0,0
1,88.38,8838,0.2715435,-0.98536432,0.27225965,5.12145138,-30.0247612,-64.25576019,0,0,0,102.75232697,-0.22981948,47.791996,1,0,0,0,-0.28014299,0.01000021,-0.05185253,0,0,0,0
1,88.39,8839,0.30843234,-1.03123772,0.31398574,2.58272791,-25.29381943,-64.51889801,0,0,0,102.77809143,0.45531902,47.68795776,1,0,0,0,-0.30486682,0.05600733,-0.09284765,0,0,0,0
1,88.4,8840,0.34205219,-1.06532896,0.21193185,-5.45643568,-20.78639984,-56.05526733,0,0,0,102.72237396,1.04792058,47.60895538,1,0,0,0,-0.32755101,0.09007776,0.00867317,0,0,0,0
1,88.41,8841,0.28791761,-1.07698488,0.18342404,-9.10754681,-31.3698349,-49.99314117,0,0,0,102.62673187,1.60449517,47.41254807,1,0,0,0,-0.26351142,0.10160269,0.03572473,0,0,0,0
1,88.42,8842,0.14491458,-1.09625292,0.23452812,-12.62524223,-30.45331192,-44.96952057,0,0,0,102.49214172,2.12270617,47.20875931,1,0,0,0,-0.11124504,0.12072243,-0.01727323,0,0,0,0
1,88.43,8843,0.15566193,-1.04554951,0.21931064,-27.59917259,-38.65604401,-37.91828918,0,0,0,102.20394135,2.57578635,46.91200256,1,0,0,0,-0.11365177,0.0694243,-0.00621958,0,0,0,0
1,88.44,8844,0.16833635,-1.01206708,0.22384721,-30.05347252,-38.49131393,-34.24648285,0,0,0,101.8885498,2.99103689,46.6067009,1,0,0,0,-0.11880483,0.03515072,-0.01606156,0,0,0,0
1,88.45,8845,0.18314347,-0.97901374,0.19885573,-21.54586792,-42.17770386,-31.17422867,0,0,0,101.65358734,3.38217783,46.25676346,1,0,0,0,-0.12669715,0.00146462,0.00413889,0,0,0,0
1,88.46,8846,0.14337099,-0.97913134,0.1938228,-11.57627296,-46.76872635,-30.055439,0,0,0,101.51294708,3.77048993,45.85814667,1,0,0,0,-0.08015401,0.00138441,0.00620344,0,0,0,0
1,88.47,8847,0.0781252,-0.98493302,0.16320515,-9.09636974,-43.92041779,-30.0872097,0,0,0,101.3854599,4.15095568,45.4874649,1,0,0,0,-0.00819448,0.00718914,0.0345896,0,0,0,0
1,88.48,8848,0.04644381,-0.99049771,0.12256929,-5.19518423,-37.5844841,-29.65778542,0,0,0,101.31002045,4.51566315,45.1763916,1,0,0,0,0.02991361,0.01285493,0.07334106,0,0,0,0
1,88.49,8849,0.03259264,-0.97031957,0.14802019,-0.20802496,-32.77146149,-32.44445038,0,0,0,101.28675842,4.89802647,44.91772461,1,0,0,0,0.05025271,-0.00694089,0.04715939,0,0,0,0
1,88.5,8850,0.03644114,-0.94961226,0.18514483,-2.65036345,-27.05031586,-34.63949585,0,0,0,101.24266052,5.2906065,44.71934128,1,0,0,0,0.05319089,-0.02718128,0.0093722,0,0,0,0
1,88.51,8851,0.02039595,-0.93315339,0.20772816,-5.95629883,-20.9101696,-38.83143616,0,0,0,101.17069244,5.71217155,44.58911896,1,0,0,0,0.07631623,-0.04320134,-0.01440589,0,0,0,0
1,88.52,8852,0.0201839,-0.90752465,0.23849368,-5.92266607,-16.56942368,-44.55539322,0,0,0,101.12380219,6.16455126,44.51795578,1,0,0,0,0.08434513,-0.06828527,-0.04649423,0,0,0,0
1,88.53,8853,0.0720914,-0.91055185,0.2693589,-4.50718498,-13.7591362,-46.90196991,0,0,0,101.07370758,6.6512804,44.47293472,1,0,0,0,0.04051952,-0.06452127,-0.07819065,0,0,0,0
1,88.54,8854,0.15145259,-0.87771761,0.25618184,1.54947293,-19.36498642,-46.4822197,0,0,0,101.07695007,7.14460754,44.3712883,1,0,0,0,-0.03028602,-0.09648497,-0.06580811,0,0,0,0
1,88.55,8855,0.20532428,-0.97314805,0.27868617,16.64455986,-21.78582001,-41.18328476,0,0,0,101.22607422,7.59081554,44.2361412,1,0,0,0,-0.07599774,0.00037058,-0.08640055,0,0,0,0
1,88.56,8856,0.1777173,-0.98620093,0.2007167,2.60106516,-29.86330223,-45.9888916,0,0,0,101.22400665,8.1000824,44.03090668,1,0,0,0,-0.04028676,0.01467225,-0.0077443,0,0,0,0
1,88.57,8857,0.14647527,-0.89728838,0.20490739,10.79430771,-34.71173859,-48.70121002,0,0,0,101.30700684,8.64317417,43.7841568,1,0,0,0,0.0003825,-0.07280768,-0.0116735,0,0,0,0
1,88.58,8858,0.047023,-0.92679095,0.25699681,10.92603302,-24.58086967,-51.64573669,0,0,0,101.39459991,9.19790363,43.64324951,1,0,0,0,0.10911249,-0.04154648,-0.06222346,0,0,0,0
1,88.59,8859,0.22308242,-0.95584387,0.18171099,-12.29107571,-26.55168724,-55.74209213,0,0,0,101.24629211,9.79656887,43.49022675,1,0,0,0,-0.05668314,-0.01108272,0.01156373,0,0,0,0
1,88.6,8860,0.26360047,-1.03636503,0.16868663,-3.00908852,-21.86956215,-42.15116501,0,0,0,101.19281006,10.25256634,43.35562134,1,0,0,0,-0.08853719,0.07057816,0.02263536,0,0,0,0
1,88.61,8861,0.19700247,-1.03497696,0.1569652,-8.66426182,-28.78323174,-44.96331406,0,0,0,101.06991577,10.74931145,43.15667343,1,0,0,0,-0.01363939,0.07037611,0.03255319,0,0,0,0
1,88.62,8862,0.13310686,-0.99428672,0.15588196,0.48351371,-17.65886688,-40.69183731,0,0,0,101.05515289,11.17325974,43.06272888,1,0,0,0,0.05802399,0.03090377,0.03215591,0,0,0,0
1,88.63,8863,0.05018799,-1.13264191,0.17206205,-13.34945297,-26.18213844,-55.70728302,0,0,0,100.89103699,11.77001953,42.90876007,1,0,0,0,0.14982472,0.17074174,0.0143065,0,0,0,0
1,88.64,8864,-0.09358867,-0.87105745,0.19610466,-13.59970856,1.60994852,-53.55665588,0,0,0,100.78011322,12.29307747,43.02783966,1,0,0,0,0.30339271,-0.08932944,-0.01271195,0,0,0,0
1,88.65,8865,0.00267275,-1.00810409,0.2237861,-12.56968212,13.38363266,-53.65794754,0,0,0,100.70569611,12.79523468,43.26503372,1,0,0,0,0.21524739,0.04925172,-0.04183572,0,0,0,0
1,88.66,8866,0.06458241,-1.20295775,0.27081183,-24.3092041,6.106709,-64.86951447,0,0,0,100.50434875,13.42149544,43.44950485,1,0,0,0,0.16341197,0.24594337,-0.09155983,0,0,0,0
1,88.67,8867,-0.00846407,-1.0983026,0.25768432,-30.96448517,-2.17887139,-76.13768768,0,0,0,100.23529053,14.13364792,43.58403778,1,0,0,0,0.24833006,0.14322945,-0.08365506,0,0,0,0
1,88.68,8868,0.00437693,-1.16280413,0.29730251,-19.31749916,7.20446682,-79.28446198,0,0,0,100.09672546,14.90139675,43.80168152,1,0,0,0,0.24788694,0.21025442,-0.12701486,0,0,0,0
1,88.69,8869,0.0153767,-1.23177624,0.24120261,-18.07043076,10.8159914,-87.18426514,0,0,0,99.98693085,15.74105358,44.06970215,1,0,0,0,0.25049677,0.28249556,-0.0733927,0,0,0,0
1,88.7,8870,0.05606451,-1.28598952,0.19667053,-23.28278732,9.80275345,-92.57466125,0,0,0,99.82831573,16.63609886,44.33613968,1,0,0,0,0.22448598,0.3404305,-0.03177899,0,0,0,0
1,88.71,8871,0.06657963,-1.29062152,0.13273972,-27.6985836,0.38472453,-104.05859375,0,0,0,99.60654449,17.66107368,44.52390289,1,0,0,0,0.23020443,0.34932673,0.02805904,0,0,0,0
1,88.72,8872,0.01965424,-1.2510494,0.13348924,-19.49416351,-3.81669211,-112.50314331,0,0,0,99.45518494,18.74854088,44.68877029,1,0,0,0,0.29507822,0.31490192,0.02317205,0,0,0,0
1,88.73,8873,0.05650852,-1.39907217,0.21217921,-22.1711235,-7.87705421,-114.51315308,0,0,0,99.27170563,19.89120674,44.80420303,1,0,0,0,0.27673894,0.46879148,-0.05890702,0,0,0,0
1,88.74,8874,0.08014835,-1.30911255,0.19536455,-28.8020153,-9.07887077,-118.15597534,0,0,0,99.02019501,21.07216263,44.90886688,1,0,0,0,0.27205387,0.38501757,-0.04715243,0,0,0,0
1,88.75,8875,0.00910765,-1.34875047,0.24721834,-17.98008156,-20.56930542,-131.320755,0,0,0,98.84007263,22.40132523,44.90910721,1,0,0,0,0.36375573,0.43205404,-0.10370287,0,0,0,0
1,88.76,8876,-0.02035029,-1.61956394,0.33289805,-33.55255508,-26.52957535,-127.84059906,0,0,0,98.47512054,23.70512199,44.83398819,1,0,0,0,0.414455,0.71096611,-0.19474114,0,0,0,0
1,88.77,8877,-0.10812657,-1.51846647,0.37257212,-44.917099,-42.58909607,-134.36550903,0,0,0,97.92552185,25.07694054,44.58851242,1,0,0,0,0.52386189,0.61813313,-0.24406758,0,0,0,0
1,88.78,8878,-0.35176,-1.59220755,0.48151463,-35.91518021,-50.99631119,-139.87705994,0,0,0,97.41194916,26.53116608,44.234272,1,0,0,0,0.78995776,0.70125806,-0.36261594,0,0,0,0
1,88.79,8879,-0.49437901,-1.78912961,0.50691319,-46.62566757,-60.34088516,-144.44090271,0,0,0,96.72846985,28.0388813,43.76073074,1,0,0,0,0.95560962,0.9084959,-0.3988114,0,0,0,0
1,88.8,8880,-0.41029447,-1.67971289,0.48305318,-35.28844452,-54.30238342,-142.00608826,0,0,0,96.16670227,29.51084328,43.3265152,1,0,0,0,0.8945722,0.81020492,-0.38622713,0,0,0,0
1,88.81,8881,-0.45656601,-1.65461481,0.46582577,-10.29577255,-51.79576492,-138.67765808,0,0,0,95.84790039,30.94412422,42.89791107,1,0,0,0,0.96275711,0.79687697,-0.37634891,0,0,0,0
1,88.82,8882,-0.1845247,-1.73771894,0.53351766,0.80280185,-56.34437561,-141.89445496,0,0,0,95.6037674,32.39785767,42.41280365,1,0,0,0,0.71214622,0.89246631,-0.44918954,0,0,0,0
1,88.83,8883,0.19186687,-1.84353805,0.6422891,1.96350574,-54.37869263,-145.17532349,0,0,0,95.36099243,33.89501953,41.93240738,1,0,0,0,0.35780287,1.01197577,-0.5628258,0,0,0,0
1,88.84,8884,0.52203882,-1.62791884,0.55765295,-18.62170219,-57.37968063,-153.95330811,0,0,0,94.8740921,35.47956848,41.40428162,1,0,0,0,0.04918756,0.8103835,-0.48506713,0,0,0,0
1,88.85,8885,0.36268267,-1.70683753,0.91435903,-40.43574142,-82.12572479,-216.78251648,0,0,0,93.98764801,37.70497894,40.59551239,1,0,0,0,0.23708743,0.90909016,-0.85329604,0,0,0,0
1,88.86,8886,-0.05411647,-1.42197526,0.69426882,-81.16600037,-26.42149544,-192.75588989,0,0,0,93.05910492,39.64496231,40.40912247,1,0,0,0,0.68175715,0.64493459,-0.64769566,0,0,0,0
1,88.87,8887,0.00199774,-1.38739121,0.70737147,-62.90365601,-41.26538849,-196.46174622,0,0,0,92.17514038,41.60135651,40.00413132,1,0,0,0,0.65297484,0.63250518,-0.67473423,0,0,0,0
1,88.88,8888,-0.14813776,-1.32005072,0.68336034,-55.09767914,-29.10075378,-166.01785278,0,0,0,91.40665436,43.27006149,39.68107224,1,0,0,0,0.82576191,0.5850122,-0.66162252,0,0,0,0
1,88.89,8889,-0.21963415,-1.21453834,0.45485932,-72.68816376,-11.09765148,-150.45355225,0,0,0,90.59805298,44.77618027,39.56391525,1,0,0,0,0.91717201,0.49812397,-0.44336829,0,0,0,0
1,88.9,8890,-0.16334417,-0.738105,0.21823189,-81.06420135,-25.62085724,-133.9680481,0,0,0,89.52889252,46.11611938,39.20140457,1,0,0,0,0.87824643,0.03891981,-0.2189686,0,0,0,0
1,88.91,8891,0.32460949,-0.32664502,0.27069628,-91.6375351,-7.38182783,-83.97850037,0,0,0,88.52085876,46.9551506,39.07443619,1,0,0,0,0.40298146,-0.3592132,-0.28431964,0,0,0,0
1,88.92,8892,0.74681818,-0.38731447,0.29469186,-65.62384796,37.85874176,-59.21222305,0,0,0,88.3247757,47.54961395,39.65374374,1,0,0,0,-0.01173885,-0.29036987,-0.31452242,0,0,0,0
1,88.93,8893,0.20267218,-0.68249416,0.48796245,-34.10808945,25.2967701,-67.4981842,0,0,0,88.2410965,48.23184204,40.00072861,1,0,0,0,0.54028082,0.01346141,-0.50809097,0,0,0,0
1,88.94,8894,-0.19144937,-0.51921779,0.52575326,-72.32840729,28.58008385,-52.11739349,0,0,0,87.82077026,48.76257706,40.40510178,1,0,0,0,0.94127482,-0.14200056,-0.54907638,0,0,0,0
1,88.95,8895,-0.3974199,-0.36939341,0.47633374,-56.43640137,37.92071533,-29.05040741,0,0,0,87.67839813,49.06795502,40.96463013,1,0,0,0,1.15193522,-0.28636086,-0.50262624,0,0,0,0
1,88.96,8896,-0.35800126,-0.34972185,0.33664262,-47.10914612,52.87798309,7.06002665,0,0,0,87.81970978,49.01835632,41.77525711,1,0,0,0,1.11341882,-0.30501258,-0.36245874,0,0,0,0
1,88.97,8897,-0.27264288,-0.29368755,0.21142191,-42.96416855,78.52648926,38.96764374,0,0,0,88.33506775,48.61795807,43.01929855,1,0,0,0,1.02510226,-0.36458242,-0.23326597,0,0,0,0
1,88.98,8898,-0.16390553,-0.26221731,0.20515282,-33.69965744,96.68413544,60.7497673,0,0,0,89.09944916,48.03230667,44.49364853,1,0,0,0,0.91010821,-0.40334553,-0.21902576,0,0,0,0
1,88.99,8899,-0.01903848,-0.28350332,0.23175873,-35.81017303,101.35381317,71.24265289,0,0,0,89.86170959,47.32905197,46.00867081,1,0,0,0,0.75751507,-0.39074367,-0.23673537,0,0,0,0
1,89,8900,0.03867937,-0.29899508,0.33172274,-31.97260857,106.47421265,84.01292419,0,0,0,90.6760788,46.48399353,47.5615387,1,0,0,0,0.6904301,-0.38536969,-0.32737613,0,0,0,0
1,89.01,8901,0.02461962,-0.3513248,0.40381312,-33.26187134,120.04055786,99.15042114,0,0,0,91.56541443,45.46910477,49.26065445,1,0,0,0,0.69307953,-0.34484249,-0.38885003,0,0,0,0
1,89.02,8902,0.08584403,-0.36092636,0.42498848,-30.0169487,133.55386353,117.15415192,0,0,0,92.59545898,44.2361145,51.11146164,1,0,0,0,0.61775208,-0.34911862,-0.39781752,0,0,0,0
1,89.03,8903,0.13108839,-0.38946882,0.43111125,-24.05067635,137.70373535,132.93180847,0,0,0,93.59371948,42.83435822,52.90936661,1,0,0,0,0.55565715,-0.33623815,-0.3902553,0,0,0,0
1,89.04,8904,0.11784568,-0.42586058,0.47153106,-19.80858231,137.84959412,146.98591614,0,0,0,94.54230499,41.27030945,54.62078476,1,0,0,0,0.54954773,-0.3168031,-0.41707551,0,0,0,0
1,89.05,8905,0.08425143,-0.4760575,0.47500864,-19.67537498,140.96528625,158.57046509,0,0,0,95.42451477,39.56802368,56.28445435,1,0,0,0,0.56141347,-0.28448746,-0.40713206,0,0,0,0
1,89.06,8906,0.08482536,-0.49997732,0.45466575,-16.54759979,144.50932312,172.5382843,0,0,0,96.26821899,37.70439911,57.9000473,1,0,0,0,0.53654015,-0.2792536,-0.37337077,0,0,0,0
1,89.07,8907,0.06728904,-0.54211026,0.44650203,-8.35998058,140.98873901,190.73568726,0,0,0,97.09082794,35.62789154,59.38511276,1,0,0,0,0.52650654,-0.25680801,-0.35152566,0,0,0,0
1,89.08,8908,0.08288997,-0.61064988,0.44061917,0.07115097,133.23907471,211.24263,0,0,0,97.81185913,33.36052322,60.65583038,1,0,0,0,0.47956252,-0.2089334,-0.33200592,0,0,0,0
1,89.09,8909,0.12339455,-0.69621044,0.46283305,2.85290623,131.15519714,229.82060242,0,0,0,98.45198822,30.89985847,61.80509186,1,0,0,0,0.40405685,-0.14456117,-0.34140593,0,0,0,0
1,89.1,8910,0.20395418,-0.78962094,0.50622272,1.89003444,131.60375977,244.64195251,0,0,0,98.99901581,28.28195763,62.87384033,1,0,0,0,0.28498435,-0.0723172,-0.3726863,0,0,0,0
1,89.11,8911,0.29843652,-0.81663412,0.56962973,-5.61981106,127.24274445,253.60704041,0,0,0,99.37596893,25.5753231,63.82880783,1,0,0,0,0.14905792,-0.06595169,-0.42605379,0,0,0,0
1,89.12,8912,0.28115788,-0.72126806,0.5927406,21.25348473,120.81639099,267.48165894,0,0,0,99.94269562,22.7319622,64.64769745,1,0,0,0,0.12268968,-0.18039839,-0.43879974,0,0,0,0
1,89.13,8913,0.28187326,-1.13394821,0.84185362,20.1792202,114.15651703,271.63357544,0,0,0,100.3944931,19.85608673,65.33564758,1,0,0,0,0.07549623,0.21510996,-0.67505103,0,0,0,0
1,89.14,8914,0.39433992,-1.01951158,0.61456949,-28.46587753,104.96846008,295.90200806,0,0,0,100.27768707,16.75689316,65.86566162,1,0,0,0,-0.08645993,0.08355322,-0.44440079,0,0,0,0
1,89.15,8915,0.38649771,-1.23214865,0.76677859,-3.14914322,74.82485962,307.22369385,0,0,0,100.29673767,13.60029602,66.05695343,1,0,0,0,-0.13130653,0.28109848,-0.5931648,0,0,0,0
1,89.16,8916,0.25382778,-1.19760442,0.67705148,-70.49266052,69.42249298,310.69665527,0,0,0,99.62334442,10.42012691,66.20767212,1,0,0,0,-0.05236179,0.23270433,-0.50934333,0,0,0,0
1,89.17,8917,0.2463174,-1.10543883,0.57107985,7.64959335,65.20134735,326.05218506,0,0,0,99.7261734,7.09889364,66.30485535,1,0,0,0,-0.10111622,0.1300789,-0.40577674,0,0,0,0
1,89.18,8918,0.31641737,-1.41581237,0.72165698,45.07732391,62.41897583,337.26815796,0,0,0,100.17984772,3.66913271,66.33681488,1,0,0,0,-0.2299719,0.43486264,-0.54851365,0,0,0,0
1,89.19,8919,0.44130194,-1.59091461,0.70711654,44.36472702,64.03848267,338.730896,0,0,0,100.62451172,0.22198176,66.35533905,1,0,0,0,-0.4149285,0.60799801,-0.52575439,0,0,0,0
1,89.2,8920,0.8339811,-1.59831738,0.37519664,45.96414566,32.35736465,335.78295898,0,0,0,101.09449768,-3.13632631,66.04058838,1,0,0,0,-0.86693573,0.61707395,-0.18597516,0,0,0,0
1,89.21,8921,1.01826334,-1.65292203,0.3316201,38.98736572,17.36662292,329.07693481,0,0,0,101.5231781,-6.39729548,65.56387329,1,0,0,0,-1.10862029,0.67666572,-0.13539553,0,0,0,0
1,89.22,8922,1.02130437,-1.75423765,0.20479882,58.6894722,18.00071716,303.38201904,0,0,0,102.17185211,-9.39346027,65.11139679,1,0,0,0,-1.1655823,0.78608263,-0.00073749,0,0,0,0
1,89.23,8923,1.08118498,-1.90344787,0.22758894,66.84454346,11.96278763,283.66445923,0,0,0,102.93567657,-12.18825436,64.60263062,1,0,0,0,-1.27464175,0.94625551,-0.01273719,0,0,0,0
1,89.24,8924,1.17632771,-2.05086994,0.21662956,57.49048233,5.49399662,256.98147583,0,0,0,103.6394043,-14.70178223,64.05020142,1,0,0,0,-1.41462815,1.1061275,0.00813533,0,0,0,0
1,89.25,8925,1.08876574,-1.83438253,0.35904816,31.56737137,32.35815811,221.67224121,0,0,0,104.01411438,-16.93182945,63.82553864,1,0,0,0,-1.36628902,0.90188557,-0.12815382,0,0,0,0
1,89.26,8926,1.0255506,-1.45843542,0.46566296,43.47229004,97.78515625,171.72529602,0,0,0,104.27613831,-18.83574677,64.38296509,1,0,0,0,-1.33728647,0.53709674,-0.23355731,0,0,0,0
1,89.27,8927,1.40401244,-1.32857609,0.37237567,48.56027985,148.44418335,120.88272858,0,0,0,104.35241699,-20.35958862,65.58663177,1,0,0,0,-1.74350953,0.41749734,-0.13865718,0,0,0,0
1,89.28,8928,1.72383034,-1.13093674,0.03315166,-13.8183651,177.84059143,48.21634674,0,0,0,103.60153198,-21.25806236,67.3074646,1,0,0,0,-2.08131433,0.22454186,0.19183442,0,0,0,0
1,89.29,8929,1.81246698,-0.85837412,-0.09959157,48.47970963,166.3939209,-9.36086369,0,0,0,103.44165039,-21.55451965,69.06948853,1,0,0,0,-2.17894864,-0.04654624,0.31594566,0,0,0,0
1,89.3,8930,1.84216273,-1.05957651,0.05462841,57.36150742,144.46427917,-67.82530212,0,0,0,103.40162659,-21.23042107,70.7483139,1,0,0,0,-2.20703697,0.15397578,0.16158998,0,0,0,0
1,89.31,8931,1.50432324,-1.47457135,0.11572488,46.71693039,129.3278656,-111.49886322,0,0,0,103.29094696,-20.44356728,72.37014771,1,0,0,0,-1.85880172,0.56463677,0.09956,0,0,0,0
1,89.32,8932,1.43973231,-1.28545046,-0.47114077,-12.4682045,102.47880554,-131.79246521,0,0,0,102.68847656,-19.37296486,73.74768066,1,0,0,0,-1.77812493,0.36843562,0.68217647,0,0,0,0
1,89.33,8933,1.1515522,-1.04768848,-0.38676357,39.13730621,67.70397186,-164.36756897,0,0,0,102.73413086,-17.91763878,74.82552338,1,0,0,0,-1.46920788,0.12258555,0.59466231,0,0,0,0
1,89.34,8934,-0.94848049,-1.3972249,-0.10151541,32.38574982,82.20285034,-226.53346252,0,0,0,102.66298676,-15.88997459,76.18647766,1,0,0,0,0.66153294,0.46298596,0.31307164,0,0,0,0
1,89.35,8935,-2.14143205,-1.90180743,0.0988141,-28.74375534,86.63515472,-200.32424927,0,0,0,102.03651428,-14.11829376,77.50685883,1,0,0,0,1.88806427,0.95659208,0.10685313,0,0,0,0
1,89.36,8936,-0.08446525,-1.25390756,0.18172523,1.34994173,135.90103149,-106.49130249,0,0,0,101.67295074,-13.35459614,79.10084534,1,0,0,0,-0.15048221,0.30239192,0.0167854,0,0,0,0
1,89.37,8937,1.56283128,-1.46568811,0.17948774,20.24141884,89.85810852,-148.70332336,0,0,0,101.60655212,-12.06842709,80.30780029,1,0,0,0,-1.78144169,0.50979823,0.01656255,0,0,0,0
1,89.38,8938,1.07391751,-1.93454444,0.38643649,33.34382248,92.90766907,-215.44702148,0,0,0,101.67467499,-10.14542007,81.67807007,1,0,0,0,-1.26328599,0.97286546,-0.18840188,0,0,0,0
1,89.39,8939,0.73865098,-1.67318797,0.75822258,24.57165909,81.94883728,-239.7052002,0,0,0,101.71565247,-7.9647522,82.98347473,1,0,0,0,-0.89102614,0.70553136,-0.55744535,0,0,0,0
1,89.4,8940,0.21921696,-1.08123553,0.22173047,-11.70048809,66.2690506,-210.85246277,0,0,0,101.46589661,-6.0328908,84.06519318,1,0,0,0,-0.33646679,0.10837832,-0.02244731,0,0,0,0
1,89.41,8941,0.37571731,-0.62487328,-0.03468163,-12.03140163,32.0022583,-160.64485168,0,0,0,101.28688812,-4.52092838,84.69791412,1,0,0,0,-0.46387202,-0.35180879,0.23030847,0,0,0,0
1,89.42,8942,0.75746948,-0.55901968,0.12425722,23.39260864,-14.24945068,-129.32026672,0,0,0,101.52121735,-3.15324664,84.79368591,1,0,0,0,-0.82166648,-0.4191995,0.07302187,0,0,0,0
1,89.43,8943,0.52886152,-0.78598022,0.47446042,22.17696571,-49.44582367,-113.67360687,0,0,0,101.75379944,-1.93999314,84.53872681,1,0,0,0,-0.57057083,-0.19244286,-0.27219063,0,0,0,0
1,89.44,8944,0.27918139,-0.92099035,0.37646759,29.34407043,-51.53463364,-101.76404572,0,0,0,102.05451202,-0.83807558,84.2438736,1,0,0,0,-0.30065727,-0.05718219,-0.16985852,0,0,0,0
1,89.45,8945,0.53281659,-1.09902108,0.25700989,29.08233452,-49.47404099,-84.27239227,0,0,0,102.34732819,0.09019272,83.93846893,1,0,0,0,-0.53726614,0.12178528,-0.04495237,0,0,0,0
1,89.46,8946,0.38312283,-1.15481734,0.30345324,16.9025383,-41.69052124,-86.13143921,0,0,0,102.51426697,1.02112138,83.71704865,1,0,0,0,-0.37146011,0.17848535,-0.08753978,0,0,0,0
1,89.47,8947,0.22272615,-1.09814143,0.19606002,2.49277115,-38.26708984,-87.45464325,0,0,0,102.52217102,1.98376441,83.53154755,1,0,0,0,-0.19438906,0.12234542,0.02072932,0,0,0,0
1,89.48,8948,0.35835564,-1.09121728,0.03614699,7.8725605,-25.37772179,-77.0790329,0,0,0,102.59755707,2.79127264,83.45124817,1,0,0,0,-0.31482118,0.11608136,0.18110727,0,0,0,0
1,89.49,8949,0.35635835,-1.13017404,0.08818623,12.24783993,-33.79553986,-69.75968933,0,0,0,102.71018219,3.54598904,83.27410889,1,0,0,0,-0.29935944,0.15613231,0.13085739,0,0,0,0
1,89.5,8950,0.22789715,-1.11092269,0.21231474,-4.78769636,-31.49206924,-62.92683029,0,0,0,102.65079498,4.22908735,83.10485077,1,0,0,0,-0.15844691,0.13772088,0.00687462,0,0,0,0
1,89.51,8951,0.27017471,-1.06043792,0.25771299,-14.28349495,-40.59185028,-55.44575882,0,0,0,102.48596191,4.85852623,82.82837677,1,0,0,0,-0.18959197,0.08748546,-0.04124147,0,0,0,0
1,89.52,8952,0.26266113,-1.06500483,0.26233774,-10.10922527,-43.68840408,-52.22600555,0,0,0,102.3610611,5.4774704,82.50865936,1,0,0,0,-0.17127916,0.09244855,-0.04838818,0,0,0,0
1,89.53,8953,0.16392086,-1.05336118,0.28647181,-14.90063286,-45.12592316,-46.39209366,0,0,0,102.17755127,6.02671385,82.16461182,1,0,0,0,-0.06245091,0.08118331,-0.07536453,0,0,0,0
1,89.54,8954,0.16429819,-1.0385344,0.2624543,-16.33485603,-45.55251312,-42.77474213,0,0,0,101.97496796,6.54030418,81.80652618,1,0,0,0,-0.05365814,0.06658639,-0.05492465,0,0,0,0
1,89.55,8955,0.16718355,-1.00232875,0.20725045,-13.65539646,-44.13139343,-40.11341095,0,0,0,101.79689789,7.02369404,81.45475769,1,0,0,0,-0.04806719,0.03062844,-0.00328115,0,0,0,0
1,89.56,8956,0.11608195,-0.99137491,0.19501245,-3.12041426,-39.97795486,-44.3406868,0,0,0,101.72727966,7.53926945,81.15128326,1,0,0,0,0.01173601,0.02036119,0.00694939,0,0,0,0
1,89.57,8957,0.07703023,-0.97236919,0.20819184,-2.38843894,-30.25544357,-46.22992706,0,0,0,101.68064117,8.04348469,80.94808197,1,0,0,0,0.05971894,0.00232469,-0.00742514,0,0,0,0
1,89.58,8958,0.11269293,-0.95592237,0.21328281,-3.12514639,-23.32484055,-45.8592186,0,0,0,101.62961578,8.53976631,80.81092072,1,0,0,0,0.03259458,-0.01306538,-0.01341195,0,0,0,0
1,89.59,8959,0.10742388,-0.94510233,0.23849699,-7.58383799,-18.06078339,-46.19756317,0,0,0,101.54083252,9.02863598,80.7257843,1,0,0,0,0.0463313,-0.02291597,-0.04026955,0,0,0,0
1,89.6,8960,0.16013288,-0.89556646,0.2110955,-8.39256001,-13.51385784,-46.99151611,0,0,0,101.45056915,9.51606464,80.68651581,1,0,0,0,0.00206,-0.0714338,-0.01463139,0,0,0,0
1,89.61,8961,0.15718044,-0.91048223,0.24877039,-3.24620342,-11.04422283,-47.90035248,0,0,0,101.41588593,10.00747681,80.67302704,1,0,0,0,0.01344163,-0.05531664,-0.05353969,0,0,0,0
1,89.62,8962,0.18668573,-0.91099513,0.24679846,-4.09713078,-6.53804493,-47.87181091,0,0,0,101.40335083,10.49890804,80.69898987,1,0,0,0,-0.00770876,-0.05345771,-0.05239632,0,0,0,0
1,89.63,8963,0.25044775,-0.90749282,0.24367751,0.19128102,-10.52292252,-46.92132187,0,0,0,101.40327454,10.97966003,80.68841553,1,0,0,0,-0.06306936,-0.05540735,-0.04949421,0,0,0,0
1,89.64,8964,0.30619699,-0.9319182,0.21313702,2.339288,-14.12964153,-45.66020203,0,0,0,101.41709137,11.45519161,80.63925171,1,0,0,0,-0.11064281,-0.02939856,-0.01916999,0,0,0,0
1,89.65,8965,0.300367,-0.95275813,0.21586172,9.83015347,-11.48528671,-41.73090744,0,0,0,101.5092926,11.88700676,80.60899353,1,0,0,0,-0.09704988,-0.00678235,-0.02108013,0,0,0,0
1,89.66,8966,0.24710912,-0.96622336,0.20477831,9.61983585,-14.6923933,-42.43111038,0,0,0,101.59281921,12.33214474,80.54865265,1,0,0,0,-0.03639073,0.0085123,-0.00886401,0,0,0,0
1,89.67,8967,0.14658132,-0.92404813,0.24790108,17.18956947,-15.99463844,-43.09908295,0,0,0,101.76522064,12.74692726,80.48468018,1,0,0,0,0.07174464,-0.03158677,-0.05018683,0,0,0,0
1,89.68,8968,0.17939013,-1.02305651,0.30686843,8.75884056,-10.17662811,-43.52227783,0,0,0,101.85030365,13.19378376,80.47401428,1,0,0,0,0.0459452,0.06951368,-0.10693029,0,0,0,0
1,89.69,8969,0.27230489,-0.98672181,0.21981211,4.0994401,-17.84546089,-43.170681,0,0,0,101.87082672,13.65294456,80.38564301,1,0,0,0,-0.03897478,0.03508301,-0.01997217,0,0,0,0
1,89.7,8970,0.13959742,-1.01121283,0.13701719,13.72634315,-10.8540554,-34.08901978,0,0,0,101.99923706,14.00895405,80.34893036,1,0,0,0,0.10010714,0.06143793,0.0641444,0,0,0,0
1,89.71,8971,-0.01877205,-1.00375795,0.15196232,8.54408646,-13.27549744,-40.84381485,0,0,0,102.07345581,14.43610001,80.302948,1,0,0,0,0.26510704,0.05594417,0.05043092,0,0,0,0
1,89.72,8972,0.03293423,-1.06610894,0.09761461,-1.7735467,-19.64464569,-66.02640533,0,0,0,102.0275116,15.07587337,80.25811005,1,0,0,0,0.22305226,0.12077728,0.10439575,0,0,0,0
1,89.73,8973,-0.06316377,-0.93342096,0.14318985,-13.94820786,0.3416287,-64.92429352,0,0,0,101.92633057,15.71030617,80.40143585,1,0,0,0,0.3299064,-0.00939779,0.05663969,0,0,0,0
1,89.74,8974,0.04245639,-1.0956279,0.26611668,-18.86182594,-1.57612932,-80.9859848,0,0,0,101.78121185,16.50606728,80.55870819,1,0,0,0,0.23666979,0.15584677,-0.06892513,0,0,0,0
1,89.75,8975,0.04129468,-1.11660004,0.34919909,-23.38316727,-7.12517834,-86.75328827,0,0,0,101.57958984,17.37007904,80.66930389,1,0,0,0,0.25165281,0.18018919,-0.15607417,0,0,0,0
1,89.76,8976,0.05893639,-1.1081233,0.3690528,-7.46779728,-10.66357136,-89.80717468,0,0,0,101.52897644,18.27131462,80.74837494,1,0,0,0,0.24912134,0.17600095,-0.17871203,0,0,0,0
1,89.77,8977,-0.00525963,-1.17619956,0.3931742,-8.74237347,-19.74058914,-96.84573364,0,0,0,101.4537735,19.22364998,80.75530243,1,0,0,0,0.32861307,0.24886625,-0.20483235,0,0,0,0
1,89.78,8978,0.05648419,-1.27802539,0.32180771,-6.0968852,-28.25003815,-104.90556335,0,0,0,101.36778259,20.30786514,80.68179321,1,0,0,0,0.28392482,0.3563576,-0.13573703,0,0,0,0
1,89.79,8979,-0.02688861,-1.30405867,0.24414779,-15.17652702,-36.35224915,-116.75437927,0,0,0,101.16723633,21.52396011,80.54430389,1,0,0,0,0.38609356,0.38871241,-0.06228117,0,0,0,0
1,89.8,8980,0.03569276,-1.2958585,0.22428738,-3.61550307,-37.29576492,-116.08454132,0,0,0,101.07274628,22.73484993,80.39011383,1,0,0,0,0.34335804,0.38774285,-0.04649151,0,0,0,0
1,89.81,8981,-0.14157258,-1.49667752,0.27132809,-13.72894287,-57.71450424,-138.44290161,0,0,0,100.80364227,24.20375252,80.05941772,1,0,0,0,0.54245579,0.59721255,-0.09755038,0,0,0,0
1,89.82,8982,-0.09033865,-1.45832753,0.25873625,-43.98124695,-54.43175125,-142.60121155,0,0,0,100.23588562,25.68179131,79.76107788,1,0,0,0,0.51517475,0.56810224,-0.09455533,0,0,0,0
1,89.83,8983,-0.23357134,-1.67013717,0.40856618,-46.42412186,-57.13196182,-139.90826416,0,0,0,99.61257172,27.15867233,79.40251923,1,0,0,0,0.68118775,0.78916621,-0.25536957,0,0,0,0
1,89.84,8984,-0.31518388,-1.8144424,0.55990762,-50.68919373,-55.8105278,-153.52482605,0,0,0,98.94450378,28.76376724,79.0592804,1,0,0,0,0.78718698,0.94423288,-0.41891533,0,0,0,0
1,89.85,8985,-0.56522948,-1.84998989,0.57543868,-33.90425491,-50.02072525,-150.44215393,0,0,0,98.45349884,30.32635498,78.75151062,1,0,0,0,1.06134176,0.99155396,-0.44544363,0,0,0,0
1,89.86,8986,-0.72311741,-1.93165791,0.76956779,-1.81168568,-61.34331894,-154.31077576,0,0,0,98.20363617,31.94187927,78.30269623,1,0,0,0,1.2428993,1.08627701,-0.64671308,0,0,0,0
1,89.87,8987,-0.55266136,-1.96437073,0.83942664,5.84512138,-46.34686279,-175.33169556,0,0,0,98.13285828,33.73031998,78.05730438,1,0,0,0,1.09811378,1.13473761,-0.72062624,0,0,0,0
1,89.88,8988,-0.04044943,-1.87589407,0.74179816,14.83359241,-42.8172226,-180.78981018,0,0,0,98.16475677,35.58063126,77.85306549,1,0,0,0,0.61231142,1.06387126,-0.62556231,0,0,0,0
1,89.89,8989,0.57770956,-2.05855894,0.75401044,14.51848698,-58.30047607,-185.76327515,0,0,0,98.0774765,37.50218201,77.46276093,1,0,0,0,0.02074863,1.26554799,-0.64047062,0,0,0,0
1,89.9,8990,0.62946451,-1.89997327,0.78028291,-37.77889633,-54.87854004,-224.43843079,0,0,0,97.50994873,39.80048752,77.15782928,1,0,0,0,-0.00140671,1.12899792,-0.6753782,0,0,0,0
1,89.91,8991,0.00364783,-1.71056378,0.85076219,-53.52742386,-61.08493042,-250.23509216,0,0,0,96.71764374,42.35944366,76.76551819,1,0,0,0,0.65805864,0.9665041,-0.75934786,0,0,0,0
1,89.92,8992,-0.23350914,-1.53507733,0.55752212,-67.85502625,-27.0662384,-215.30783081,0,0,0,96.01911163,44.49276352,76.73508453,1,0,0,0,0.92448694,0.81662011,-0.47842774,0,0,0,0
1,89.93,8993,-0.02008631,-1.46215916,0.71800047,-42.45920563,-70.14607239,-207.27198792,0,0,0,95.08779144,46.62380219,76.02461243,1,0,0,0,0.73756379,0.76877367,-0.65222627,0,0,0,0
1,89.94,8994,-0.31138873,-1.19315386,0.53893185,-12.67976856,-35.83701324,-156.32693481,0,0,0,94.71679688,48.21186447,75.69341278,1,0,0,0,1.0504415,0.52194834,-0.48211795,0,0,0,0
1,89.95,8995,-0.14809571,-0.68246371,0.18061881,-7.99495602,-64.41596985,-119.34301758,0,0,0,94.00562286,49.45095825,74.85614777,1,0,0,0,0.90297484,0.02849936,-0.13114892,0,0,0,0
1,89.96,8996,0.59430063,-0.2633386,0.1968938,-42.06371307,-65.60390472,-63.60771179,0,0,0,92.8557663,50.12552261,73.90166473,1,0,0,0,0.17090978,-0.37937295,-0.16010807,0,0,0,0
1,89.97,8997,0.64505881,-0.3216553,0.03687715,-8.4620285,-65.83572388,-23.87865639,0,0,0,92.00860596,50.36975098,72.90325165,1,0,0,0,0.12410784,-0.31686115,-0.01097014,0,0,0,0
1,89.98,8998,-0.28049898,-0.78713363,0.41651469,-6.3235755,-81.86347961,-38.16311264,0,0,0,90.9628067,50.77326202,71.63087463,1,0,0,0,1.05349076,0.15290886,-0.40140891,0,0,0,0
1,89.99,8999,-0.50858593,-0.49317551,0.31699604,-38.89323807,-78.17437744,-26.95899391,0,0,0,89.61291504,51.04627609,70.39318848,1,0,0,0,1.28529978,-0.13666189,-0.31580019,0,0,0,0
1,90,9000,-0.6347084,-0.38131437,0.30107763,-2.74721646,-67.10260773,21.93674278,0,0,0,88.76213837,50.81714249,69.33368683,1,0,0,0,1.41140068,-0.24847013,-0.31167245,0,0,0,0
1,90.01,9001,-0.55731004,-0.43477321,0.19010921,7.05705881,-40.49384308,75.04787445,0,0,0,88.36495972,50.05666351,68.72773743,1,0,0,0,1.3275063,-0.202793,-0.20714363,0,0,0,0
1,90.02,9002,-0.37091967,-0.35528678,0.06761052,26.55312157,-12.00868702,107.0635376,0,0,0,88.5383606,48.92678452,68.60932159,1,0,0,0,1.13004518,-0.29539102,-0.0853163,0,0,0,0
1,90.03,9003,-0.22776502,-0.39929757,0.08134871,33.65781021,3.57667446,122.15710449,0,0,0,88.94483185,47.70619202,68.70341492,1,0,0,0,0.97295135,-0.26737568,-0.09566928,0,0,0,0
1,90.04,9004,-0.16101569,-0.47091538,0.12908976,31.61423492,28.17262268,136.31393433,0,0,0,89.58145905,46.34662247,69.14202881,1,0,0,0,0.89077091,-0.21271002,-0.13707694,0,0,0,0
1,90.05,9005,-0.11913591,-0.49859363,0.14372598,19.53219795,56.27457047,152.34985352,0,0,0,90.35149384,44.82329178,69.94699097,1,0,0,0,0.83125424,-0.20341983,-0.14301768,0,0,0,0
1,90.06,9006,-0.04025818,-0.42601097,0.1480757,21.50909805,72.50093079,170.57609558,0,0,0,91.24311066,43.10765076,70.92147064,1,0,0,0,0.73193526,-0.29604989,-0.13673609,0,0,0,0
1,90.07,9007,0.03896416,-0.42418835,0.15018281,31.59809685,82.33287048,184.97032166,0,0,0,92.26470184,41.21601486,71.96476746,1,0,0,0,0.62939572,-0.3191849,-0.12589014,0,0,0,0
1,90.08,9008,0.11143721,-0.45243043,0.1211575,39.85356522,85.61934662,198.99484253,0,0,0,93.30461121,39.1868515,72.95800018,1,0,0,0,0.53079498,-0.31301254,-0.08217509,0,0,0,0
1,90.09,9009,0.14959016,-0.51421058,0.1006069,45.6830368,88.37841034,211.5553894,0,0,0,94.34267426,37.01708603,73.89914703,1,0,0,0,0.46386248,-0.27354842,-0.04599737,0,0,0,0
1,90.1,9010,0.12639904,-0.57177687,0.06951945,43.40627289,88.6210556,226.00543213,0,0,0,95.27818298,34.69064713,74.75467682,1,0,0,0,0.45532417,-0.23850493,0.00046087,0,0,0,0
1,90.11,9011,0.14610808,-0.63502032,0.04623488,48.57042694,79.26145172,242.61355591,0,0,0,96.12645721,32.19794083,75.41120911,1,0,0,0,0.40063056,-0.19788016,0.03856707,0,0,0,0
1,90.12,9012,0.14167355,-0.7308796,0.03377473,53.60483932,67.68309021,258.84713745,0,0,0,96.88406372,29.53543091,75.85515594,1,0,0,0,0.36663842,-0.1244496,0.06546669,0,0,0,0
1,90.13,9013,0.07798011,-0.7932387,0.07335881,46.83177185,59.74557114,275.26815796,0,0,0,97.48544312,26.72969055,76.1367569,1,0,0,0,0.38826784,-0.08420266,0.0385036,0,0,0,0
1,90.14,9014,0.12937674,-0.82328737,0.07237953,54.41189194,58.71466446,288.98757935,0,0,0,98.11936188,23.7869606,76.34651184,1,0,0,0,0.29162818,-0.07509267,0.05192485,0,0,0,0
1,90.15,9015,0.17924885,-0.89138484,0.12739559,60.04503632,55.72536087,300.01281738,0,0,0,98.7652359,20.73758507,76.46603394,1,0,0,0,0.19348726,-0.02617243,0.01017151,0,0,0,0
1,90.16,9016,0.1798365,-0.97168499,0.16444786,55.34842682,61.63143158,308.95953369,0,0,0,99.36094666,17.58950043,76.59481812,1,0,0,0,0.14210087,0.03707729,-0.01405499,0,0,0,0
1,90.17,9017,0.2310923,-0.90750194,0.14785448,66.76171875,51.41106033,318.77886963,0,0,0,100.02104187,14.36012936,76.56599426,1,0,0,0,0.03752891,-0.04173031,0.015054,0,0,0,0
1,90.18,9018,0.17437476,-1.17962277,0.29701355,113.12458038,65.37658691,334.87774658,0,0,0,101.15801239,10.94809341,76.59440613,1,0,0,0,0.03733173,0.21951428,-0.115183,0,0,0,0
1,90.19,9019,0.12856437,-1.34760356,0.20451641,61.39212036,85.43427277,344.49697876,0,0,0,101.79706573,7.40220833,76.74912262,1,0,0,0,0.02386867,0.37941885,-0.00687062,0,0,0,0
1,90.2,9020,0.19845815,-1.74787724,0.52667624,13.30444908,93.96530151,347.74099731,0,0,0,101.94712067,3.80549765,76.94657898,1,0,0,0,-0.10887118,0.77384764,-0.31946233,0,0,0,0
1,90.21,9021,0.39752832,-1.70079398,0.41497567,-0.03538447,86.85102844,331.35369873,0,0,0,101.9529953,0.38398767,77.1100235,1,0,0,0,-0.36868012,0.72302949,-0.20793229,0,0,0,0
1,90.22,9022,0.48947468,-1.60720372,0.39008605,-10.58514881,100.87929535,335.32302856,0,0,0,101.840065,-3.09456468,77.40778351,1,0,0,0,-0.52047759,0.62899762,-0.18549597,0,0,0,0
1,90.23,9023,0.71713239,-1.8027283,0.47556916,72.72799683,85.68682098,335.47167969,0,0,0,102.55715942,-6.5544343,77.53617096,1,0,0,0,-0.80883241,0.82994622,-0.26345873,0,0,0,0
1,90.24,9024,0.9051941,-1.93725789,0.45333737,37.78426361,90.51220703,322.37686157,0,0,0,102.9098587,-9.89838314,77.71028137,1,0,0,0,-1.05582106,0.97328699,-0.23468739,0,0,0,0
1,90.25,9025,1.06824458,-1.9889797,0.37499738,58.97628021,75.07509613,300.41152954,0,0,0,103.49150848,-12.99429512,77.75669098,1,0,0,0,-1.27365553,1.03651929,-0.15051182,0,0,0,0
1,90.26,9026,1.14569092,-2.09529495,0.3807435,33.32269287,67.03492737,274.78451538,0,0,0,103.82345581,-15.82277584,77.75908661,1,0,0,0,-1.40102601,1.15608776,-0.15159762,0,0,0,0
1,90.27,9027,1.43867266,-1.99658799,0.30862442,33.25809097,59.43140411,243.77467346,0,0,0,104.15938568,-18.32291031,77.74385071,1,0,0,0,-1.73777008,1.07091331,-0.07728327,0,0,0,0
1,90.28,9028,1.60962021,-1.65394926,0.31182572,26.30033875,52.86759567,201.22447205,0,0,0,104.41704559,-20.40332603,77.76083374,1,0,0,0,-1.94617033,0.74156612,-0.07903147,0,0,0,0
1,90.29,9029,1.53101099,-1.22513807,0.32338709,79.31481934,78.03106689,151.29714966,0,0,0,105.06362152,-22.06588554,78.1590271,1,0,0,0,-1.89695764,0.32546228,-0.08549456,0,0,0,0
1,90.3,9030,1.87940514,-1.19058824,0.07362233,46.76260376,120.4973526,86.9593811,0,0,0,105.13983154,-23.21996307,79.17372131,1,0,0,0,-2.26746416,0.30098477,0.16718552,0,0,0,0
1,90.31,9031,2.03838825,-1.04278398,-0.07098296,23.62500381,111.31968689,18.99267197,0,0,0,104.92971039,-23.69211197,80.2922287,1,0,0,0,-2.43840408,0.15752678,0.30826393,0,0,0,0
1,90.32,9032,2.00360918,-0.98525113,0.06066198,62.34329605,78.85371399,-56.7428627,0,0,0,105.15624237,-23.33390045,81.28012085,1,0,0,0,-2.40267396,0.0997918,0.17746086,0,0,0,0
1,90.33,9033,2.12688231,-1.19414008,0.2197333,27.22992706,79.80725861,-103.1470871,0,0,0,104.98783112,-22.54631805,82.40907288,1,0,0,0,-2.51554251,0.30457044,0.02024901,0,0,0,0
1,90.34,9034,1.30094492,-1.6443392,0.310004,-13.40997314,91.12872314,-133.34968567,0,0,0,104.36058807,-21.48867035,83.72579956,1,0,0,0,-1.67403412,0.74689311,-0.07472585,0,0,0,0
1,90.35,9035,0.75827861,-1.16590106,-0.42309412,-70.05579376,67.21063232,-159.46705627,0,0,0,103.26667786,-20.09998322,84.82913971,1,0,0,0,-1.11096537,0.25640476,0.64300197,0,0,0,0
1,90.36,9036,-2.0909481,-1.54194069,-0.51449144,-5.62772512,60.5536499,-225.78096008,0,0,0,102.82996368,-18.03731728,85.99292755,1,0,0,0,1.76798451,0.61985958,0.72744125,0,0,0,0
1,90.37,9037,-2.49362493,-1.82313216,-0.6709885,25.35076523,34.5067749,-129.46940613,0,0,0,102.87850189,-16.86172867,86.65506744,1,0,0,0,2.19859147,0.89152193,0.88319695,0,0,0,0
1,90.38,9038,0.59758914,-0.87753797,-0.31255895,21.30551529,49.93627167,-72.57571411,0,0,0,102.89778137,-16.26556206,87.33190918,1,0,0,0,-0.88284671,-0.05676772,0.52630854,0,0,0,0
1,90.39,9039,1.40598059,-1.56172609,0.76713228,41.64825821,33.00281906,-153.08297729,0,0,0,103.13179016,-14.85058784,88.02606964,1,0,0,0,-1.66947067,0.62258792,-0.54678798,0,0,0,0
1,90.4,9040,0.40804461,-1.27848029,0.47540471,-11.6297102,98.42218781,-180.83070374,0,0,0,102.67085266,-13.30668068,89.43002319,1,0,0,0,-0.64910948,0.33206141,-0.26067477,0,0,0,0
1,90.41,9041,0.48728454,-1.40074253,0.81621379,0.00365407,31.11985588,-183.90144348,0,0,0,102.51514435,-11.57981777,90.15180969,1,0,0,0,-0.69868511,0.44682178,-0.60343301,0,0,0,0
1,90.42,9042,0.68323964,-1.32606661,0.71472681,-2.93725491,30.36641693,-166.14767456,0,0,0,102.37019348,-9.99103355,90.80649567,1,0,0,0,-0.86738008,0.36613697,-0.5036211,0,0,0,0
1,90.43,9043,0.55712306,-1.14410162,0.14607346,55.97062302,-25.0284481,-212.05711365,0,0,0,102.89357758,-7.86642551,91.02768707,1,0,0,0,-0.70871079,0.17970534,0.0703387,0,0,0,0
1,90.44,9044,0.59743047,-1.33482194,0.11805782,29.5100956,-59.99908829,-221.1750946,0,0,0,103.19844818,-5.5762496,90.94432068,1,0,0,0,-0.70903611,0.36718363,0.10799056,0,0,0,0
1,90.45,9045,0.46133783,-0.96225387,0.38835549,-15.170578,-44.67000961,-156.40057373,0,0,0,103.05305481,-3.95167732,90.86467743,1,0,0,0,-0.53940022,-0.00865641,-0.16211356,0,0,0,0
1,90.46,9046,0.41027889,-0.66276997,0.40027568,-15.29712486,-41.97462845,-92.88034058,0,0,0,102.91194916,-2.95241165,90.66366577,1,0,0,0,-0.46822131,-0.31016126,-0.1766149,0,0,0,0
1,90.47,9047,0.29561245,-0.73725981,0.19435239,19.89982033,-58.2686348,-103.09277344,0,0,0,103.1277771,-1.7855798,90.32112122,1,0,0,0,-0.33498919,-0.23626451,0.0307327,0,0,0,0
1,90.48,9048,0.34408394,-0.99292105,0.34713185,31.27300453,-57.8891983,-106.95481873,0,0,0,103.44714355,-0.61158699,90.00357819,1,0,0,0,-0.36210108,0.02006952,-0.11647717,0,0,0,0
1,90.49,9049,0.34024864,-1.07788098,0.36433831,16.67260742,-51.10739136,-88.61953735,0,0,0,103.61442566,0.36964229,89.71418762,1,0,0,0,-0.3401525,0.10577221,-0.12985712,0,0,0,0
1,90.5,9050,0.4178755,-1.08513069,0.17559426,9.95216942,-57.8453331,-90.71661377,0,0,0,103.70864105,1.38778961,89.3664093,1,0,0,0,-0.40045622,0.11364871,0.06082488,0,0,0,0
1,90.51,9051,0.27693018,-1.11333418,0.18007366,9.50960064,-45.6090889,-93.19180298,0,0,0,103.79663849,2.40140986,89.14488983,1,0,0,0,-0.24152812,0.1426878,0.05776692,0,0,0,0
1,90.52,9052,0.23129044,-1.1424334,0.16753209,2.46934414,-33.72861099,-82.13360596,0,0,0,103.80345917,3.30436826,89.01308441,1,0,0,0,-0.17943878,0.17265907,0.0708593,0,0,0,0
1,90.53,9053,0.26756611,-1.14839327,0.28069922,-8.43891048,-32.64689636,-57.50602341,0,0,0,103.70761108,3.94060516,88.8325119,1,0,0,0,-0.20269859,0.17912143,-0.04343287,0,0,0,0
1,90.54,9054,0.24296436,-1.02726531,0.21301244,-27.96738815,-22.10758781,-46.83574677,0,0,0,103.42017365,4.44772053,88.72716522,1,0,0,0,-0.16861865,0.05768766,0.02019164,0,0,0,0
1,90.55,9055,0.26779133,-1.01312649,0.22031133,-22.36256218,-34.74777985,-39.17874527,0,0,0,103.17616272,4.90889215,88.47828674,1,0,0,0,-0.18517999,0.04313967,0.00836912,0,0,0,0
1,90.56,9056,0.1855856,-1.02964461,0.24895692,-27.74734688,-36.7645874,-36.93172455,0,0,0,102.87398529,5.35158205,88.20227814,1,0,0,0,-0.09517466,0.05923897,-0.02505534,0,0,0,0
1,90.57,9057,0.10084163,-0.99704963,0.26112998,-29.32069969,-39.55144882,-35.14290619,0,0,0,102.55849457,5.7786355,87.89047241,1,0,0,0,-0.0029661,0.02609025,-0.04283748,0,0,0,0
1,90.58,9058,0.09844621,-0.99392873,0.2473534,-25.87803078,-42.69108582,-38.07441711,0,0,0,102.26443481,6.24225855,87.55352783,1,0,0,0,0.00726733,0.02264056,-0.03424153,0,0,0,0
1,90.59,9059,0.11878678,-0.99222851,0.22524844,-26.96404839,-38.09942627,-37.76200867,0,0,0,101.961586,6.69146204,87.25840759,1,0,0,0,-0.00514881,0.0206975,-0.0173852,0,0,0,0
1,90.6,9060,0.09456952,-0.97254568,0.22320145,-31.88279915,-29.64354897,-36.81465149,0,0,0,101.61678314,7.11243582,87.04190063,1,0,0,0,0.02653859,0.00070922,-0.02106379,0,0,0,0
1,90.61,9061,0.0814589,-0.94061345,0.22382674,-34.94634628,-22.13340187,-37.47607803,0,0,0,101.2490387,7.52364969,86.89806366,1,0,0,0,0.04682725,-0.03160073,-0.02803317,0,0,0,0
1,90.62,9062,0.11418848,-0.9036727,0.20938939,-28.64270973,-16.03591347,-35.99391556,0,0,0,100.95923615,7.90694904,86.80715179,1,0,0,0,0.02098422,-0.06877321,-0.01946266,0,0,0,0
1,90.63,9063,0.14777321,-0.90496033,0.21737723,-17.19124413,-14.14007187,-33.22436905,0,0,0,100.77649689,8.25989151,86.73012543,1,0,0,0,-0.00635972,-0.06733429,-0.03125459,0,0,0,0
1,90.64,9064,0.17999053,-0.91011524,0.22047658,-16.95226288,-10.95425797,-34.08219147,0,0,0,100.60041809,8.61512852,86.68521881,1,0,0,0,-0.03256773,-0.06184927,-0.03731595,0,0,0,0
1,90.65,9065,0.22578372,-0.88256299,0.20149103,-14.87658024,-13.48338985,-38.80968857,0,0,0,100.44204712,9.0213089,86.62275696,1,0,0,0,-0.07167384,-0.08894719,-0.02145344,0,0,0,0
1,90.66,9066,0.22922546,-0.87691605,0.1968022,-10.01968193,-18.37291145,-40.76419449,0,0,0,100.3243866,9.45536709,86.51403046,1,0,0,0,-0.0677769,-0.09386742,-0.01929398,0,0,0,0
1,90.67,9067,0.22128014,-0.89552099,0.22020927,-5.70486307,-18.13152885,-42.10909653,0,0,0,100.26541901,9.91701603,86.40340424,1,0,0,0,-0.052137,-0.07423842,-0.04427764,0,0,0,0
1,90.68,9068,0.20792726,-0.90620279,0.23748133,11.327775,-27.11611176,-43.56093597,0,0,0,100.34480286,10.39406013,86.21139526,1,0,0,0,-0.03069178,-0.0621033,-0.06151232,0,0,0,0
1,90.69,9069,0.20609282,-1.01813257,0.28105032,-1.79679346,-36.77147293,-50.95126724,0,0,0,100.27577972,10.96127605,85.93626404,1,0,0,0,-0.01979116,0.05156115,-0.10491675,0,0,0,0
1,90.7,9070,0.20399654,-0.86840886,0.29169241,2.56701279,-47.67288589,-61.33520889,0,0,0,100.22955322,11.64963341,85.56908417,1,0,0,0,-0.00644632,-0.09627351,-0.11747806,0,0,0,0
1,90.71,9071,0.17155005,-0.98488069,0.32750055,4.29421711,-25.19306564,-54.23165512,0,0,0,100.24054718,12.22812462,85.41436768,1,0,0,0,0.036497,0.02238926,-0.15337776,0,0,0,0
1,90.72,9072,0.26157737,-0.98815602,0.23663557,-13.36554813,-24.44595146,-50.68186188,0,0,0,100.07543945,12.7791872,85.25743866,1,0,0,0,-0.04379613,0.02740765,-0.06480297,0,0,0,0
1,90.73,9073,0.13052551,-0.95329529,0.11416609,-6.33657742,-24.97652245,-44.89443207,0,0,0,99.97327423,13.26471901,85.08509827,1,0,0,0,0.09564738,-0.00598621,0.05500488,0,0,0,0
1,90.74,9074,-0.01453477,-1.04659235,0.16487886,-5.34401131,-20.22529221,-55.80503845,0,0,0,99.8951416,13.84932232,84.97929382,1,0,0,0,0.25014907,0.08931424,0.00274015,0,0,0,0
1,90.75,9075,-0.05873945,-0.84322137,0.06550548,-11.48394012,-10.56112194,-68.8453064,0,0,0,99.78395081,14.54574299,84.99298096,1,0,0,0,0.30530584,-0.11177313,0.09935234,0,0,0,0
1,90.76,9076,0.03721515,-1.25133109,0.20474041,-16.52469254,-1.49454284,-75.23890686,0,0,0,99.64865875,15.28975773,85.10968781,1,0,0,0,0.22187284,0.29941264,-0.04130409,0,0,0,0
1,90.77,9077,0.00932818,-1.02798223,0.16594481,-44.37305832,-8.95271301,-82.1606369,0,0,0,99.22328949,16.07491875,85.16475677,1,0,0,0,0.26294056,0.07864143,-0.00908984,0,0,0,0
1,90.78,9078,-0.01615746,-1.06925833,0.21995524,-37.85662842,-2.2996223,-81.9169693,0,0,0,98.87609863,16.887537,85.27527618,1,0,0,0,0.30151132,0.12263426,-0.07009587,0,0,0,0
1,90.79,9079,-0.02351206,-1.15754414,0.21131869,-24.61532593,-1.36538363,-86.88028717,0,0,0,98.6669693,17.74827194,85.39972687,1,0,0,0,0.32286453,0.21447855,-0.06641668,0,0,0,0
1,90.8,9080,-0.01484702,-1.21581507,0.30103919,-20.51991844,-2.05703998,-96.93058777,0,0,0,98.50279236,18.70980453,85.53063965,1,0,0,0,0.32957077,0.27722687,-0.15969434,0,0,0,0
1,90.81,9081,0.01497421,-1.1644485,0.27467692,-16.30117989,2.0540514,-106.78578186,0,0,0,98.40153503,19.76311302,85.71804047,1,0,0,0,0.31645441,0.23115547,-0.1365052,0,0,0,0
1,90.82,9082,0.07613197,-1.38553929,0.27892491,-2.53471804,1.29895139,-114.83779907,0,0,0,98.44554901,20.87843704,85.91447449,1,0,0,0,0.27348256,0.45878536,-0.1415668,0,0,0,0
1,90.83,9083,0.07759717,-1.46920598,0.22893733,-22.25968552,-2.76636744,-122.15143585,0,0,0,98.28220367,22.09092903,86.0763092,1,0,0,0,0.29100743,0.54951227,-0.09381555,0,0,0,0
1,90.84,9084,0.19480766,-1.35497689,0.11886207,-20.48720169,-13.88148689,-130.45877075,0,0,0,98.09690857,23.40189743,86.12850952,1,0,0,0,0.19450027,0.44322777,0.01194929,0,0,0,0
1,90.85,9085,0.02307749,-1.20893717,0.0996304,17.73088646,-23.0291481,-123.82474518,0,0,0,98.25084686,24.66026878,86.07092285,1,0,0,0,0.38649219,0.30591056,0.02981874,0,0,0,0
1,90.86,9086,-0.06412614,-1.66797912,0.39557815,15.26256466,-34.19661713,-141.0753479,0,0,0,98.33998108,26.10569763,85.92285919,1,0,0,0,0.49534327,0.77532059,-0.26457855,0,0,0,0
1,90.87,9087,-0.12832999,-1.85876143,0.42953253,-45.12771988,-36.17700577,-166.27578735,0,0,0,97.82971954,27.78630066,85.78735352,1,0,0,0,0.58455271,0.97770929,-0.30490771,0,0,0,0
1,90.88,9088,-0.26092786,-1.68655849,0.43856457,-24.74197388,-48.18803787,-157.67234802,0,0,0,97.4345932,29.41272354,85.48023987,1,0,0,0,0.74287623,0.81797451,-0.3235569,0,0,0,0
1,90.89,9089,-0.49593815,-2.19761753,0.70699573,-16.21757889,-74.81788635,-159.52555847,0,0,0,96.95628357,31.08925247,84.85269165,1,0,0,0,1.00293589,1.34241068,-0.59973574,0,0,0,0
1,90.9,9090,-0.83610857,-2.07552052,0.69766474,-26.65789223,-67.94045258,-169.55369568,0,0,0,96.39149475,32.85229874,84.28977203,1,0,0,0,1.36885309,1.23492455,-0.6001879,0,0,0,0
1,90.91,9091,-0.69302994,-1.97274983,0.71443993,-16.48864937,-66.16231537,-171.54711914,0,0,0,95.90958405,34.62865448,83.71921539,1,0,0,0,1.25175774,1.14810801,-0.62662888,0,0,0,0
1,90.92,9092,-0.38355747,-2.012321,0.81337202,-1.22518873,-70.91564941,-165.6652832,0,0,0,95.51847076,36.33522034,83.058815,1,0,0,0,0.96709138,1.20422721,-0.7333622,0,0,0,0
1,90.93,9093,0.28876716,-2.02201915,0.78081959,4.64074898,-81.04335022,-168.23634338,0,0,0,95.06973267,38.08526993,82.24065399,1,0,0,0,0.31890953,1.23122144,-0.70807546,0,0,0,0
1,90.94,9094,0.73566562,-1.95528495,0.94168389,-21.75736237,-68.54195404,-171.02070618,0,0,0,94.41578674,39.84679413,81.54564667,1,0,0,0,-0.10384585,1.18281317,-0.87835193,0,0,0,0
1,90.95,9095,0.44749939,-1.51004684,0.72503382,-81.62056732,-43.37675476,-213.56422424,0,0,0,93.35034943,42.00693893,81.16573334,1,0,0,0,0.2105324,0.7588129,-0.67497808,0,0,0,0
1,90.96,9096,0.15141411,-1.3825202,0.75295973,-96.72386169,-39.85001755,-226.25215149,0,0,0,92.1124649,44.28646088,80.76809692,1,0,0,0,0.53627855,0.65732783,-0.72075337,0,0,0,0
1,90.97,9097,-0.01190342,-1.44577312,0.66245103,-76.70843506,-58.88948441,-209.18743896,0,0,0,90.82830048,46.36721039,80.02230835,1,0,0,0,0.72644806,0.74645519,-0.6464687,0,0,0,0
1,90.98,9098,-0.20353937,-1.19245827,0.5113709,-35.4758606,-51.79527664,-183.35975647,0,0,0,89.92419434,48.20384598,79.2746582,1,0,0,0,0.94097733,0.51711434,-0.50868499,0,0,0,0
1,90.99,9099,-0.53647304,-0.89383876,0.42069256,0.80248088,-48.78186035,-140.28286743,0,0,0,89.36219025,49.60354996,78.51883698,1,0,0,0,1.29268456,0.2395647,-0.42568573,0,0,0,0
1,91,9100,-0.00469889,-0.33882678,0.29625952,-15.29289055,-30.66160202,-75.73783875,0,0,0,88.83074951,50.35626984,78.02432251,1,0,0,0,0.77201414,-0.30233952,-0.30717087,0,0,0,0
1,91.01,9101,0.65518326,-0.29449922,0.21933025,-24.27048111,3.08624148,-31.3772068,0,0,0,88.61698151,50.67066956,78.0617981,1,0,0,0,0.11729415,-0.34036988,-0.23409456,0,0,0,0
1,91.02,9102,0.33347097,-0.46626896,0.44736511,-3.52558565,-18.75688553,-35.49346542,0,0,0,88.55728149,50.94278336,77.88124847,1,0,0,0,0.4420191,-0.16488148,-0.46355069,0,0,0,0
1,91.03,9103,-0.37548897,-0.42040613,0.50808793,-54.60468292,-15.96989155,-51.14463043,0,0,0,87.79299927,51.44903564,77.60120392,1,0,0,0,1.15550995,-0.20500059,-0.5286113,0,0,0,0
1,91.04,9104,-0.69478345,-0.40068343,0.45972598,-71.0402298,-0.7999779,-27.54323959,0,0,0,87.05751801,51.7241745,77.56904602,1,0,0,0,1.47911787,-0.21895032,-0.48918357,0,0,0,0
1,91.05,9105,-0.60684663,-0.35904959,0.28942195,-32.41882706,32.67470932,34.6231842,0,0,0,87.16717529,51.39512634,78.12271881,1,0,0,0,1.39019084,-0.26172411,-0.321163,0,0,0,0
1,91.06,9106,-0.4394291,-0.28193671,0.1734971,-5.28012657,59.53383636,85.93268585,0,0,0,87.89441681,50.56244659,79.12671661,1,0,0,0,1.21548152,-0.34815073,-0.20010439,0,0,0,0
1,91.07,9107,-0.22692955,-0.2037809,0.17936008,13.33561611,73.91390991,108.43078613,0,0,0,88.98485565,49.46644211,80.35063171,1,0,0,0,0.99181396,-0.44014645,-0.1956996,0,0,0,0
1,91.08,9108,-0.10998455,-0.26318651,0.21991692,9.49446964,90.06143951,116.6652832,0,0,0,90.12172699,48.30657578,81.73368835,1,0,0,0,0.86181855,-0.39612174,-0.22339,0,0,0,0
1,91.09,9109,-0.01541273,-0.27357951,0.25548396,-0.05470216,104.68583679,127.80405426,0,0,0,91.25319672,47.01590729,83.26501465,1,0,0,0,0.75281227,-0.40176585,-0.24568944,0,0,0,0
1,91.1,9110,0.07333838,-0.31879425,0.33819875,-4.59118223,118.70326233,142.02415466,0,0,0,92.40083313,45.55834961,84.9161911,1,0,0,0,0.64743388,-0.37391925,-0.3143667,0,0,0,0
1,91.11,9111,0.10982348,-0.35205552,0.3863768,-16.37650681,134.16781616,157.59248352,0,0,0,93.48432159,43.91519928,86.68802643,1,0,0,0,0.59160441,-0.35959032,-0.34791079,0,0,0,0
1,91.12,9112,0.1251488,-0.33064657,0.38226193,-21.77108765,141.31324768,170.46463013,0,0,0,94.51013184,42.10466003,88.46911621,1,0,0,0,0.55425447,-0.40116245,-0.32960409,0,0,0,0
1,91.13,9113,0.14246622,-0.39203265,0.39071622,-4.03617048,141.52772522,188.57171631,0,0,0,95.5563736,40.10211182,90.1209259,1,0,0,0,0.51185328,-0.3610377,-0.32260916,0,0,0,0
1,91.14,9114,0.14787626,-0.4621734,0.36661315,3.95313668,140.25350952,210.33287048,0,0,0,96.54586029,37.8625946,91.62996674,1,0,0,0,0.47760227,-0.31344101,-0.2825737,0,0,0,0
1,91.15,9115,0.15630147,-0.52169144,0.35520917,10.1887455,139.0816803,228.16186523,0,0,0,97.46833801,35.42834854,93.00366974,1,0,0,0,0.43646389,-0.277358,-0.25524572,0,0,0,0
1,91.16,9116,0.18461733,-0.58475095,0.34664422,13.08832741,134.09613037,245.93423462,0,0,0,98.27184296,32.80852127,94.20137024,1,0,0,0,0.37171179,-0.2380528,-0.2312513,0,0,0,0
1,91.17,9117,0.21780559,-0.69514203,0.37986583,16.85896301,123.70757294,264.54217529,0,0,0,98.96318817,29.9982872,95.17324829,1,0,0,0,0.29823482,-0.15142669,-0.25015682,0,0,0,0
1,91.18,9118,0.27604967,-0.80043346,0.41033357,13.34241581,110.1084671,285.24884033,0,0,0,99.43991089,27.00638199,95.89046478,1,0,0,0,0.19560355,-0.06968386,-0.26814032,0,0,0,0
1,91.19,9119,0.27030951,-0.8729521,0.44798785,16.71118546,97.17604828,305.84414673,0,0,0,99.82068634,23.82861519,96.38487244,1,0,0,0,0.15259421,-0.02016249,-0.29549631,0,0,0,0
1,91.2,9120,0.29895112,-0.92813897,0.4871197,18.45863724,80.49952698,318.13809204,0,0,0,100.10423279,20.55606079,96.6481781,1,0,0,0,0.07243253,0.01382178,-0.32638553,0,0,0,0
1,91.21,9121,0.32703727,-1.16622853,0.53023726,33.916996,77.33628082,321.81390381,0,0,0,100.5078125,17.25161934,96.84284973,1,0,0,0,-0.01006224,0.23346034,-0.35932833,0,0,0,0
1,91.22,9122,0.31264427,-1.14375556,0.44149706,-20.80143166,52.09374619,334.66293335,0,0,0,100.28423309,13.8673563,96.74594879,1,0,0,0,-0.05173566,0.1942884,-0.26781753,0,0,0,0
1,91.23,9123,0.41523767,-1.26748621,0.48085266,-0.5453797,52.14006424,329.23577881,0,0,0,100.26176453,10.53487206,96.66900635,1,0,0,0,-0.21089877,0.30445188,-0.30608016,0,0,0,0
1,91.24,9124,0.25780234,-1.27982318,0.41261342,0.81060189,55.55489349,336.34658813,0,0,0,100.26197815,7.12628508,96.61743927,1,0,0,0,-0.11166842,0.30643731,-0.23685345,0,0,0,0
1,91.25,9125,0.15839818,-1.37835097,0.43897122,27.82139206,52.01473618,350.53353882,0,0,0,100.52897644,3.58461142,96.49822235,1,0,0,0,-0.07281341,0.39851546,-0.25925916,0,0,0,0
1,91.26,9126,0.36946145,-1.59070075,0.5239597,67.26534271,60.70626068,351.44824219,0,0,0,101.19946289,0.01871985,96.43288422,1,0,0,0,-0.34567395,0.60927939,-0.3344093,0,0,0,0
1,91.27,9127,0.69676471,-1.78787899,0.48714125,74.61564636,49.45486069,348.5307312,0,0,0,101.95392609,-3.48668814,96.21632385,1,0,0,0,-0.73492813,0.80940849,-0.28506157,0,0,0,0
1,91.28,9128,0.8900153,-1.85153353,0.47809821,63.82814407,34.81772232,338.95315552,0,0,0,102.62703705,-6.87251949,95.83296967,1,0,0,0,-0.98781383,0.87961781,-0.26470906,0,0,0,0
1,91.29,9129,0.84013611,-1.86619759,0.35153008,66.16952515,28.26093292,320.80557251,0,0,0,103.35551453,-10.06195927,95.38296509,1,0,0,0,-0.99454248,0.90391135,-0.12811615,0,0,0,0
1,91.3,9130,0.95210391,-2.03517199,0.2671791,75.55538177,38.94944382,295.49545288,0,0,0,104.177742,-13.02459812,95.05095673,1,0,0,0,-1.15877807,1.08543801,-0.03250893,0,0,0,0
1,91.31,9131,0.9976052,-2.37567496,0.21982683,73.41767883,29.58950615,272.41738892,0,0,0,105.01508331,-15.73526192,94.63800812,1,0,0,0,-1.25196195,1.44030929,0.02554295,0,0,0,0
1,91.32,9132,1.40240395,-2.02712512,0.27318019,20.01601028,39.1510582,239.09533691,0,0,0,105.28852081,-18.13479424,94.3759613,1,0,0,0,-1.69931984,1.10589015,-0.02211215,0,0,0,0
1,91.33,9133,1.5712111,-1.40229487,0.17231198,18.98950005,96.86978912,177.78887939,0,0,0,105.3146286,-20.10484886,94.87089539,1,0,0,0,-1.90347767,0.4923723,0.07578307,0,0,0,0
1,91.34,9134,1.75718057,-1.30521297,0.2497929,82.32837677,121.49284363,102.61752319,0,0,0,105.79710388,-21.42077065,95.8276062,1,0,0,0,-2.11470628,0.40608945,0.002615,0,0,0,0
1,91.35,9135,1.87255704,-1.29706717,-0.13370949,49.90787125,150.44340515,54.88299561,0,0,0,105.77371216,-22.35778809,97.22742462,1,0,0,0,-2.24793911,0.40507627,0.38554716,0,0,0,0
1,91.36,9136,1.75974333,-1.16756105,0.05445023,33.3419075,128.17068481,-5.37391615,0,0,0,105.58869934,-22.6537056,98.57888794,1,0,0,0,-2.1437676,0.27878118,0.19573462,0,0,0,0
1,91.37,9137,1.83848298,-1.06065965,-0.20328045,2.19957566,142.38943481,-65.91466522,0,0,0,104.96370697,-22.37607193,100.25421143,1,0,0,0,-2.22189164,0.16936992,0.44533205,0,0,0,0
1,91.38,9138,1.8024174,-1.43596756,-0.39492032,2.13220525,111.85525513,-137.65286255,0,0,0,104.40852356,-21.32762909,101.79567719,1,0,0,0,-2.173733,0.53737998,0.62864602,0,0,0,0
1,91.39,9139,1.1574533,-1.66984189,-0.05861853,9.00123501,83.20360565,-209.75126648,0,0,0,104.00735474,-19.49873352,103.20597839,1,0,0,0,-1.5029341,0.76005721,0.28850213,0,0,0,0
1,91.4,9140,-1.56308913,-2.16454673,0.09188914,-43.21192551,103.83982849,-261.78634644,0,0,0,103.03258514,-17.1998024,104.91906738,1,0,0,0,1.25206637,1.24048901,0.12995389,0,0,0,0
1,91.41,9141,-1.43033516,-1.97171032,-0.13694528,-61.50579071,81.81095123,-185.26333618,0,0,0,102.06742859,-15.56738663,106.17006683,1,0,0,0,1.15393794,1.03291082,0.34236249,0,0,0,0
1,91.42,9142,1.16729736,-1.24107468,-0.17436512,18.98979568,48.33129501,-132.69340515,0,0,0,102.05104065,-14.35279369,106.94694519,1,0,0,0,-1.42406154,0.29582798,0.37570959,0,0,0,0
1,91.43,9143,1.37167013,-1.75915802,0.11573299,25.33065033,-26.47782516,-204.24453735,0,0,0,102.2644577,-12.30042267,107.12215424,1,0,0,0,-1.59890866,0.8072198,0.08936233,0,0,0,0
1,91.44,9144,0.68460071,-1.65169656,0.89710277,23.50709915,40.961586,-257.32452393,0,0,0,102.31684875,-9.87435246,108.08989716,1,0,0,0,-0.87140727,0.6921075,-0.68697399,0,0,0,0
1,91.45,9145,0.22656108,-0.93170875,0.49561656,-26.46893501,77.32106781,-244.17477417,0,0,0,101.85549927,-7.64943266,109.37340546,1,0,0,0,-0.37390018,-0.03551987,-0.28912681,0,0,0,0
1,91.46,9146,0.26220348,-0.22535421,0.16362303,-35.62978363,24.87494659,-195.54333496,0,0,0,101.4241333,-5.78425121,110.01553345,1,0,0,0,-0.37391001,-0.74820501,0.03543042,0,0,0,0
1,91.47,9147,0.94549769,-0.26937094,0.22000253,18.41324997,25.08449936,-125.33078003,0,0,0,101.56584167,-4.51224947,110.50370789,1,0,0,0,-1.03266346,-0.70698893,-0.02230118,0,0,0,0
1,91.48,9148,0.84412563,-1.03158855,0.08058511,42.7518692,-60.1506691,-140.37036133,0,0,0,102.01157379,-3.01459455,110.20204163,1,0,0,0,-0.90744692,0.0549425,0.12456767,0,0,0,0
1,91.49,9149,0.36614704,-1.26394475,0.18780778,-2.66924858,-75.54470825,-136.33859253,0,0,0,102.00345612,-1.52367747,109.74701691,1,0,0,0,-0.40211365,0.28656644,0.02049007,0,0,0,0
1,91.5,9150,0.35689697,-1.08403945,0.24701911,-0.84463578,-49.60813904,-109.42144012,0,0,0,101.99941254,-0.3503193,109.48886871,1,0,0,0,-0.37018451,0.10592599,-0.03944353,0,0,0,0
1,91.51,9151,0.40040684,-1.18002689,0.10316651,15.67765617,-28.9685154,-76.37693787,0,0,0,102.15605164,0.45715299,109.36543274,1,0,0,0,-0.39755461,0.20225602,0.10645496,0,0,0,0
1,91.52,9152,0.2682119,-1.1157068,0.10478391,16.61975861,-48.75776291,-95.39836884,0,0,0,102.31002808,1.51460743,109.09268951,1,0,0,0,-0.2494354,0.13861978,0.10715476,0,0,0,0
1,91.53,9153,0.2847192,-1.1436168,0.1862461,31.08049774,-62.95152664,-120.83647919,0,0,0,102.60749817,2.83038259,108.73871613,1,0,0,0,-0.24394977,0.168185,0.03014891,0,0,0,0
1,91.54,9154,0.2310541,-1.11320078,0.26224273,7.97679996,-46.75499725,-107.50086975,0,0,0,102.67421722,3.98168111,108.51758575,1,0,0,0,-0.16882388,0.13942105,-0.04349536,0,0,0,0
1,91.55,9155,0.13508368,-1.07886267,0.33294243,-1.7926172,-34.07781601,-78.21824646,0,0,0,102.64385986,4.8195591,108.35621643,1,0,0,0,-0.05593258,0.10627128,-0.1143398,0,0,0,0
1,91.56,9156,0.14945769,-1.09255791,0.42655766,-11.9581356,-37.90474701,-64.52459717,0,0,0,102.50337982,5.53184414,108.12583923,1,0,0,0,-0.05773863,0.12061496,-0.2099891,0,0,0,0
1,91.57,9157,0.24474466,-1.06129825,0.35189152,-19.86179733,-48.00215912,-62.30701065,0,0,0,102.27985382,6.26165104,107.78432465,1,0,0,0,-0.14053072,0.0898169,-0.1389371,0,0,0,0
1,91.58,9158,0.26144424,-1.03747547,0.25987241,-19.24592781,-49.99243927,-58.24320602,0,0,0,102.04501343,6.93630457,107.41584778,1,0,0,0,-0.14498024,0.06645799,-0.0511881,0,0,0,0
1,91.59,9159,0.23902975,-1.0353272,0.20736749,-13.74932384,-50.25241089,-54.3062439,0,0,0,101.85923004,7.57162952,107.03357697,1,0,0,0,-0.11137326,0.06491706,-0.00243422,0,0,0,0
1,91.6,9160,0.19948041,-1.06223321,0.23200305,-19.50790215,-48.82491684,-52.41651154,0,0,0,101.61284637,8.18425179,106.65873718,1,0,0,0,-0.06107663,0.09249391,-0.03090745,0,0,0,0
1,91.61,9161,0.15058014,-1.05092835,0.18567596,-26.00886345,-40.90771866,-52.61109161,0,0,0,101.30854797,8.78117943,106.3591156,1,0,0,0,-0.00173956,0.08166686,0.01020144,0,0,0,0
1,91.62,9162,0.13133936,-1.00181627,0.17790443,-32.13954163,-32.45121384,-48.27156067,0,0,0,100.94763184,9.31120491,106.13262177,1,0,0,0,0.02713472,0.03288114,0.01194019,0,0,0,0
1,91.63,9163,0.10109933,-0.95142776,0.19655484,-35.31840515,-19.1334362,-43.92834091,0,0,0,100.57676697,9.7786026,106.02531433,1,0,0,0,0.06587624,-0.01731971,-0.01314463,0,0,0,0
1,91.64,9164,0.09474145,-0.89906031,0.20958805,-38.61099625,1.31959438,-37.87219238,0,0,0,100.20503998,10.14883518,106.10787201,1,0,0,0,0.07921799,-0.06970933,-0.03290333,0,0,0,0
1,91.65,9165,0.11798227,-0.87436205,0.2439445,-23.97359276,11.85969925,-31.74989319,0,0,0,99.9966507,10.44067287,106.28308868,1,0,0,0,0.06142337,-0.09428059,-0.0720662,0,0,0,0
1,91.66,9166,0.17193227,-0.88538641,0.23943105,-12.39819241,16.73621178,-31.72907639,0,0,0,99.91368866,10.72427177,106.50654602,1,0,0,0,0.01229288,-0.08274302,-0.06977121,0,0,0,0
1,91.67,9167,0.20273393,-0.87355548,0.27892637,-6.40028667,17.01728821,-31.69418335,0,0,0,99.94242859,11.01894283,106.7196579,1,0,0,0,-0.01358202,-0.09373625,-0.10991096,0,0,0,0
1,91.68,9168,0.23161748,-0.86458933,0.28991827,-8.82586288,14.24562073,-36.73692322,0,0,0,99.89443207,11.35627174,106.92723846,1,0,0,0,-0.03688949,-0.10161059,-0.12099272,0,0,0,0
1,91.69,9169,0.24178056,-0.8490606,0.29526708,-14.64230061,10.15010738,-42.96121597,0,0,0,99.78343201,11.762187,107.10427094,1,0,0,0,-0.04070076,-0.11611807,-0.12795746,0,0,0,0
1,91.7,9170,0.19836771,-0.79600275,0.31718266,-17.26280975,13.65964508,-46.31760406,0,0,0,99.65604401,12.19569016,107.32182312,1,0,0,0,0.01020604,-0.16802873,-0.15245381,0,0,0,0
1,91.71,9171,0.32709488,-0.8490572,0.22637065,-9.65245914,14.28655624,-44.61844635,0,0,0,99.60680389,12.61166,107.54244232,1,0,0,0,-0.111448,-0.11366698,-0.0631094,0,0,0,0
1,91.72,9172,0.38525665,-0.91228896,0.13747691,14.76845837,-14.29601765,-46.91674042,0,0,0,99.74144745,13.12641907,107.47550964,1,0,0,0,-0.16181603,-0.04861578,0.02601164,0,0,0,0
1,91.73,9173,0.34851223,-1.00143194,0.15182115,24.09639168,-42.22449112,-49.86254883,0,0,0,99.9036026,13.68983841,107.13540649,1,0,0,0,-0.11561444,0.04328275,0.01461298,0,0,0,0
1,91.74,9174,0.30635279,-1.14183652,0.16971889,5.35624409,-42.4824028,-55.58592987,0,0,0,99.87678528,14.31055069,106.80277252,1,0,0,0,-0.06307118,0.18635955,-0.00277946,0,0,0,0
