SensorId; TimeStamp (s); FrameNumber; AccX (g); AccY (g); AccZ (g); GyroX (deg/s); GyroY (deg/s); GyroZ (deg/s); MagX (uT); MagY (uT); MagZ (uT); EulerX (deg); EulerY (deg); EulerZ (deg); QuatW; QuatX; QuatY; QuatZ; LinAccX (g); LinAccY (g); LinAccZ (g)
1.0000;0.0000;0.0000;0.1051;-0.2384;-0.9740;0.3551;-0.5450;0.5055;0.0000;0.0000;0.0000;13.3735;6.4445;-98.0593;1.0000;0.0000;0.0000;0.0000;0.0073;0.0086;0.0073
1.0000;0.0100;1.0000;0.1078;-0.2278;-0.9737;-0.3731;-0.9186;1.0699;0.0000;0.0000;0.0000;13.3707;6.4331;-98.0510;1.0000;0.0000;0.0000;0.0000;0.0043;-0.0020;0.0069
1.0000;0.0200;2.0000;0.1090;-0.2301;-0.9818;-2.0339;0.9077;-0.5681;0.0000;0.0000;0.0000;13.3500;6.4432;-98.0545;1.0000;0.0000;0.0000;0.0000;0.0032;0.0005;0.0150
1.0000;0.0300;3.0000;0.1118;-0.2455;-0.9945;-2.0056;1.4430;-1.2096;0.0000;0.0000;0.0000;13.3290;6.4601;-98.0629;1.0000;0.0000;0.0000;0.0000;0.0006;0.0163;0.0276
1.0000;0.0400;4.0000;0.1071;-0.2456;-0.9944;-0.4891;-0.4329;0.3946;0.0000;0.0000;0.0000;13.3244;6.4550;-98.0601;1.0000;0.0000;0.0000;0.0000;0.0054;0.0166;0.0275
1.0000;0.0500;5.0000;0.1113;-0.2312;-0.9789;0.6418;-1.7692;1.3450;0.0000;0.0000;0.0000;13.3269;6.4357;-98.0496;1.0000;0.0000;0.0000;0.0000;0.0009;0.0021;0.0120
1.0000;0.0600;6.0000;0.1148;-0.2196;-0.9654;0.4163;-0.4525;-0.3867;0.0000;0.0000;0.0000;13.3306;6.4322;-98.0545;1.0000;0.0000;0.0000;0.0000;-0.0028;-0.0095;-0.0015
1.0000;0.0700;7.0000;0.1165;-0.2249;-0.9626;-0.2478;0.7089;-1.4323;0.0000;0.0000;0.0000;13.3267;6.4424;-98.0668;1.0000;0.0000;0.0000;0.0000;-0.0043;-0.0041;-0.0043
1.0000;0.0800;8.0000;0.1175;-0.2240;-0.9597;-0.1491;0.4773;-0.4563;0.0000;0.0000;0.0000;13.3248;6.4481;-98.0702;1.0000;0.0000;0.0000;0.0000;-0.0052;-0.0050;-0.0072
1.0000;0.0900;9.0000;0.1177;-0.2248;-0.9648;0.0302;-0.1545;1.2315;0.0000;0.0000;0.0000;13.3264;6.4438;-98.0585;1.0000;0.0000;0.0000;0.0000;-0.0054;-0.0042;-0.0021
1.0000;0.1000;10.0000;0.1155;-0.2273;-0.9722;0.1454;-0.4893;2.2586;0.0000;0.0000;0.0000;13.3243;6.4349;-98.0358;1.0000;0.0000;0.0000;0.0000;-0.0033;-0.0017;0.0052
1.0000;0.1100;11.0000;0.1152;-0.2311;-0.9838;0.0432;-0.1943;1.8783;0.0000;0.0000;0.0000;13.3267;6.4286;-98.0179;1.0000;0.0000;0.0000;0.0000;-0.0033;0.0020;0.0168
1.0000;0.1200;12.0000;0.1171;-0.2255;-0.9864;0.4452;-0.1407;1.1216;0.0000;0.0000;0.0000;13.3324;6.4247;-98.0072;1.0000;0.0000;0.0000;0.0000;-0.0051;-0.0036;0.0195
1.0000;0.1300;13.0000;0.1145;-0.2237;-0.9869;-0.9317;-0.0483;-0.0679;0.0000;0.0000;0.0000;13.3230;6.4244;-98.0080;1.0000;0.0000;0.0000;0.0000;-0.0026;-0.0053;0.0199
1.0000;0.1400;14.0000;0.1046;-0.2411;-0.9909;-1.2388;0.7515;-1.2447;0.0000;0.0000;0.0000;13.3094;6.4346;-98.0184;1.0000;0.0000;0.0000;0.0000;0.0074;0.0123;0.0239
1.0000;0.1500;15.0000;0.1044;-0.2318;-0.9785;-0.8422;0.7313;-1.3548;0.0000;0.0000;0.0000;13.2981;6.4375;-98.0280;1.0000;0.0000;0.0000;0.0000;0.0077;0.0032;0.0115
1.0000;0.1600;16.0000;0.1122;-0.2385;-0.9846;-1.9544;1.0848;-1.3720;0.0000;0.0000;0.0000;13.2773;6.4512;-98.0389;1.0000;0.0000;0.0000;0.0000;0.0001;0.0102;0.0175
1.0000;0.1700;17.0000;0.1244;-0.2480;-0.9957;-0.9122;0.2741;0.2156;0.0000;0.0000;0.0000;13.2685;6.4533;-98.0361;1.0000;0.0000;0.0000;0.0000;-0.0119;0.0199;0.0286
1.0000;0.1800;18.0000;0.1303;-0.2485;-0.9955;0.2845;-2.0539;3.0784;0.0000;0.0000;0.0000;13.2742;6.4263;-98.0107;1.0000;0.0000;0.0000;0.0000;-0.0182;0.0204;0.0283
1.0000;0.1900;19.0000;0.1308;-0.2437;-0.9917;1.7558;-3.2100;4.5517;0.0000;0.0000;0.0000;13.2959;6.3846;-97.9736;1.0000;0.0000;0.0000;0.0000;-0.0193;0.0153;0.0245
1.0000;0.2000;20.0000;0.1300;-0.2381;-0.9802;1.9527;-3.9944;6.0625;0.0000;0.0000;0.0000;13.3231;6.3385;-97.9255;1.0000;0.0000;0.0000;0.0000;-0.0193;0.0092;0.0130
1.0000;0.2100;21.0000;0.1281;-0.2414;-0.9829;0.1123;-3.9639;6.6803;0.0000;0.0000;0.0000;13.3304;6.2845;-97.8693;1.0000;0.0000;0.0000;0.0000;-0.0183;0.0122;0.0157
1.0000;0.2200;22.0000;0.1211;-0.2445;-0.9889;-1.1921;-2.9602;6.8481;0.0000;0.0000;0.0000;13.3250;6.2399;-97.8091;1.0000;0.0000;0.0000;0.0000;-0.0122;0.0154;0.0216
1.0000;0.2300;23.0000;0.1256;-0.2518;-1.0012;-3.5801;-1.3545;5.8813;0.0000;0.0000;0.0000;13.2951;6.2132;-97.7547;1.0000;0.0000;0.0000;0.0000;-0.0172;0.0230;0.0338
1.0000;0.2400;24.0000;0.1419;-0.2553;-1.0223;-3.5024;-1.6232;7.2246;0.0000;0.0000;0.0000;13.2673;6.1808;-97.6877;1.0000;0.0000;0.0000;0.0000;-0.0340;0.0270;0.0547
1.0000;0.2500;25.0000;0.1500;-0.2583;-1.0318;-1.5939;-4.9518;12.2718;0.0000;0.0000;0.0000;13.2656;6.1109;-97.5811;1.0000;0.0000;0.0000;0.0000;-0.0430;0.0302;0.0640
1.0000;0.2600;26.0000;0.1430;-0.2550;-1.0262;0.2235;-8.2302;17.5656;0.0000;0.0000;0.0000;13.2839;5.9904;-97.4282;1.0000;0.0000;0.0000;0.0000;-0.0378;0.0266;0.0583
1.0000;0.2700;27.0000;0.1272;-0.2533;-1.0164;0.7753;-8.7879;20.1597;0.0000;0.0000;0.0000;13.3099;5.8585;-97.2513;1.0000;0.0000;0.0000;0.0000;-0.0243;0.0245;0.0484
1.0000;0.2800;28.0000;0.1159;-0.2693;-1.0185;0.9446;-8.6842;21.8562;0.0000;0.0000;0.0000;13.3389;5.7237;-97.0576;1.0000;0.0000;0.0000;0.0000;-0.0153;0.0400;0.0504
1.0000;0.2900;29.0000;0.1146;-0.2939;-1.0041;0.9950;-9.3904;26.4146;0.0000;0.0000;0.0000;13.3721;5.5713;-96.8212;1.0000;0.0000;0.0000;0.0000;-0.0165;0.0639;0.0358
1.0000;0.3000;30.0000;0.1520;-0.3343;-1.0534;-0.8787;-7.6901;31.8473;0.0000;0.0000;0.0000;13.3989;5.4259;-96.5307;1.0000;0.0000;0.0000;0.0000;-0.0565;0.1039;0.0850
1.0000;0.3100;31.0000;0.1335;-0.3507;-1.0609;4.0891;-10.4939;37.9131;0.0000;0.0000;0.0000;13.4719;5.2358;-96.1848;1.0000;0.0000;0.0000;0.0000;-0.0409;0.1194;0.0925
1.0000;0.3200;32.0000;0.0889;-0.3269;-1.0085;9.9595;-12.9783;41.5393;0.0000;0.0000;0.0000;13.6050;5.0124;-95.8099;1.0000;0.0000;0.0000;0.0000;-0.0001;0.0935;0.0402
1.0000;0.3300;33.0000;0.0745;-0.3264;-0.9754;13.2901;-14.9955;43.5222;0.0000;0.0000;0.0000;13.7710;4.7637;-95.4211;1.0000;0.0000;0.0000;0.0000;0.0102;0.0903;0.0073
1.0000;0.3400;34.0000;0.0953;-0.3306;-0.9538;14.9283;-19.5584;49.2580;0.0000;0.0000;0.0000;13.9551;4.4558;-94.9883;1.0000;0.0000;0.0000;0.0000;-0.0155;0.0914;-0.0139
1.0000;0.3500;35.0000;0.1193;-0.3130;-0.9585;14.6978;-23.2544;55.8145;0.0000;0.0000;0.0000;14.1414;4.0974;-94.5035;1.0000;0.0000;0.0000;0.0000;-0.0455;0.0706;-0.0088
1.0000;0.3600;36.0000;0.1131;-0.2989;-0.9718;15.7603;-26.8322;63.0389;0.0000;0.0000;0.0000;14.3361;3.6823;-93.9572;1.0000;0.0000;0.0000;0.0000;-0.0461;0.0531;0.0048
1.0000;0.3700;37.0000;0.0818;-0.2931;-0.9524;15.7122;-28.6998;69.5622;0.0000;0.0000;0.0000;14.5296;3.2310;-93.3540;1.0000;0.0000;0.0000;0.0000;-0.0225;0.0438;-0.0142
1.0000;0.3800;38.0000;0.0757;-0.2776;-0.9360;14.6124;-25.9857;71.4801;0.0000;0.0000;0.0000;14.7086;2.7991;-92.7271;1.0000;0.0000;0.0000;0.0000;-0.0240;0.0251;-0.0302
1.0000;0.3900;39.0000;0.0703;-0.2771;-0.9378;10.5400;-23.1094;73.9437;0.0000;0.0000;0.0000;14.8437;2.3870;-92.0704;1.0000;0.0000;0.0000;0.0000;-0.0260;0.0220;-0.0281
1.0000;0.4000;40.0000;0.0330;-0.2942;-0.9645;-1.1263;-16.4767;74.0772;0.0000;0.0000;0.0000;14.8607;2.0370;-91.3968;1.0000;0.0000;0.0000;0.0000;0.0048;0.0379;-0.0014
1.0000;0.4100;41.0000;0.0161;-0.3240;-1.0036;-4.6588;-9.6165;69.9490;0.0000;0.0000;0.0000;14.8357;1.7648;-90.7450;1.0000;0.0000;0.0000;0.0000;0.0164;0.0679;0.0374
1.0000;0.4200;42.0000;0.0240;-0.3480;-1.0437;-4.2009;-8.0205;68.7548;0.0000;0.0000;0.0000;14.8121;1.5113;-90.1006;1.0000;0.0000;0.0000;0.0000;0.0041;0.0924;0.0774
1.0000;0.4300;43.0000;0.0300;-0.3503;-1.0915;1.6539;-12.9293;75.9574;0.0000;0.0000;0.0000;14.8453;1.1920;-89.3991;1.0000;0.0000;0.0000;0.0000;-0.0069;0.0945;0.1250
1.0000;0.4400;44.0000;0.0156;-0.3404;-1.0949;12.9849;-22.8911;87.6532;0.0000;0.0000;0.0000;14.9885;0.7453;-88.6109;1.0000;0.0000;0.0000;0.0000;0.0005;0.0829;0.1288
1.0000;0.4500;45.0000;-0.0062;-0.3209;-1.0531;22.3754;-31.2164;96.2247;0.0000;0.0000;0.0000;15.2202;0.1930;-87.7635;1.0000;0.0000;0.0000;0.0000;0.0133;0.0599;0.0878
1.0000;0.4600;46.0000;0.0012;-0.3016;-1.0231;24.4558;-36.2995;102.2640;0.0000;0.0000;0.0000;15.4630;-0.4276;-86.8734;1.0000;0.0000;0.0000;0.0000;-0.0045;0.0365;0.0589
1.0000;0.4700;47.0000;-0.0157;-0.2684;-0.9390;24.1300;-37.9493;107.6383;0.0000;0.0000;0.0000;15.6919;-1.0823;-85.9384;1.0000;0.0000;0.0000;0.0000;0.0010;-0.0006;-0.0240
1.0000;0.4800;48.0000;-0.0226;-0.2535;-0.8611;14.5540;-30.2795;103.9786;0.0000;0.0000;0.0000;15.8153;-1.6563;-85.0198;1.0000;0.0000;0.0000;0.0000;-0.0028;-0.0185;-0.1009
1.0000;0.4900;49.0000;-0.0102;-0.2354;-0.8695;-1.9010;-17.7482;97.9055;0.0000;0.0000;0.0000;15.7670;-2.0936;-84.1255;1.0000;0.0000;0.0000;0.0000;-0.0236;-0.0366;-0.0922
1.0000;0.5000;50.0000;-0.0159;-0.2393;-0.8900;-9.9049;-11.6998;96.0274;0.0000;0.0000;0.0000;15.6319;-2.4654;-83.2320;1.0000;0.0000;0.0000;0.0000;-0.0247;-0.0309;-0.0719
1.0000;0.5100;51.0000;-0.0323;-0.2297;-0.9043;-13.9867;-10.4548;97.2645;0.0000;0.0000;0.0000;15.4500;-2.8267;-82.3220;1.0000;0.0000;0.0000;0.0000;-0.0147;-0.0376;-0.0582
1.0000;0.5200;52.0000;-0.0713;-0.2105;-0.8974;-18.6259;-8.9456;96.2541;0.0000;0.0000;0.0000;15.2163;-3.1676;-81.4161;1.0000;0.0000;0.0000;0.0000;0.0182;-0.0531;-0.0658
1.0000;0.5300;53.0000;-0.1049;-0.2113;-0.8943;-24.4809;-2.8265;93.5455;0.0000;0.0000;0.0000;14.9197;-3.4382;-80.5188;1.0000;0.0000;0.0000;0.0000;0.0466;-0.0477;-0.0698
1.0000;0.5400;54.0000;-0.1244;-0.2205;-0.9164;-34.7679;3.5233;89.0916;0.0000;0.0000;0.0000;14.5182;-3.6306;-79.6466;1.0000;0.0000;0.0000;0.0000;0.0622;-0.0324;-0.0491
1.0000;0.5500;55.0000;-0.1426;-0.2467;-0.9709;-44.4447;10.4863;78.1451;0.0000;0.0000;0.0000;14.0235;-3.7247;-78.8616;1.0000;0.0000;0.0000;0.0000;0.0781;0.0017;0.0036
1.0000;0.5600;56.0000;-0.1458;-0.2743;-1.0518;-45.7269;17.3379;66.2897;0.0000;0.0000;0.0000;13.5217;-3.7142;-78.1751;1.0000;0.0000;0.0000;0.0000;0.0809;0.0379;0.0824
1.0000;0.5700;57.0000;-0.1157;-0.2894;-1.0875;-38.8318;17.9534;62.1177;0.0000;0.0000;0.0000;13.0917;-3.6824;-77.5279;1.0000;0.0000;0.0000;0.0000;0.0513;0.0607;0.1161
1.0000;0.5800;58.0000;-0.1198;-0.2728;-1.0890;-34.0076;7.8588;66.9794;0.0000;0.0000;0.0000;12.7081;-3.7553;-76.8560;1.0000;0.0000;0.0000;0.0000;0.0550;0.0509;0.1161
1.0000;0.5900;59.0000;-0.1320;-0.2325;-1.0588;-28.2348;-2.3102;67.3664;0.0000;0.0000;0.0000;12.3821;-3.9241;-76.2020;1.0000;0.0000;0.0000;0.0000;0.0647;0.0166;0.0847
1.0000;0.6000;60.0000;-0.1261;-0.1807;-1.0038;-24.4424;-6.4276;64.3665;0.0000;0.0000;0.0000;12.0919;-4.1259;-75.5836;1.0000;0.0000;0.0000;0.0000;0.0555;-0.0301;0.0289
1.0000;0.6100;61.0000;-0.1005;-0.1584;-0.9577;-24.5788;-2.1913;57.0510;0.0000;0.0000;0.0000;11.8055;-4.2655;-75.0286;1.0000;0.0000;0.0000;0.0000;0.0269;-0.0475;-0.0181
1.0000;0.6200;62.0000;-0.0724;-0.1459;-0.9479;-26.9419;1.8836;51.2483;0.0000;0.0000;0.0000;11.4979;-4.3506;-74.5214;1.0000;0.0000;0.0000;0.0000;-0.0029;-0.0549;-0.0288
1.0000;0.6300;63.0000;-0.0550;-0.1380;-0.9322;-28.2184;2.2360;51.5480;0.0000;0.0000;0.0000;11.1766;-4.4300;-74.0101;1.0000;0.0000;0.0000;0.0000;-0.0217;-0.0573;-0.0455
1.0000;0.6400;64.0000;-0.0201;-0.1297;-0.9349;-28.1415;-1.2881;55.6178;0.0000;0.0000;0.0000;10.8526;-4.5489;-73.4649;1.0000;0.0000;0.0000;0.0000;-0.0584;-0.0601;-0.0438
1.0000;0.6500;65.0000;-0.0026;-0.1222;-0.9253;-27.3160;-7.0780;59.7918;0.0000;0.0000;0.0000;10.5301;-4.7250;-72.8874;1.0000;0.0000;0.0000;0.0000;-0.0786;-0.0620;-0.0542
1.0000;0.6600;66.0000;-0.0053;-0.1137;-0.9222;-24.0050;-9.0585;59.4829;0.0000;0.0000;0.0000;10.2421;-4.9213;-72.3167;1.0000;0.0000;0.0000;0.0000;-0.0792;-0.0653;-0.0580
1.0000;0.6700;67.0000;-0.0265;-0.1049;-0.9043;-18.9952;-8.6854;61.9459;0.0000;0.0000;0.0000;9.9999;-5.1156;-71.7198;1.0000;0.0000;0.0000;0.0000;-0.0614;-0.0695;-0.0765
1.0000;0.6800;68.0000;-0.0686;-0.1059;-0.8703;-15.9833;-6.2356;59.8730;0.0000;0.0000;0.0000;9.7873;-5.2799;-71.1383;1.0000;0.0000;0.0000;0.0000;-0.0225;-0.0648;-0.1108
1.0000;0.6900;69.0000;-0.0977;-0.1067;-0.8508;-16.1630;4.0456;47.6245;0.0000;0.0000;0.0000;9.5814;-5.3202;-70.6601;1.0000;0.0000;0.0000;0.0000;0.0050;-0.0604;-0.1308
1.0000;0.7000;70.0000;-0.0826;-0.1054;-0.8793;-18.4192;19.2916;31.1901;0.0000;0.0000;0.0000;9.3623;-5.1801;-70.3175;1.0000;0.0000;0.0000;0.0000;-0.0089;-0.0580;-0.1030
1.0000;0.7100;71.0000;-0.0468;-0.1021;-0.9234;-13.7121;26.4094;23.1493;0.0000;0.0000;0.0000;9.2012;-4.9567;-70.0454;1.0000;0.0000;0.0000;0.0000;-0.0411;-0.0581;-0.0597
1.0000;0.7200;72.0000;-0.0336;-0.1128;-0.9199;-4.2448;21.3989;25.9317;0.0000;0.0000;0.0000;9.1341;-4.7868;-69.7543;1.0000;0.0000;0.0000;0.0000;-0.0508;-0.0457;-0.0638
1.0000;0.7300;73.0000;-0.0185;-0.1028;-0.9080;0.7874;12.2885;33.4799;0.0000;0.0000;0.0000;9.1129;-4.7185;-69.4030;1.0000;0.0000;0.0000;0.0000;-0.0641;-0.0551;-0.0760
1.0000;0.7400;74.0000;-0.0371;-0.0783;-0.8906;5.1165;4.9485;38.7826;0.0000;0.0000;0.0000;9.1317;-4.7311;-69.0109;1.0000;0.0000;0.0000;0.0000;-0.0452;-0.0797;-0.0934
1.0000;0.7500;75.0000;-0.0601;-0.0625;-0.8603;7.6712;6.7361;36.6900;0.0000;0.0000;0.0000;9.1699;-4.7222;-68.6330;1.0000;0.0000;0.0000;0.0000;-0.0224;-0.0961;-0.1236
1.0000;0.7600;76.0000;-0.0731;-0.0741;-0.8862;3.8889;9.9204;36.7738;0.0000;0.0000;0.0000;9.1776;-4.6829;-68.2529;1.0000;0.0000;0.0000;0.0000;-0.0088;-0.0849;-0.0977
1.0000;0.7700;77.0000;-0.1043;-0.0981;-0.9509;1.5548;7.1357;39.2194;0.0000;0.0000;0.0000;9.1606;-4.6749;-67.8530;1.0000;0.0000;0.0000;0.0000;0.0228;-0.0607;-0.0331
1.0000;0.7800;78.0000;-0.1420;-0.1071;-0.9914;4.9366;3.2412;38.6597;0.0000;0.0000;0.0000;9.1782;-4.7045;-67.4649;1.0000;0.0000;0.0000;0.0000;0.0602;-0.0517;0.0074
1.0000;0.7900;79.0000;-0.1323;-0.1047;-1.0099;9.8931;2.4820;31.5204;0.0000;0.0000;0.0000;9.2512;-4.7305;-67.1487;1.0000;0.0000;0.0000;0.0000;0.0500;-0.0550;0.0262
1.0000;0.8000;80.0000;-0.0903;-0.0978;-1.0220;13.9579;0.0447;25.6847;0.0000;0.0000;0.0000;9.3597;-4.7706;-66.8895;1.0000;0.0000;0.0000;0.0000;0.0074;-0.0636;0.0386
1.0000;0.8100;81.0000;-0.0599;-0.0923;-1.0168;16.3644;-2.8725;21.9635;0.0000;0.0000;0.0000;9.5056;-4.8349;-66.6768;1.0000;0.0000;0.0000;0.0000;-0.0240;-0.0713;0.0338
1.0000;0.8200;82.0000;-0.0356;-0.0782;-0.9910;15.8251;-0.4555;17.9038;0.0000;0.0000;0.0000;9.6489;-4.8692;-66.5004;1.0000;0.0000;0.0000;0.0000;-0.0492;-0.0879;0.0086
1.0000;0.8300;83.0000;0.0146;-0.0856;-0.9893;12.4437;14.0804;11.9394;0.0000;0.0000;0.0000;9.7614;-4.7505;-66.3584;1.0000;0.0000;0.0000;0.0000;-0.0984;-0.0827;0.0071
1.0000;0.8400;84.0000;0.0368;-0.1022;-1.0206;9.9502;20.2058;12.5496;0.0000;0.0000;0.0000;9.8480;-4.5728;-66.1998;1.0000;0.0000;0.0000;0.0000;-0.1177;-0.0677;0.0384
1.0000;0.8500;85.0000;0.0144;-0.1147;-1.0270;9.3286;16.5750;15.9267;0.0000;0.0000;0.0000;9.9190;-4.4262;-66.0097;1.0000;0.0000;0.0000;0.0000;-0.0925;-0.0566;0.0449
1.0000;0.8600;86.0000;-0.0334;-0.1337;-1.0354;5.9430;12.5889;20.1210;0.0000;0.0000;0.0000;9.9616;-4.3370;-65.7891;1.0000;0.0000;0.0000;0.0000;-0.0428;-0.0385;0.0533
1.0000;0.8700;87.0000;-0.0583;-0.1581;-1.0687;4.3260;10.8951;22.1332;0.0000;0.0000;0.0000;9.9871;-4.2680;-65.5516;1.0000;0.0000;0.0000;0.0000;-0.0165;-0.0147;0.0866
1.0000;0.8800;88.0000;-0.0410;-0.1767;-1.1019;4.6118;4.3469;27.6347;0.0000;0.0000;0.0000;10.0123;-4.2732;-65.2711;1.0000;0.0000;0.0000;0.0000;-0.0333;0.0035;0.1198
1.0000;0.8900;89.0000;-0.0741;-0.2028;-1.1212;3.5828;-6.1568;37.3055;0.0000;0.0000;0.0000;10.0212;-4.3987;-64.9134;1.0000;0.0000;0.0000;0.0000;-0.0017;0.0293;0.1392
1.0000;0.9000;90.0000;-0.1235;-0.2134;-1.1167;4.0367;-12.6610;39.4282;0.0000;0.0000;0.0000;10.0338;-4.5949;-64.5468;1.0000;0.0000;0.0000;0.0000;0.0447;0.0399;0.1351
1.0000;0.9100;91.0000;-0.1361;-0.2103;-1.0883;7.1399;-11.5178;29.9716;0.0000;0.0000;0.0000;10.0827;-4.7606;-64.2709;1.0000;0.0000;0.0000;0.0000;0.0541;0.0362;0.1070
1.0000;0.9200;92.0000;-0.1195;-0.1947;-1.0638;7.6524;-10.0474;23.3505;0.0000;0.0000;0.0000;10.1413;-4.9005;-64.0579;1.0000;0.0000;0.0000;0.0000;0.0350;0.0196;0.0829
1.0000;0.9300;93.0000;-0.1064;-0.1895;-1.0567;4.5819;-15.0262;27.2667;0.0000;0.0000;0.0000;10.1660;-5.0965;-63.8150;1.0000;0.0000;0.0000;0.0000;0.0190;0.0137;0.0762
1.0000;0.9400;94.0000;-0.1304;-0.1717;-1.0288;0.6428;-19.9341;31.9293;0.0000;0.0000;0.0000;10.1469;-5.3491;-63.5348;1.0000;0.0000;0.0000;0.0000;0.0388;-0.0039;0.0486
1.0000;0.9500;95.0000;-0.1309;-0.1590;-1.0022;-4.1872;-15.0923;27.3732;0.0000;0.0000;0.0000;10.0795;-5.5490;-63.2899;1.0000;0.0000;0.0000;0.0000;0.0354;-0.0157;0.0222
1.0000;0.9600;96.0000;-0.1128;-0.1728;-1.0173;-11.4331;-5.9759;19.7473;0.0000;0.0000;0.0000;9.9471;-5.6422;-63.1050;1.0000;0.0000;0.0000;0.0000;0.0150;0.0000;0.0372
1.0000;0.9700;97.0000;-0.0883;-0.1866;-1.0472;-14.5107;-0.7393;14.9469;0.0000;0.0000;0.0000;9.7875;-5.6751;-62.9583;1.0000;0.0000;0.0000;0.0000;-0.0104;0.0164;0.0667
1.0000;0.9800;98.0000;-0.0545;-0.1887;-1.0409;-14.0668;-2.4942;15.6558;0.0000;0.0000;0.0000;9.6319;-5.7261;-62.8074;1.0000;0.0000;0.0000;0.0000;-0.0449;0.0212;0.0601
1.0000;0.9900;99.0000;-0.0641;-0.1887;-1.0206;-14.3774;-7.5999;21.1641;0.0000;0.0000;0.0000;9.4683;-5.8362;-62.6103;1.0000;0.0000;0.0000;0.0000;-0.0368;0.0240;0.0394
1.0000;1.0000;100.0000;-0.0939;-0.1842;-0.9836;-14.7408;-10.9223;24.1567;0.0000;0.0000;0.0000;9.3009;-5.9829;-62.3899;1.0000;0.0000;0.0000;0.0000;-0.0094;0.0224;0.0022
1.0000;1.0100;101.0000;-0.0949;-0.1800;-0.9641;-14.6585;-9.5221;22.2998;0.0000;0.0000;0.0000;9.1326;-6.1127;-62.1839;1.0000;0.0000;0.0000;0.0000;-0.0107;0.0211;-0.0176
1.0000;1.0200;102.0000;-0.0968;-0.1760;-0.9510;-16.0140;-12.2416;23.9468;0.0000;0.0000;0.0000;8.9489;-6.2712;-61.9653;1.0000;0.0000;0.0000;0.0000;-0.0113;0.0201;-0.0309
1.0000;1.0300;103.0000;-0.1255;-0.1747;-0.9550;-20.2700;-16.3061;26.3308;0.0000;0.0000;0.0000;8.7200;-6.4728;-61.7288;1.0000;0.0000;0.0000;0.0000;0.0141;0.0225;-0.0270
1.0000;1.0400;104.0000;-0.1586;-0.1579;-0.9412;-22.8066;-13.3110;23.0374;0.0000;0.0000;0.0000;8.4680;-6.6388;-61.5195;1.0000;0.0000;0.0000;0.0000;0.0440;0.0100;-0.0411
1.0000;1.0500;105.0000;-0.1571;-0.1380;-0.9138;-22.7958;-1.2133;12.1554;0.0000;0.0000;0.0000;8.2269;-6.6746;-61.4012;1.0000;0.0000;0.0000;0.0000;0.0409;-0.0056;-0.0689
1.0000;1.0600;106.0000;-0.1416;-0.1398;-0.9279;-26.0158;7.5512;4.9310;0.0000;0.0000;0.0000;7.9598;-6.6068;-61.3413;1.0000;0.0000;0.0000;0.0000;0.0261;0.0005;-0.0556
1.0000;1.0700;107.0000;-0.1778;-0.1418;-0.9458;-28.2148;6.4514;6.1524;0.0000;0.0000;0.0000;7.6696;-6.5512;-61.2711;1.0000;0.0000;0.0000;0.0000;0.0634;0.0074;-0.0385
1.0000;1.0800;108.0000;-0.1818;-0.1396;-0.9563;-28.9186;-2.3525;10.6070;0.0000;0.0000;0.0000;7.3687;-6.5884;-61.1683;1.0000;0.0000;0.0000;0.0000;0.0675;0.0103;-0.0287
1.0000;1.0900;109.0000;-0.1690;-0.1234;-0.9531;-27.4982;-9.6036;14.9489;0.0000;0.0000;0.0000;7.0778;-6.7025;-61.0312;1.0000;0.0000;0.0000;0.0000;0.0531;-0.0008;-0.0324
1.0000;1.1000;110.0000;-0.1563;-0.1093;-0.9302;-26.9285;-13.4114;17.6094;0.0000;0.0000;0.0000;6.7891;-6.8614;-60.8716;1.0000;0.0000;0.0000;0.0000;0.0379;-0.0100;-0.0556
1.0000;1.1100;111.0000;-0.1595;-0.1035;-0.9197;-30.2332;-8.9838;15.7071;0.0000;0.0000;0.0000;6.4691;-6.9688;-60.7249;1.0000;0.0000;0.0000;0.0000;0.0387;-0.0104;-0.0664
1.0000;1.1200;112.0000;-0.1722;-0.1319;-0.9861;-34.4406;2.8748;7.7963;0.0000;0.0000;0.0000;6.1148;-6.9488;-60.6437;1.0000;0.0000;0.0000;0.0000;0.0510;0.0239;-0.0006
1.0000;1.1300;113.0000;-0.1883;-0.1516;-1.0626;-31.6846;11.3805;-2.2516;0.0000;0.0000;0.0000;5.7992;-6.8333;-60.6544;1.0000;0.0000;0.0000;0.0000;0.0686;0.0494;0.0750
1.0000;1.1400;114.0000;-0.1970;-0.1344;-1.0574;-25.3620;11.2587;-5.5153;0.0000;0.0000;0.0000;5.5508;-6.7158;-60.6985;1.0000;0.0000;0.0000;0.0000;0.0793;0.0369;0.0691
1.0000;1.1500;115.0000;-0.1829;-0.0450;-0.9616;-23.5939;9.8784;-8.2131;0.0000;0.0000;0.0000;5.3225;-6.6127;-60.7713;1.0000;0.0000;0.0000;0.0000;0.0671;-0.0487;-0.0273
1.0000;1.1600;116.0000;-0.1421;-0.0642;-0.9464;-31.6125;17.0542;-13.9626;0.0000;0.0000;0.0000;5.0206;-6.4302;-60.8958;1.0000;0.0000;0.0000;0.0000;0.0288;-0.0248;-0.0431
1.0000;1.1700;117.0000;-0.0813;-0.0253;-0.9419;-34.0263;22.4407;-13.0296;0.0000;0.0000;0.0000;4.6926;-6.1956;-61.0073;1.0000;0.0000;0.0000;0.0000;-0.0282;-0.0581;-0.0485
1.0000;1.1800;118.0000;-0.0536;-0.0243;-0.9627;-37.0567;26.6636;-13.2927;0.0000;0.0000;0.0000;4.3339;-5.9193;-61.1195;1.0000;0.0000;0.0000;0.0000;-0.0514;-0.0532;-0.0288
1.0000;1.1900;119.0000;0.0189;-0.0173;-1.0160;-39.5314;29.3083;-15.6811;0.0000;0.0000;0.0000;3.9522;-5.6157;-61.2554;1.0000;0.0000;0.0000;0.0000;-0.1187;-0.0537;0.0235
1.0000;1.2000;120.0000;0.0186;-0.0200;-1.0282;-36.3046;25.8825;-8.7963;0.0000;0.0000;0.0000;3.5954;-5.3440;-61.3255;1.0000;0.0000;0.0000;0.0000;-0.1135;-0.0447;0.0348
1.0000;1.2100;121.0000;-0.0378;-0.0574;-1.0344;-38.2940;30.2185;-13.5681;0.0000;0.0000;0.0000;3.2231;-5.0343;-61.4435;1.0000;0.0000;0.0000;0.0000;-0.0522;-0.0010;0.0402
1.0000;1.2200;122.0000;0.0255;-0.1008;-1.1595;-45.2538;38.2666;-22.6101;0.0000;0.0000;0.0000;2.7880;-4.6403;-61.6498;1.0000;0.0000;0.0000;0.0000;-0.1088;0.0493;0.1643
1.0000;1.2300;123.0000;0.0021;-0.1029;-1.0910;-70.2296;11.5980;-12.1893;0.0000;0.0000;0.0000;2.0950;-4.5190;-61.7668;1.0000;0.0000;0.0000;0.0000;-0.0814;0.0615;0.0950
1.0000;1.2400;124.0000;-0.0744;-0.0380;-0.9541;-97.5703;7.2503;0.7110;0.0000;0.0000;0.0000;1.1186;-4.4467;-61.7576;1.0000;0.0000;0.0000;0.0000;-0.0036;0.0117;-0.0425
1.0000;1.2500;125.0000;-0.0962;0.0432;-0.8967;-172.5299;2.0948;12.3997;0.0000;0.0000;0.0000;-0.6182;-4.4276;-61.6326;1.0000;0.0000;0.0000;0.0000;0.0188;-0.0446;-0.1003
1.0000;1.2600;126.0000;-0.1736;0.1004;-0.9447;-222.2330;10.6018;12.3383;0.0000;0.0000;0.0000;-2.8497;-4.3182;-61.5124;1.0000;0.0000;0.0000;0.0000;0.0974;-0.0659;-0.0517
1.0000;1.2700;127.0000;-0.2377;0.1369;-0.9800;-251.4821;22.9999;-5.1291;0.0000;0.0000;0.0000;-5.3595;-4.0934;-61.5806;1.0000;0.0000;0.0000;0.0000;0.1647;-0.0602;-0.0143
1.0000;1.2800;128.0000;-0.1460;0.2025;-0.9530;-257.2233;39.2472;-18.5167;0.0000;0.0000;0.0000;-7.9160;-3.7250;-61.8108;1.0000;0.0000;0.0000;0.0000;0.0785;-0.0817;-0.0373
1.0000;1.2900;129.0000;-0.1422;0.2479;-0.9519;-250.7993;44.2904;-17.8884;0.0000;0.0000;0.0000;-10.4088;-3.3166;-62.0585;1.0000;0.0000;0.0000;0.0000;0.0816;-0.0834;-0.0326
1.0000;1.3000;130.0000;-0.1428;0.2536;-0.9945;-221.9108;54.2347;-27.0843;0.0000;0.0000;0.0000;-12.6082;-2.8413;-62.4333;1.0000;0.0000;0.0000;0.0000;0.0899;-0.0492;0.0171
1.0000;1.3100;131.0000;-0.0754;0.2403;-1.0792;-173.4455;69.0695;-37.3721;0.0000;0.0000;0.0000;-14.3194;-2.2573;-62.9586;1.0000;0.0000;0.0000;0.0000;0.0321;-0.0034;0.1087
1.0000;1.3200;132.0000;0.0223;0.2484;-1.1234;-116.5174;68.1829;-39.0418;0.0000;0.0000;0.0000;-15.4655;-1.6990;-63.5118;1.0000;0.0000;0.0000;0.0000;-0.0555;0.0116;0.1584
1.0000;1.3300;133.0000;0.0917;0.2418;-1.1895;-54.0217;48.5727;-29.5559;0.0000;0.0000;0.0000;-15.9947;-1.3118;-63.9283;1.0000;0.0000;0.0000;0.0000;-0.1168;0.0314;0.2279
1.0000;1.3400;134.0000;0.1255;0.2468;-0.9826;14.4925;12.8485;-12.6515;0.0000;0.0000;0.0000;-15.8464;-1.2230;-64.0853;1.0000;0.0000;0.0000;0.0000;-0.1471;0.0272;0.0211
1.0000;1.3500;135.0000;0.0940;0.2397;-1.0626;22.5133;-3.4664;-6.1174;0.0000;0.0000;0.0000;-15.6133;-1.2619;-64.1365;1.0000;0.0000;0.0000;0.0000;-0.1157;0.0313;0.1003
1.0000;1.3600;136.0000;0.0559;0.2267;-0.9963;46.6801;0.1820;-1.3304;0.0000;0.0000;0.0000;-15.1462;-1.2637;-64.1497;1.0000;0.0000;0.0000;0.0000;-0.0781;0.0377;0.0321
1.0000;1.3700;137.0000;-0.0347;0.2064;-0.9522;55.5777;21.7816;6.2350;0.0000;0.0000;0.0000;-14.5905;-1.0372;-64.1452;1.0000;0.0000;0.0000;0.0000;0.0149;0.0491;-0.0144
1.0000;1.3800;138.0000;-0.0089;0.1952;-1.0245;61.8276;25.4526;11.5915;0.0000;0.0000;0.0000;-13.9730;-0.7620;-64.0958;1.0000;0.0000;0.0000;0.0000;-0.0060;0.0502;0.0552
1.0000;1.3900;139.0000;-0.0572;0.1951;-0.9877;52.0100;2.9101;5.3912;0.0000;0.0000;0.0000;-13.4535;-0.7209;-64.0504;1.0000;0.0000;0.0000;0.0000;0.0446;0.0406;0.0160
1.0000;1.4000;140.0000;-0.1550;0.2468;-0.6458;-2.5395;9.1630;-5.4344;0.0000;0.0000;0.0000;-13.4829;-0.6601;-64.1239;1.0000;0.0000;0.0000;0.0000;0.1428;-0.0149;-0.3269
1.0000;1.4100;141.0000;-0.1397;0.2118;-0.9220;-15.6861;37.1964;-12.3276;0.0000;0.0000;0.0000;-13.6379;-0.3275;-64.3311;1.0000;0.0000;0.0000;0.0000;0.1316;0.0233;-0.0499
1.0000;1.4200;142.0000;-0.0433;0.2126;-0.9991;8.8457;38.3369;-14.7493;0.0000;0.0000;0.0000;-13.5489;0.0104;-64.5647;1.0000;0.0000;0.0000;0.0000;0.0415;0.0224;0.0271
1.0000;1.4300;143.0000;0.0285;0.2210;-0.9763;13.9832;16.2322;-11.7480;0.0000;0.0000;0.0000;-13.4093;0.1409;-64.7168;1.0000;0.0000;0.0000;0.0000;-0.0267;0.0118;0.0038
1.0000;1.4400;144.0000;0.0529;0.2164;-0.9691;14.6126;2.5875;-4.7419;0.0000;0.0000;0.0000;-13.2633;0.1551;-64.7689;1.0000;0.0000;0.0000;0.0000;-0.0503;0.0139;-0.0040
1.0000;1.4500;145.0000;0.0513;0.2049;-1.0228;15.3265;6.2231;-0.7179;0.0000;0.0000;0.0000;-13.1031;0.2240;-64.7918;1.0000;0.0000;0.0000;0.0000;-0.0481;0.0230;0.0491
1.0000;1.4600;146.0000;0.0588;0.2088;-1.0380;20.2816;10.8631;0.8160;0.0000;0.0000;0.0000;-12.9004;0.3317;-64.8083;1.0000;0.0000;0.0000;0.0000;-0.0538;0.0158;0.0635
1.0000;1.4700;147.0000;0.0161;0.2077;-1.0228;21.8595;11.7511;3.1171;0.0000;0.0000;0.0000;-12.6818;0.4532;-64.8039;1.0000;0.0000;0.0000;0.0000;-0.0090;0.0132;0.0475
1.0000;1.4800;148.0000;-0.0379;0.1943;-1.0098;23.4914;15.7074;2.5138;0.0000;0.0000;0.0000;-12.4470;0.6120;-64.8135;1.0000;0.0000;0.0000;0.0000;0.0474;0.0228;0.0337
1.0000;1.4900;149.0000;-0.0450;0.2007;-0.9802;27.1438;13.4433;7.0097;0.0000;0.0000;0.0000;-12.1750;0.7582;-64.7738;1.0000;0.0000;0.0000;0.0000;0.0574;0.0119;0.0032
1.0000;1.5000;150.0000;-0.0542;0.2049;-0.9685;24.0780;-4.2054;18.6860;0.0000;0.0000;0.0000;-11.9313;0.7484;-64.5828;1.0000;0.0000;0.0000;0.0000;0.0677;0.0033;-0.0095
1.0000;1.5100;151.0000;-0.0467;0.1976;-0.9600;23.1359;-22.9686;26.1410;0.0000;0.0000;0.0000;-11.6964;0.5770;-64.2799;1.0000;0.0000;0.0000;0.0000;0.0579;0.0066;-0.0188
1.0000;1.5200;152.0000;0.0057;0.2082;-0.9280;22.8100;-24.2380;26.9875;0.0000;0.0000;0.0000;-11.4657;0.3938;-63.9669;1.0000;0.0000;0.0000;0.0000;0.0023;-0.0080;-0.0517
1.0000;1.5300;153.0000;0.0412;0.1994;-0.9458;19.0738;-16.1337;25.6238;0.0000;0.0000;0.0000;-11.2733;0.2861;-63.6838;1.0000;0.0000;0.0000;0.0000;-0.0356;-0.0028;-0.0347
1.0000;1.5400;154.0000;0.0428;0.1899;-0.9964;18.4933;-5.0917;22.9787;0.0000;0.0000;0.0000;-11.0872;0.2807;-63.4485;1.0000;0.0000;0.0000;0.0000;-0.0380;0.0036;0.0153
1.0000;1.5500;155.0000;0.0321;0.1903;-0.9695;21.4209;-2.1157;23.4855;0.0000;0.0000;0.0000;-10.8729;0.3072;-63.2134;1.0000;0.0000;0.0000;0.0000;-0.0269;-0.0003;-0.0123
1.0000;1.5600;156.0000;0.0038;0.1879;-0.9383;19.5482;-3.9633;25.7965;0.0000;0.0000;0.0000;-10.6760;0.3165;-62.9526;1.0000;0.0000;0.0000;0.0000;0.0016;-0.0014;-0.0442
1.0000;1.5700;157.0000;-0.0124;0.1880;-0.9311;17.6414;-3.8242;25.7865;0.0000;0.0000;0.0000;-10.4981;0.3263;-62.6920;1.0000;0.0000;0.0000;0.0000;0.0180;-0.0047;-0.0520
1.0000;1.5800;158.0000;-0.0200;0.1878;-0.9381;14.8592;2.3970;21.4841;0.0000;0.0000;0.0000;-10.3483;0.3887;-62.4851;1.0000;0.0000;0.0000;0.0000;0.0263;-0.0073;-0.0454
1.0000;1.5900;159.0000;-0.0216;0.1870;-0.9598;13.7973;9.6426;17.3652;0.0000;0.0000;0.0000;-10.2091;0.5146;-62.3314;1.0000;0.0000;0.0000;0.0000;0.0297;-0.0089;-0.0242
1.0000;1.6000;160.0000;0.0121;0.2139;-0.7253;6.7318;10.7159;20.2292;0.0000;0.0000;0.0000;-10.1633;0.6562;-62.1434;1.0000;0.0000;0.0000;0.0000;-0.0017;-0.0377;-0.2590
1.0000;1.6100;161.0000;-0.0035;0.2420;-1.2417;-1.8344;12.2446;19.5821;0.0000;0.0000;0.0000;-10.1794;0.8115;-61.9725;1.0000;0.0000;0.0000;0.0000;0.0170;-0.0644;0.2577
1.0000;1.6200;162.0000;-0.0500;0.2317;-1.0649;43.0502;-7.9633;33.8438;0.0000;0.0000;0.0000;-9.7440;0.7915;-61.6253;1.0000;0.0000;0.0000;0.0000;0.0641;-0.0595;0.0800
1.0000;1.6300;163.0000;-0.0067;0.1897;-1.0158;45.1002;-14.0107;42.7245;0.0000;0.0000;0.0000;-9.2871;0.7239;-61.1808;1.0000;0.0000;0.0000;0.0000;0.0199;-0.0254;0.0295
1.0000;1.6400;164.0000;0.0223;0.1850;-1.0106;47.6112;-19.7335;53.1083;0.0000;0.0000;0.0000;-8.8045;0.6125;-60.6253;1.0000;0.0000;0.0000;0.0000;-0.0109;-0.0287;0.0229
1.0000;1.6500;165.0000;0.0343;0.2361;-1.0071;84.0105;-23.5978;68.1039;0.0000;0.0000;0.0000;-7.9572;0.4747;-59.9177;1.0000;0.0000;0.0000;0.0000;-0.0250;-0.0916;0.0177
1.0000;1.6600;166.0000;-0.1027;0.0066;-0.9234;86.9467;-18.9343;57.1510;0.0000;0.0000;0.0000;-7.0835;0.3622;-59.3262;1.0000;0.0000;0.0000;0.0000;0.1095;0.1218;-0.0683
1.0000;1.6700;167.0000;-0.0250;0.1013;-1.0654;76.0592;4.4154;21.0563;0.0000;0.0000;0.0000;-6.3215;0.4308;-59.1220;1.0000;0.0000;0.0000;0.0000;0.0317;0.0140;0.0721
1.0000;1.6800;168.0000;0.0074;0.0769;-1.0479;86.3742;17.3169;7.9578;0.0000;0.0000;0.0000;-5.4573;0.6113;-59.0606;1.0000;0.0000;0.0000;0.0000;0.0020;0.0240;0.0531
1.0000;1.6900;169.0000;-0.1028;-0.1256;-0.5995;286.0235;98.7046;36.1172;0.0000;0.0000;0.0000;-2.5917;1.6220;-58.7688;1.0000;0.0000;0.0000;0.0000;0.1224;0.1949;-0.3977
1.0000;1.7000;170.0000;0.0378;-0.0223;-1.1609;367.0828;110.0631;21.7672;0.0000;0.0000;0.0000;1.0877;2.7260;-58.5671;1.0000;0.0000;0.0000;0.0000;0.0034;0.0259;0.1619
1.0000;1.7100;171.0000;0.1161;-0.1746;-1.2873;185.9613;12.2946;21.6239;0.0000;0.0000;0.0000;2.9582;2.8405;-58.3488;1.0000;0.0000;0.0000;0.0000;-0.0659;0.1326;0.2895
1.0000;1.7200;172.0000;0.0663;-0.1294;-1.0677;103.4082;-26.1067;14.0620;0.0000;0.0000;0.0000;3.9982;2.5717;-58.2239;1.0000;0.0000;0.0000;0.0000;-0.0199;0.0668;0.0707
1.0000;1.7300;173.0000;-0.0247;-0.0809;-1.1722;101.0822;-10.7747;7.7441;0.0000;0.0000;0.0000;5.0120;2.4580;-58.1550;1.0000;0.0000;0.0000;0.0000;0.0681;-0.0006;0.1765
1.0000;1.7400;174.0000;0.0219;-0.0865;-1.2339;16.0067;-5.4774;14.9550;0.0000;0.0000;0.0000;5.1782;2.3900;-58.0109;1.0000;0.0000;0.0000;0.0000;0.0203;-0.0038;0.2388
1.0000;1.7500;175.0000;-0.0555;-0.0859;-1.0998;-40.8960;-12.7836;20.7451;0.0000;0.0000;0.0000;4.7761;2.2329;-57.8164;1.0000;0.0000;0.0000;0.0000;0.0957;-0.0002;0.1043
1.0000;1.7600;176.0000;-0.1215;0.0049;-0.9946;-37.8072;-32.4907;68.1777;0.0000;0.0000;0.0000;4.4212;1.8549;-57.1622;1.0000;0.0000;0.0000;0.0000;0.1567;-0.0840;-0.0016
1.0000;1.7700;177.0000;-0.0110;-0.0591;-1.0091;-35.4826;-50.9624;87.7930;0.0000;0.0000;0.0000;4.0892;1.2818;-56.3241;1.0000;0.0000;0.0000;0.0000;0.0373;-0.0142;0.0122
1.0000;1.7800;178.0000;0.1527;-0.0565;-1.0110;-57.7694;-54.7170;79.1669;0.0000;0.0000;0.0000;3.5247;0.6826;-55.5707;1.0000;0.0000;0.0000;0.0000;-0.1369;-0.0092;0.0133
1.0000;1.7900;179.0000;0.1648;-0.0450;-0.9593;-65.5296;-27.5336;36.9719;0.0000;0.0000;0.0000;2.8726;0.3868;-55.2173;1.0000;0.0000;0.0000;0.0000;-0.1567;-0.0093;-0.0391
1.0000;1.8000;180.0000;0.1033;-0.0446;-0.9397;-58.4741;-8.1346;23.8849;0.0000;0.0000;0.0000;2.2888;0.3019;-54.9810;1.0000;0.0000;0.0000;0.0000;-0.0975;0.0011;-0.0593
1.0000;1.8100;181.0000;0.0912;0.0182;-0.9310;-33.6900;-10.9474;25.5258;0.0000;0.0000;0.0000;1.9529;0.1831;-54.7299;1.0000;0.0000;0.0000;0.0000;-0.0873;-0.0540;-0.0683
1.0000;1.8200;182.0000;0.0995;0.0778;-0.9931;-12.0192;-7.4428;24.0245;0.0000;0.0000;0.0000;1.8333;0.1008;-54.4923;1.0000;0.0000;0.0000;0.0000;-0.0973;-0.1104;-0.0063
1.0000;1.8300;183.0000;0.0580;0.0836;-0.9915;-9.2843;-8.3956;20.1824;0.0000;0.0000;0.0000;1.7407;0.0106;-54.2931;1.0000;0.0000;0.0000;0.0000;-0.0572;-0.1146;-0.0080
1.0000;1.8400;184.0000;0.0067;0.0933;-0.9518;-9.5680;-10.5357;18.7782;0.0000;0.0000;0.0000;1.6449;-0.1002;-54.1085;1.0000;0.0000;0.0000;0.0000;-0.0076;-0.1226;-0.0478
1.0000;1.8500;185.0000;-0.0224;0.1052;-0.9115;-6.7016;-15.2871;21.0670;0.0000;0.0000;0.0000;1.5570;-0.2622;-53.8963;1.0000;0.0000;0.0000;0.0000;0.0189;-0.1332;-0.0881
1.0000;1.8600;186.0000;-0.0192;0.0983;-0.9445;-8.3457;-16.8011;22.0842;0.0000;0.0000;0.0000;1.4722;-0.4360;-53.6800;1.0000;0.0000;0.0000;0.0000;0.0128;-0.1245;-0.0551
1.0000;1.8700;187.0000;-0.0075;0.0597;-0.9825;-9.0093;-20.5186;23.6235;0.0000;0.0000;0.0000;1.3800;-0.6470;-53.4489;1.0000;0.0000;0.0000;0.0000;-0.0023;-0.0844;-0.0171
1.0000;1.8800;188.0000;-0.0084;0.0015;-1.0024;-9.8478;-20.4673;22.6019;0.0000;0.0000;0.0000;1.2786;-0.8568;-53.2277;1.0000;0.0000;0.0000;0.0000;-0.0052;-0.0245;0.0027
1.0000;1.8900;189.0000;-0.0116;-0.0400;-1.0409;-4.2798;-18.8536;19.2804;0.0000;0.0000;0.0000;1.2326;-1.0495;-53.0390;1.0000;0.0000;0.0000;0.0000;-0.0054;0.0182;0.0413
1.0000;1.9000;190.0000;-0.0401;-0.0435;-1.0761;0.5342;-18.8041;15.7572;0.0000;0.0000;0.0000;1.2381;-1.2467;-52.8878;1.0000;0.0000;0.0000;0.0000;0.0197;0.0220;0.0765
1.0000;1.9100;191.0000;-0.0737;-0.0303;-1.0727;-6.9369;-17.4034;12.7679;0.0000;0.0000;0.0000;1.1659;-1.4234;-52.7638;1.0000;0.0000;0.0000;0.0000;0.0499;0.0093;0.0732
1.0000;1.9200;192.0000;-0.0801;-0.0230;-1.0363;-16.7229;-12.9235;8.3907;0.0000;0.0000;0.0000;0.9965;-1.5543;-52.6823;1.0000;0.0000;0.0000;0.0000;0.0537;0.0044;0.0368
1.0000;1.9300;193.0000;-0.0401;-0.0477;-1.0233;-19.3705;-6.5321;-2.0186;0.0000;0.0000;0.0000;0.8034;-1.6193;-52.7036;1.0000;0.0000;0.0000;0.0000;0.0122;0.0324;0.0239
1.0000;1.9400;194.0000;-0.0369;-0.0734;-1.0301;-23.6107;-1.3180;-2.7802;0.0000;0.0000;0.0000;0.5681;-1.6321;-52.7316;1.0000;0.0000;0.0000;0.0000;0.0085;0.0619;0.0305
1.0000;1.9500;195.0000;-0.0467;-0.0932;-0.9909;-18.6892;-2.7664;6.8721;0.0000;0.0000;0.0000;0.4056;-1.6636;-52.6729;1.0000;0.0000;0.0000;0.0000;0.0179;0.0854;-0.0086
1.0000;1.9600;196.0000;-0.0154;-0.1133;-0.9766;-4.6308;-1.7569;6.1869;0.0000;0.0000;0.0000;0.3575;-1.6815;-52.6111;1.0000;0.0000;0.0000;0.0000;-0.0138;0.1069;-0.0229
1.0000;1.9700;197.0000;-0.0154;-0.1061;-0.9910;2.8827;3.3924;3.0758;0.0000;0.0000;0.0000;0.3854;-1.6478;-52.5801;1.0000;0.0000;0.0000;0.0000;-0.0137;0.0997;-0.0086
1.0000;1.9800;198.0000;-0.2668;-0.0141;-0.9715;-8.0817;-68.8970;26.1916;0.0000;0.0000;0.0000;0.2956;-2.3383;-52.3221;1.0000;0.0000;0.0000;0.0000;0.2337;0.0079;-0.0279
1.0000;1.9900;199.0000;-0.0829;0.0565;-0.9047;78.2710;-111.3636;58.6349;0.0000;0.0000;0.0000;1.0491;-3.4581;-51.7466;1.0000;0.0000;0.0000;0.0000;0.0292;-0.0691;-0.0937
1.0000;2.0000;200.0000;-0.0411;0.0320;-1.0375;71.0925;-74.2481;64.6901;0.0000;0.0000;0.0000;1.7145;-4.2143;-51.1149;1.0000;0.0000;0.0000;0.0000;-0.0280;-0.0579;0.0402
1.0000;2.0100;201.0000;-0.0011;0.0224;-1.0375;45.8822;-42.8463;58.1417;0.0000;0.0000;0.0000;2.1291;-4.6620;-50.5463;1.0000;0.0000;0.0000;0.0000;-0.0777;-0.0569;0.0412
1.0000;2.0200;202.0000;-0.0154;-0.0490;-1.0503;38.9881;-8.3722;42.5508;0.0000;0.0000;0.0000;2.4842;-4.7628;-50.1230;1.0000;0.0000;0.0000;0.0000;-0.0672;0.0079;0.0546
1.0000;2.0300;203.0000;-0.0724;-0.0375;-1.0281;19.5790;8.9544;21.0487;0.0000;0.0000;0.0000;2.6622;-4.6828;-49.9079;1.0000;0.0000;0.0000;0.0000;-0.0100;-0.0079;0.0326
1.0000;2.0400;204.0000;-0.0703;-0.0354;-1.0102;6.1341;20.8878;3.2248;0.0000;0.0000;0.0000;2.7201;-4.4756;-49.8657;1.0000;0.0000;0.0000;0.0000;-0.0092;-0.0116;0.0144
1.0000;2.0500;205.0000;-0.0629;-0.0805;-1.0323;6.9008;25.9915;-0.5743;0.0000;0.0000;0.0000;2.7962;-4.2111;-49.8610;1.0000;0.0000;0.0000;0.0000;-0.0122;0.0322;0.0363
1.0000;2.0600;206.0000;-0.0294;-0.0586;-1.0183;-12.3040;20.8245;-1.6075;0.0000;0.0000;0.0000;2.6736;-4.0023;-49.8671;1.0000;0.0000;0.0000;0.0000;-0.0417;0.0110;0.0220
1.0000;2.0700;207.0000;-0.0462;-0.0309;-0.9820;-22.4972;6.5606;-5.4833;0.0000;0.0000;0.0000;2.4522;-3.9343;-49.9190;1.0000;0.0000;0.0000;0.0000;-0.0225;-0.0133;-0.0146
1.0000;2.0800;208.0000;-0.0858;-0.0046;-0.9611;-20.9689;-13.9900;-3.9768;0.0000;0.0000;0.0000;2.2456;-4.0725;-49.9645;1.0000;0.0000;0.0000;0.0000;0.0159;-0.0357;-0.0357
1.0000;2.0900;209.0000;-0.0764;0.0025;-0.9534;-14.7292;-22.5448;-0.8817;0.0000;0.0000;0.0000;2.0996;-4.2974;-49.9819;1.0000;0.0000;0.0000;0.0000;0.0029;-0.0399;-0.0432
1.0000;2.1000;210.0000;-0.0610;0.0108;-0.9867;-15.8565;0.9905;4.1518;0.0000;0.0000;0.0000;1.9281;-4.2810;-49.9352;1.0000;0.0000;0.0000;0.0000;-0.0144;-0.0457;-0.0098
1.0000;2.1100;211.0000;-0.0157;0.0203;-1.0289;-32.1538;26.4851;-4.1327;0.0000;0.0000;0.0000;1.6090;-4.0150;-49.9685;1.0000;0.0000;0.0000;0.0000;-0.0563;-0.0505;0.0320
1.0000;2.1200;212.0000;-0.0582;0.0248;-1.0334;-34.8303;43.7685;-6.2061;0.0000;0.0000;0.0000;1.2641;-3.5759;-50.0197;1.0000;0.0000;0.0000;0.0000;-0.0072;-0.0491;0.0358
1.0000;2.1300;213.0000;-0.0644;-0.0121;-1.0064;-29.6050;54.7536;-5.0381;0.0000;0.0000;0.0000;0.9703;-3.0275;-50.0596;1.0000;0.0000;0.0000;0.0000;0.0078;-0.0067;0.0082
1.0000;2.1400;214.0000;-0.0540;-0.0599;-0.9859;-24.6756;62.0315;-5.9926;0.0000;0.0000;0.0000;0.7259;-2.4064;-50.1104;1.0000;0.0000;0.0000;0.0000;0.0079;0.0457;-0.0130
1.0000;2.1500;215.0000;-0.0637;-0.0774;-0.9969;-16.2747;65.3553;-12.7059;0.0000;0.0000;0.0000;0.5720;-1.7549;-50.2322;1.0000;0.0000;0.0000;0.0000;0.0288;0.0665;-0.0025
1.0000;2.1600;216.0000;-0.0987;-0.0349;-1.0281;-10.4303;42.5865;-8.8636;0.0000;0.0000;0.0000;0.4700;-1.3283;-50.3170;1.0000;0.0000;0.0000;0.0000;0.0733;0.0261;0.0284
1.0000;2.1700;217.0000;-0.0770;0.0013;-1.0158;1.6955;13.1933;0.2835;0.0000;0.0000;0.0000;0.4869;-1.1964;-50.3131;1.0000;0.0000;0.0000;0.0000;0.0553;-0.0095;0.0161
1.0000;2.1800;218.0000;-0.0384;-0.0047;-1.0632;4.5940;11.8095;0.6867;0.0000;0.0000;0.0000;0.5327;-1.0783;-50.3052;1.0000;0.0000;0.0000;0.0000;0.0188;-0.0044;0.0634
1.0000;2.1900;219.0000;-0.0528;-0.0129;-1.0333;-3.9748;8.5786;0.6660;0.0000;0.0000;0.0000;0.4928;-0.9926;-50.2977;1.0000;0.0000;0.0000;0.0000;0.0350;0.0040;0.0335
1.0000;2.2000;220.0000;-0.0303;-0.0427;-1.0100;-2.1476;1.1338;3.1632;0.0000;0.0000;0.0000;0.4996;-0.9792;-50.2743;1.0000;0.0000;0.0000;0.0000;0.0132;0.0343;0.0102
1.0000;2.2100;221.0000;-0.0854;-0.0158;-1.0200;4.1431;-31.9784;22.2249;0.0000;0.0000;0.0000;0.5367;-1.3010;-50.0549;1.0000;0.0000;0.0000;0.0000;0.0658;0.0069;0.0203
1.0000;2.2200;222.0000;0.0079;-0.0383;-1.0425;42.3414;-45.0622;33.2401;0.0000;0.0000;0.0000;0.9515;-1.7556;-49.7280;1.0000;0.0000;0.0000;0.0000;-0.0358;0.0246;0.0430
1.0000;2.2300;223.0000;-0.0173;-0.0884;-1.1091;20.0948;-34.1404;16.1420;0.0000;0.0000;0.0000;1.1472;-2.1000;-49.5729;1.0000;0.0000;0.0000;0.0000;-0.0170;0.0692;0.1099
1.0000;2.2400;224.0000;-0.0753;-0.0200;-1.0265;15.9409;-26.0792;20.3652;0.0000;0.0000;0.0000;1.2988;-2.3650;-49.3746;1.0000;0.0000;0.0000;0.0000;0.0355;-0.0014;0.0275
1.0000;2.2500;225.0000;-0.0230;-0.0419;-1.0499;19.8580;-12.1598;9.8243;0.0000;0.0000;0.0000;1.4923;-2.4857;-49.2786;1.0000;0.0000;0.0000;0.0000;-0.0198;0.0171;0.0512
1.0000;2.2600;226.0000;-0.0403;-0.0363;-1.0017;14.8777;-3.0861;2.5201;0.0000;0.0000;0.0000;1.6400;-2.5172;-49.2542;1.0000;0.0000;0.0000;0.0000;-0.0035;0.0087;0.0030
1.0000;2.2700;227.0000;-0.0392;-0.1154;-0.9948;25.4576;1.4855;5.4019;0.0000;0.0000;0.0000;1.8922;-2.5041;-49.1997;1.0000;0.0000;0.0000;0.0000;-0.0047;0.0843;-0.0038
1.0000;2.2800;228.0000;-0.0263;-0.0570;-1.0665;37.7354;-1.0329;19.5187;0.0000;0.0000;0.0000;2.2610;-2.5215;-49.0049;1.0000;0.0000;0.0000;0.0000;-0.0174;0.0202;0.0681
1.0000;2.2900;229.0000;-0.0600;-0.0169;-1.1023;42.3758;-12.4390;28.0071;0.0000;0.0000;0.0000;2.6724;-2.6579;-48.7302;1.0000;0.0000;0.0000;0.0000;0.0147;-0.0270;0.1043
1.0000;2.3000;230.0000;0.0100;-0.0077;-1.1071;32.5965;-25.8774;33.1831;0.0000;0.0000;0.0000;2.9796;-2.9265;-48.4095;1.0000;0.0000;0.0000;0.0000;-0.0592;-0.0423;0.1095
1.0000;2.3100;231.0000;0.0014;-0.0099;-1.0054;28.4078;-34.5820;34.1117;0.0000;0.0000;0.0000;3.2462;-3.2904;-48.0872;1.0000;0.0000;0.0000;0.0000;-0.0564;-0.0450;0.0084
1.0000;2.3200;232.0000;-0.0317;-0.0847;-0.9285;28.0376;-30.8511;36.2601;0.0000;0.0000;0.0000;3.5058;-3.6197;-47.7428;1.0000;0.0000;0.0000;0.0000;-0.0293;0.0254;-0.0679
1.0000;2.3300;233.0000;0.0094;-0.1131;-0.9010;28.0237;-23.4688;36.9597;0.0000;0.0000;0.0000;3.7628;-3.8774;-47.3880;1.0000;0.0000;0.0000;0.0000;-0.0754;0.0492;-0.0948
1.0000;2.3400;234.0000;-0.0089;-0.1906;-0.7823;26.7182;-17.1099;32.8159;0.0000;0.0000;0.0000;4.0080;-4.0703;-47.0714;1.0000;0.0000;0.0000;0.0000;-0.0610;0.1227;-0.2130
1.0000;2.3500;235.0000;0.2050;-0.0340;-0.6996;46.3608;10.1161;31.6015;0.0000;0.0000;0.0000;4.4464;-3.9785;-46.7452;1.0000;0.0000;0.0000;0.0000;-0.2757;-0.0403;-0.2952
1.0000;2.3600;236.0000;0.0847;0.4113;-0.8056;18.2064;47.1997;1.8648;0.0000;0.0000;0.0000;4.6244;-3.5094;-46.6886;1.0000;0.0000;0.0000;0.0000;-0.1495;-0.4916;-0.1891
1.0000;2.3700;237.0000;-0.0938;0.6222;-1.1805;-35.3796;45.4214;-79.5363;0.0000;0.0000;0.0000;4.3127;-2.9949;-47.4472;1.0000;0.0000;0.0000;0.0000;0.0386;-0.6994;0.1851
1.0000;2.3800;238.0000;-0.0987;0.1285;-1.0806;-47.5922;15.5964;-135.7008;0.0000;0.0000;0.0000;3.9036;-2.7418;-48.7910;1.0000;0.0000;0.0000;0.0000;0.0495;-0.1995;0.0843
1.0000;2.3900;239.0000;-0.0769;-0.3579;-1.0115;-62.7289;0.6725;-136.5139;0.0000;0.0000;0.0000;3.3402;-2.6488;-50.1543;1.0000;0.0000;0.0000;0.0000;0.0303;0.2961;0.0145
1.0000;2.4000;240.0000;-0.0528;-0.7346;-0.8936;-23.9589;-8.8157;-88.3302;0.0000;0.0000;0.0000;3.1973;-2.6878;-51.0569;1.0000;0.0000;0.0000;0.0000;0.0063;0.6790;-0.1038
1.0000;2.4100;241.0000;-0.0755;-0.8689;-0.6984;13.1837;2.0077;-7.2686;0.0000;0.0000;0.0000;3.3325;-2.6638;-51.1284;1.0000;0.0000;0.0000;0.0000;0.0286;0.8117;-0.2989
1.0000;2.4200;242.0000;-0.1882;-0.6459;-0.7122;5.5287;29.8273;83.2387;0.0000;0.0000;0.0000;3.3502;-2.4147;-50.2791;1.0000;0.0000;0.0000;0.0000;0.1442;0.5874;-0.2852
1.0000;2.4300;243.0000;-0.0853;-0.1446;-0.8227;10.5039;47.0289;140.2179;0.0000;0.0000;0.0000;3.3999;-2.0274;-48.8507;1.0000;0.0000;0.0000;0.0000;0.0472;0.0860;-0.1748
1.0000;2.4400;244.0000;-0.1473;0.2599;-0.9437;23.9972;58.2577;141.1125;0.0000;0.0000;0.0000;3.5946;-1.5316;-47.4061;1.0000;0.0000;0.0000;0.0000;0.1172;-0.3211;-0.0540
1.0000;2.4500;245.0000;-0.1414;0.4921;-1.0473;36.6805;50.8297;102.4241;0.0000;0.0000;0.0000;3.9165;-1.0949;-46.3452;1.0000;0.0000;0.0000;0.0000;0.1197;-0.5582;0.0497
1.0000;2.4600;246.0000;-0.0814;0.5272;-0.9552;36.6814;33.1972;54.0235;0.0000;0.0000;0.0000;4.2738;-0.8021;-45.7826;1.0000;0.0000;0.0000;0.0000;0.0656;-0.5994;-0.0421
1.0000;2.4700;247.0000;-0.0541;0.3640;-0.8541;26.6974;31.4779;6.4578;0.0000;0.0000;0.0000;4.5396;-0.4931;-45.6940;1.0000;0.0000;0.0000;0.0000;0.0434;-0.4414;-0.1428
1.0000;2.4800;248.0000;-0.0206;0.1278;-0.7953;18.4480;42.3060;-22.3447;0.0000;0.0000;0.0000;4.7249;-0.0533;-45.8824;1.0000;0.0000;0.0000;0.0000;0.0165;-0.2092;-0.2013
1.0000;2.4900;249.0000;-0.0393;-0.0460;-0.8724;2.1622;55.2830;-28.7470;0.0000;0.0000;0.0000;4.7456;0.5214;-46.1232;1.0000;0.0000;0.0000;0.0000;0.0445;-0.0367;-0.1241
1.0000;2.5000;250.0000;0.0255;-0.1399;-1.0044;-9.8462;63.8384;-23.0045;0.0000;0.0000;0.0000;4.6499;1.1779;-46.3012;1.0000;0.0000;0.0000;0.0000;-0.0094;0.0581;0.0078
1.0000;2.5100;251.0000;0.0875;-0.1796;-1.1279;-8.4388;60.2269;-16.2571;0.0000;0.0000;0.0000;4.5626;1.7913;-46.4149;1.0000;0.0000;0.0000;0.0000;-0.0601;0.0996;0.1315
1.0000;2.5200;252.0000;0.1321;-0.2345;-1.1546;-6.0068;50.3614;-11.3634;0.0000;0.0000;0.0000;4.4999;2.3023;-46.4884;1.0000;0.0000;0.0000;0.0000;-0.0951;0.1557;0.1584
1.0000;2.5300;253.0000;0.1666;-0.3318;-1.1880;-6.0607;46.5751;-4.4427;0.0000;0.0000;0.0000;4.4391;2.7701;-46.4965;1.0000;0.0000;0.0000;0.0000;-0.1213;0.2541;0.1921
1.0000;2.5400;254.0000;0.1525;-0.3590;-1.2172;-4.5412;44.3663;14.2367;0.0000;0.0000;0.0000;4.4030;3.2015;-46.3201;1.0000;0.0000;0.0000;0.0000;-0.0994;0.2821;0.2216
1.0000;2.5500;255.0000;0.0968;-0.2267;-1.2827;-13.8114;45.0019;33.0468;0.0000;0.0000;0.0000;4.2884;3.6242;-45.9561;1.0000;0.0000;0.0000;0.0000;-0.0363;0.1511;0.2874
1.0000;2.5600;256.0000;0.0307;-0.0139;-1.4161;-21.6978;39.6047;37.5945;0.0000;0.0000;0.0000;4.0984;3.9917;-45.5512;1.0000;0.0000;0.0000;0.0000;0.0367;-0.0587;0.4210
1.0000;2.5700;257.0000;0.0050;0.1292;-1.5112;-20.0705;25.2876;21.8490;0.0000;0.0000;0.0000;3.9146;4.2286;-45.3150;1.0000;0.0000;0.0000;0.0000;0.0674;-0.1984;0.5163
1.0000;2.5800;258.0000;0.0460;0.0942;-1.5681;-15.0883;6.2909;-4.7022;0.0000;0.0000;0.0000;3.7605;4.2945;-45.3578;1.0000;0.0000;0.0000;0.0000;0.0287;-0.1605;0.5731
1.0000;2.5900;259.0000;0.0731;-0.0655;-1.5572;-9.2245;-12.1676;-25.1856;0.0000;0.0000;0.0000;3.6490;4.1893;-45.6176;1.0000;0.0000;0.0000;0.0000;0.0008;0.0014;0.5620
1.0000;2.6000;260.0000;0.0427;-0.2409;-1.5585;-6.1676;-23.7915;-27.4599;0.0000;0.0000;0.0000;3.5702;3.9679;-45.9080;1.0000;0.0000;0.0000;0.0000;0.0281;0.1784;0.5630
1.0000;2.6100;261.0000;0.0442;-0.2744;-1.6078;-8.9291;-34.8661;-12.9274;0.0000;0.0000;0.0000;3.4708;3.6279;-46.0588;1.0000;0.0000;0.0000;0.0000;0.0216;0.2133;0.6118
1.0000;2.6200;262.0000;0.0495;-0.1311;-1.6354;-15.8463;-59.3213;3.3357;0.0000;0.0000;0.0000;3.3122;3.0338;-46.0606;1.0000;0.0000;0.0000;0.0000;0.0077;0.0723;0.6387
1.0000;2.6300;263.0000;0.0606;0.0357;-1.5389;-24.3392;-87.1412;2.7966;0.0000;0.0000;0.0000;3.0680;2.1621;-46.0812;1.0000;0.0000;0.0000;0.0000;-0.0169;-0.0908;0.5414
1.0000;2.6400;264.0000;0.0258;0.1102;-1.3577;-25.3414;-106.7469;-13.3640;0.0000;0.0000;0.0000;2.8095;1.1028;-46.2693;1.0000;0.0000;0.0000;0.0000;0.0005;-0.1608;0.3594
1.0000;2.6500;265.0000;0.0586;0.0496;-1.1818;-15.2400;-110.8902;-32.9605;0.0000;0.0000;0.0000;2.6511;0.0137;-46.6506;1.0000;0.0000;0.0000;0.0000;-0.0513;-0.0968;0.1829
1.0000;2.6600;266.0000;0.0559;-0.0324;-1.0554;-6.7113;-107.3413;-42.1576;0.0000;0.0000;0.0000;2.5882;-1.0394;-47.1207;1.0000;0.0000;0.0000;0.0000;-0.0672;-0.0131;0.0565
1.0000;2.6700;267.0000;0.0236;-0.0679;-0.9972;0.0600;-96.8806;-41.4872;0.0000;0.0000;0.0000;2.6010;-1.9884;-47.5791;1.0000;0.0000;0.0000;0.0000;-0.0523;0.0227;-0.0013
1.0000;2.6800;268.0000;0.0167;-0.0630;-1.0470;6.0412;-82.9282;-38.2111;0.0000;0.0000;0.0000;2.6790;-2.7993;-47.9993;1.0000;0.0000;0.0000;0.0000;-0.0604;0.0169;0.0490
1.0000;2.6900;269.0000;0.0622;-0.0721;-1.1663;6.8089;-75.0721;-37.8479;0.0000;0.0000;0.0000;2.7700;-3.5312;-48.4137;1.0000;0.0000;0.0000;0.0000;-0.1190;0.0243;0.1691
1.0000;2.7000;270.0000;0.0733;-0.0757;-1.1954;1.6408;-82.0617;-38.3395;0.0000;0.0000;0.0000;2.8162;-4.3243;-48.8377;1.0000;0.0000;0.0000;0.0000;-0.1433;0.0268;0.1991
1.0000;2.7100;271.0000;0.0503;-0.1034;-1.1414;-6.0175;-102.2612;-32.9892;0.0000;0.0000;0.0000;2.7879;-5.3296;-49.2183;1.0000;0.0000;0.0000;0.0000;-0.1362;0.0550;0.1463
1.0000;2.7200;272.0000;0.0131;-0.0767;-0.9846;-16.0203;-116.3691;-25.2284;0.0000;0.0000;0.0000;2.6593;-6.4800;-49.5271;1.0000;0.0000;0.0000;0.0000;-0.1183;0.0298;-0.0088
1.0000;2.7300;273.0000;0.0247;-0.0193;-0.8433;-23.2633;-120.7732;-23.5993;0.0000;0.0000;0.0000;2.4627;-7.6759;-49.8195;1.0000;0.0000;0.0000;0.0000;-0.1505;-0.0250;-0.1477
1.0000;2.7400;274.0000;0.0822;-0.0585;-0.7946;-10.2362;-125.6208;-30.1681;0.0000;0.0000;0.0000;2.4122;-8.9182;-50.1778;1.0000;0.0000;0.0000;0.0000;-0.2291;0.0168;-0.1936
1.0000;2.7500;275.0000;0.1263;-0.1396;-0.8031;-7.9069;-134.2788;-34.4459;0.0000;0.0000;0.0000;2.4068;-10.2325;-50.5858;1.0000;0.0000;0.0000;0.0000;-0.2953;0.0982;-0.1816
1.0000;2.7600;276.0000;0.1134;-0.1840;-0.9239;-6.9592;-158.6574;-30.5627;0.0000;0.0000;0.0000;2.4094;-11.8048;-50.9648;1.0000;0.0000;0.0000;0.0000;-0.3074;0.1428;-0.0562
1.0000;2.7700;277.0000;0.0023;-0.1253;-1.2082;-14.3480;-209.5186;-21.7448;0.0000;0.0000;0.0000;2.3349;-13.8891;-51.2770;1.0000;0.0000;0.0000;0.0000;-0.2282;0.0849;0.2349
1.0000;2.7800;278.0000;-0.1455;-0.0533;-1.2378;-33.4449;-284.4486;-16.3572;0.0000;0.0000;0.0000;2.0748;-16.7251;-51.5605;1.0000;0.0000;0.0000;0.0000;-0.1230;0.0164;0.2753
1.0000;2.7900;279.0000;-0.2558;-0.0173;-0.9393;-55.1526;-350.3246;-14.7508;0.0000;0.0000;0.0000;1.6102;-20.2216;-51.8351;1.0000;0.0000;0.0000;0.0000;-0.0678;-0.0124;-0.0063
1.0000;2.8000;280.0000;-0.3302;-0.0212;-0.6398;-62.3262;-367.0521;-14.0552;0.0000;0.0000;0.0000;1.0784;-23.8904;-52.0796;1.0000;0.0000;0.0000;0.0000;-0.0526;0.0006;-0.2837
1.0000;2.8100;281.0000;-0.3848;-0.0107;-0.3492;-60.2176;-358.0730;-10.5803;0.0000;0.0000;0.0000;0.5511;-27.4691;-52.2530;1.0000;0.0000;0.0000;0.0000;-0.0558;-0.0010;-0.5483
1.0000;2.8200;282.0000;-0.4056;-0.0065;-0.0211;-48.6017;-328.8995;-3.9739;0.0000;0.0000;0.0000;0.0972;-30.7577;-52.3200;1.0000;0.0000;0.0000;0.0000;-0.0876;0.0024;-0.8487
1.0000;2.8300;283.0000;-0.3757;0.0008;0.3102;-59.7658;-267.3667;5.3228;0.0000;0.0000;0.0000;-0.5402;-33.4311;-52.2462;1.0000;0.0000;0.0000;0.0000;-0.1613;0.0034;-1.1536
1.0000;2.8400;284.0000;-0.3101;0.0157;0.5990;-65.2283;-180.8486;15.9642;0.0000;0.0000;0.0000;-1.3216;-35.2366;-52.0184;1.0000;0.0000;0.0000;0.0000;-0.2582;-0.0011;-1.4216
1.0000;2.8500;285.0000;-0.2702;0.0330;0.7724;-67.0042;-72.1132;26.0174;0.0000;0.0000;0.0000;-2.1989;-35.9918;-51.6660;1.0000;0.0000;0.0000;0.0000;-0.3145;-0.0067;-1.5832
1.0000;2.8600;286.0000;-0.2189;0.0968;0.4189;-63.8021;28.5266;34.9168;0.0000;0.0000;0.0000;-3.0791;-35.6907;-51.2530;1.0000;0.0000;0.0000;0.0000;-0.3671;-0.0579;-1.2282
1.0000;2.8700;287.0000;-0.2079;0.1691;-0.0083;-52.8257;95.8536;38.3586;0.0000;0.0000;0.0000;-3.8367;-34.7108;-50.8558;1.0000;0.0000;0.0000;0.0000;-0.3672;-0.1182;-0.8082
1.0000;2.8800;288.0000;-0.2785;0.1926;-0.3180;-44.7170;114.7279;33.4596;0.0000;0.0000;0.0000;-4.4538;-33.5423;-50.5530;1.0000;0.0000;0.0000;0.0000;-0.2804;-0.1313;-0.5089
1.0000;2.8900;289.0000;-0.3474;0.1668;-0.4437;-39.2866;118.3300;29.7433;0.0000;0.0000;0.0000;-4.9758;-32.3386;-50.3157;1.0000;0.0000;0.0000;0.0000;-0.1942;-0.0968;-0.3940
1.0000;2.9000;290.0000;-0.4134;0.1816;-0.5603;-46.3038;123.1906;31.6364;0.0000;0.0000;0.0000;-5.5710;-31.0842;-50.0728;1.0000;0.0000;0.0000;0.0000;-0.1099;-0.1023;-0.2881
1.0000;2.9100;291.0000;-0.4474;0.2324;-0.6672;-48.3068;126.0835;31.6950;0.0000;0.0000;0.0000;-6.1637;-29.7976;-49.8567;1.0000;0.0000;0.0000;0.0000;-0.0568;-0.1430;-0.1917
1.0000;2.9200;292.0000;-0.4607;0.2292;-0.7637;-41.5949;129.6599;27.4727;0.0000;0.0000;0.0000;-6.6512;-28.4784;-49.7101;1.0000;0.0000;0.0000;0.0000;-0.0237;-0.1304;-0.1055
1.0000;2.9300;293.0000;-0.4107;0.2340;-0.8738;-27.9240;136.3776;21.6449;0.0000;0.0000;0.0000;-6.9585;-27.0986;-49.6501;1.0000;0.0000;0.0000;0.0000;-0.0529;-0.1282;-0.0059
1.0000;2.9400;294.0000;-0.2468;0.2662;-0.9914;-17.1207;142.1989;9.9793;0.0000;0.0000;0.0000;-7.0928;-25.6752;-49.7338;1.0000;0.0000;0.0000;0.0000;-0.1949;-0.1561;0.1010
1.0000;2.9500;295.0000;-0.1527;0.2049;-1.0850;-8.0438;143.9553;-8.3277;0.0000;0.0000;0.0000;-7.0527;-24.2409;-50.0200;1.0000;0.0000;0.0000;0.0000;-0.2665;-0.0929;0.1840
1.0000;2.9600;296.0000;-0.0431;0.0340;-1.1392;-0.9105;134.6306;-18.3769;0.0000;0.0000;0.0000;-6.9107;-22.9269;-50.3977;1.0000;0.0000;0.0000;0.0000;-0.3542;0.0773;0.2283
1.0000;2.9700;297.0000;-0.0932;-0.1019;-1.0591;11.3148;126.0462;-8.8457;0.0000;0.0000;0.0000;-6.6998;-21.6859;-50.6543;1.0000;0.0000;0.0000;0.0000;-0.2838;0.2113;0.1394
1.0000;2.9800;298.0000;-0.2563;-0.1773;-1.0364;27.7445;130.9258;15.2995;0.0000;0.0000;0.0000;-6.4226;-20.3679;-50.6520;1.0000;0.0000;0.0000;0.0000;-0.1000;0.2836;0.1081
1.0000;2.9900;299.0000;-0.3856;-0.0466;-1.1191;39.9218;141.9794;44.4869;0.0000;0.0000;0.0000;-6.1254;-18.9081;-50.3474;1.0000;0.0000;0.0000;0.0000;0.0524;0.1491;0.1818
1.0000;3.0000;300.0000;-0.4739;0.2391;-1.2918;46.3415;143.2595;55.2904;0.0000;0.0000;0.0000;-5.7967;-17.4270;-49.9238;1.0000;0.0000;0.0000;0.0000;0.1653;-0.1409;0.3457
1.0000;3.0100;301.0000;-0.5884;0.4525;-1.4254;50.4630;132.0562;40.4610;0.0000;0.0000;0.0000;-5.3749;-16.0732;-49.6376;1.0000;0.0000;0.0000;0.0000;0.3032;-0.3601;0.4714
1.0000;3.0200;302.0000;-0.5569;0.4626;-1.5343;45.8802;112.6639;11.4674;0.0000;0.0000;0.0000;-4.9201;-14.9406;-49.6240;1.0000;0.0000;0.0000;0.0000;0.2922;-0.3770;0.5738
1.0000;3.0300;303.0000;-0.3472;0.2839;-1.5331;35.5620;84.1071;-14.9742;0.0000;0.0000;0.0000;-4.5083;-14.1146;-49.8496;1.0000;0.0000;0.0000;0.0000;0.0987;-0.2053;0.5677
1.0000;3.0400;304.0000;-0.2385;0.0757;-1.3799;21.6138;56.0269;-28.7489;0.0000;0.0000;0.0000;-4.2111;-13.5777;-50.1887;1.0000;0.0000;0.0000;0.0000;0.0005;-0.0026;0.4114
1.0000;3.0500;305.0000;-0.1828;-0.0421;-1.2647;21.8939;61.4631;-26.7983;0.0000;0.0000;0.0000;-3.9132;-12.9788;-50.5103;1.0000;0.0000;0.0000;0.0000;-0.0459;0.1105;0.2936
1.0000;3.0600;306.0000;-0.1819;-0.0357;-1.3567;35.4720;86.9038;-26.0346;0.0000;0.0000;0.0000;-3.4881;-12.1284;-50.8340;1.0000;0.0000;0.0000;0.0000;-0.0341;0.0981;0.3823
1.0000;3.0700;307.0000;-0.2037;-0.0641;-1.5939;57.1885;113.9923;-35.6931;0.0000;0.0000;0.0000;-2.8304;-11.0099;-51.2621;1.0000;0.0000;0.0000;0.0000;0.0052;0.1170;0.6152
1.0000;3.0800;308.0000;-0.2622;-0.1713;-1.9180;74.0987;126.0328;-45.8726;0.0000;0.0000;0.0000;-1.9957;-9.7701;-51.7822;1.0000;0.0000;0.0000;0.0000;0.0845;0.2111;0.9347
1.0000;3.0900;309.0000;-0.3059;-0.2933;-2.1987;81.0320;105.6983;-42.0149;0.0000;0.0000;0.0000;-1.1123;-8.7250;-52.2372;1.0000;0.0000;0.0000;0.0000;0.1480;0.3181;1.2116
1.0000;3.1000;310.0000;-0.3458;-0.3507;-2.3046;72.7168;51.0572;-19.9309;0.0000;0.0000;0.0000;-0.3532;-8.2174;-52.4463;1.0000;0.0000;0.0000;0.0000;0.2005;0.3614;1.3153
1.0000;3.1100;311.0000;-0.3226;-0.2568;-2.1488;52.1504;-15.1092;8.5369;0.0000;0.0000;0.0000;0.1559;-8.3686;-52.3602;1.0000;0.0000;0.0000;0.0000;0.1789;0.2570;1.1592
1.0000;3.1200;312.0000;-0.2298;-0.0604;-1.8055;30.2358;-75.2770;22.9525;0.0000;0.0000;0.0000;0.4238;-9.1226;-52.1324;1.0000;0.0000;0.0000;0.0000;0.0771;0.0545;0.8173
1.0000;3.1300;313.0000;-0.0595;0.0583;-1.2625;18.3344;-113.3577;12.3073;0.0000;0.0000;0.0000;0.5882;-10.2572;-52.0179;1.0000;0.0000;0.0000;0.0000;-0.1111;-0.0674;0.2772
1.0000;3.1400;314.0000;-0.0005;-0.0158;-0.8107;15.8504;-112.4437;-1.7734;0.0000;0.0000;0.0000;0.7527;-11.3813;-52.0493;1.0000;0.0000;0.0000;0.0000;-0.1898;0.0040;-0.1709
1.0000;3.1500;315.0000;-0.0636;-0.1077;-0.4947;21.3327;-85.7462;-2.4182;0.0000;0.0000;0.0000;0.9820;-12.2387;-52.0904;1.0000;0.0000;0.0000;0.0000;-0.1433;0.0926;-0.4836
1.0000;3.1600;316.0000;-0.1629;-0.1344;-0.3750;33.0503;-41.2821;5.9072;0.0000;0.0000;0.0000;1.3011;-12.6527;-52.0380;1.0000;0.0000;0.0000;0.0000;-0.0542;0.1144;-0.6010
1.0000;3.1700;317.0000;-0.2565;-0.0865;-0.5242;38.9661;3.7745;15.8330;0.0000;0.0000;0.0000;1.6550;-12.6190;-51.8747;1.0000;0.0000;0.0000;0.0000;0.0373;0.0606;-0.4512
1.0000;3.1800;318.0000;-0.3059;0.0011;-0.7634;41.2394;21.1665;19.2476;0.0000;0.0000;0.0000;2.0231;-12.4137;-51.6706;1.0000;0.0000;0.0000;0.0000;0.0896;-0.0333;-0.2124
1.0000;3.1900;319.0000;-0.3524;0.0104;-0.9103;37.0820;13.7864;15.2042;0.0000;0.0000;0.0000;2.3596;-12.2817;-51.5098;1.0000;0.0000;0.0000;0.0000;0.1391;-0.0485;-0.0659
1.0000;3.2000;320.0000;-0.3883;-0.0470;-0.9322;29.5409;-4.4990;14.5209;0.0000;0.0000;0.0000;2.6267;-12.3629;-51.3649;1.0000;0.0000;0.0000;0.0000;0.1752;0.0038;-0.0438
1.0000;3.2100;321.0000;-0.3718;-0.0660;-0.8855;21.3849;-21.8074;18.3365;0.0000;0.0000;0.0000;2.8023;-12.5895;-51.1880;1.0000;0.0000;0.0000;0.0000;0.1554;0.0193;-0.0897
1.0000;3.2200;322.0000;-0.2015;-0.0701;-0.8100;14.9022;-28.5357;20.8739;0.0000;0.0000;0.0000;2.9075;-12.8849;-50.9889;1.0000;0.0000;0.0000;0.0000;-0.0196;0.0212;-0.1641
1.0000;3.2300;323.0000;-0.1039;-0.0888;-0.7460;7.0805;-29.0367;18.7063;0.0000;0.0000;0.0000;2.9384;-13.1845;-50.8123;1.0000;0.0000;0.0000;0.0000;-0.1222;0.0390;-0.2269
1.0000;3.2400;324.0000;-0.1060;-0.0147;-0.5851;1.5587;-35.4797;20.7279;0.0000;0.0000;0.0000;2.9092;-13.5494;-50.6182;1.0000;0.0000;0.0000;0.0000;-0.1259;-0.0350;-0.3864
1.0000;3.2500;325.0000;-0.1334;0.0513;-0.4040;-2.3300;-29.4644;19.8664;0.0000;0.0000;0.0000;2.8331;-13.8604;-50.4253;1.0000;0.0000;0.0000;0.0000;-0.1043;-0.0999;-0.5662
1.0000;3.2600;326.0000;-0.2346;0.1471;-0.3018;-2.4670;-9.9221;18.6286;0.0000;0.0000;0.0000;2.7635;-13.9686;-50.2386;1.0000;0.0000;0.0000;0.0000;-0.0064;-0.1943;-0.6676
1.0000;3.2700;327.0000;-0.3145;0.2160;-0.3332;0.9319;17.0308;12.5175;0.0000;0.0000;0.0000;2.7398;-13.8045;-50.1014;1.0000;0.0000;0.0000;0.0000;0.0745;-0.2625;-0.6364
1.0000;3.2800;328.0000;-0.3527;0.1653;-0.5853;3.6887;39.1948;3.1905;0.0000;0.0000;0.0000;2.7644;-13.4145;-50.0493;1.0000;0.0000;0.0000;0.0000;0.1180;-0.2120;-0.3857
1.0000;3.2900;329.0000;-0.3348;0.0341;-0.8663;2.1871;40.9026;-0.7957;0.0000;0.0000;0.0000;2.7834;-13.0056;-50.0371;1.0000;0.0000;0.0000;0.0000;0.1073;-0.0813;-0.1064
1.0000;3.3000;330.0000;-0.2989;-0.0415;-0.9999;-3.0446;17.8635;5.7863;0.0000;0.0000;0.0000;2.7346;-12.8524;-49.9680;1.0000;0.0000;0.0000;0.0000;0.0760;-0.0055;0.0262
1.0000;3.3100;331.0000;-0.2777;0.0143;-0.9030;-5.9028;-9.1494;14.2874;0.0000;0.0000;0.0000;2.6439;-12.9505;-49.8259;1.0000;0.0000;0.0000;0.0000;0.0545;-0.0599;-0.0707
1.0000;3.3200;332.0000;-0.2374;0.1003;-0.7185;-3.1955;-23.6283;16.3410;0.0000;0.0000;0.0000;2.5766;-13.1940;-49.6694;1.0000;0.0000;0.0000;0.0000;0.0108;-0.1444;-0.2545
1.0000;3.3300;333.0000;-0.1090;0.0896;-0.5765;0.5518;-25.1140;13.6352;0.0000;0.0000;0.0000;2.5525;-13.4510;-49.5410;1.0000;0.0000;0.0000;0.0000;-0.1220;-0.1331;-0.3955
1.0000;3.3400;334.0000;0.0156;0.0723;-0.4433;-1.4793;-20.3548;15.4836;0.0000;0.0000;0.0000;2.5025;-13.6612;-49.3911;1.0000;0.0000;0.0000;0.0000;-0.2505;-0.1152;-0.5277
1.0000;3.3500;335.0000;0.0140;0.1104;-0.3348;-9.3057;-7.3943;17.0796;0.0000;0.0000;0.0000;2.3560;-13.7353;-49.2116;1.0000;0.0000;0.0000;0.0000;-0.2512;-0.1514;-0.6358
1.0000;3.3600;336.0000;-0.0014;0.1213;-0.2750;-10.5761;16.9553;12.9725;0.0000;0.0000;0.0000;2.2170;-13.5711;-49.0713;1.0000;0.0000;0.0000;0.0000;-0.2347;-0.1597;-0.6960
1.0000;3.3700;337.0000;-0.0217;0.0667;-0.3932;-8.5724;46.4692;7.0137;0.0000;0.0000;0.0000;2.1105;-13.1094;-48.9813;1.0000;0.0000;0.0000;0.0000;-0.2083;-0.1032;-0.5793
1.0000;3.3800;338.0000;-0.0166;-0.0277;-0.5959;-6.2387;78.4971;6.7328;0.0000;0.0000;0.0000;2.0265;-12.3273;-48.8833;1.0000;0.0000;0.0000;0.0000;-0.2021;-0.0073;-0.3793
1.0000;3.3900;339.0000;-0.0551;-0.0587;-0.7886;-7.9514;87.5717;13.5804;0.0000;0.0000;0.0000;1.9122;-11.4568;-48.7138;1.0000;0.0000;0.0000;0.0000;-0.1492;0.0253;-0.1897
1.0000;3.4000;340.0000;-0.1015;0.0034;-0.9291;-8.6228;87.9219;17.4600;0.0000;0.0000;0.0000;1.7822;-10.5773;-48.5048;1.0000;0.0000;0.0000;0.0000;-0.0877;-0.0347;-0.0524
1.0000;3.4100;341.0000;-0.0859;-0.0059;-1.0438;-5.3727;88.1127;11.2453;0.0000;0.0000;0.0000;1.7034;-9.7000;-48.3634;1.0000;0.0000;0.0000;0.0000;-0.0883;-0.0238;0.0595
1.0000;3.4200;342.0000;-0.0913;-0.0962;-1.1380;-5.7653;87.2937;9.4731;0.0000;0.0000;0.0000;1.6263;-8.8302;-48.2417;1.0000;0.0000;0.0000;0.0000;-0.0678;0.0676;0.1511
1.0000;3.4300;343.0000;-0.1535;-0.0971;-1.2205;-5.7602;87.0785;18.7100;0.0000;0.0000;0.0000;1.5376;-7.9649;-48.0283;1.0000;0.0000;0.0000;0.0000;0.0093;0.0700;0.2313
1.0000;3.4400;344.0000;-0.1850;0.0090;-1.3344;-4.1993;91.0565;25.7200;0.0000;0.0000;0.0000;1.4586;-7.0613;-47.7450;1.0000;0.0000;0.0000;0.0000;0.0561;-0.0348;0.3431
1.0000;3.4500;345.0000;-0.1899;0.1116;-1.5449;-0.8031;98.9004;18.3337;0.0000;0.0000;0.0000;1.4240;-6.0776;-47.5347;1.0000;0.0000;0.0000;0.0000;0.0775;-0.1364;0.5516
1.0000;3.4600;346.0000;-0.1910;0.0662;-1.8198;8.3981;107.0826;-7.6687;0.0000;0.0000;0.0000;1.5124;-5.0051;-47.5843;1.0000;0.0000;0.0000;0.0000;0.0967;-0.0918;0.8246
1.0000;3.4700;347.0000;-0.1650;-0.1411;-2.1295;18.8494;102.7044;-26.1873;0.0000;0.0000;0.0000;1.7190;-3.9711;-47.8180;1.0000;0.0000;0.0000;0.0000;0.0892;0.1127;1.1328
1.0000;3.4800;348.0000;-0.1920;-0.2984;-2.3418;24.7650;73.7933;-24.1332;0.0000;0.0000;0.0000;1.9803;-3.2258;-48.0359;1.0000;0.0000;0.0000;0.0000;0.1314;0.2656;1.3442
1.0000;3.4900;349.0000;-0.1486;-0.3442;-2.4064;24.1882;25.8765;-11.6717;0.0000;0.0000;0.0000;2.2279;-2.9630;-48.1434;1.0000;0.0000;0.0000;0.0000;0.0959;0.3070;1.4085
1.0000;3.5000;350.0000;-0.0670;-0.3085;-2.2400;20.1351;-26.8271;-1.3239;0.0000;0.0000;0.0000;2.4315;-3.2301;-48.1680;1.0000;0.0000;0.0000;0.0000;0.0131;0.2674;1.2423
1.0000;3.5100;351.0000;-0.0212;-0.2233;-1.8512;17.5301;-66.0040;3.3733;0.0000;0.0000;0.0000;2.6065;-3.8910;-48.1634;1.0000;0.0000;0.0000;0.0000;-0.0420;0.1790;0.8541
1.0000;3.5200;352.0000;0.0364;-0.1699;-1.4345;21.0476;-77.5066;2.3722;0.0000;0.0000;0.0000;2.8180;-4.6663;-48.1763;1.0000;0.0000;0.0000;0.0000;-0.1127;0.1223;0.4386
1.0000;3.5300;353.0000;0.0422;-0.1900;-1.1414;25.5622;-68.5039;4.2255;0.0000;0.0000;0.0000;3.0729;-5.3526;-48.1692;1.0000;0.0000;0.0000;0.0000;-0.1312;0.1383;0.1467
1.0000;3.5400;354.0000;-0.0375;-0.1411;-0.9590;27.8306;-54.9889;15.1190;0.0000;0.0000;0.0000;3.3393;-5.9102;-48.0484;1.0000;0.0000;0.0000;0.0000;-0.0620;0.0849;-0.0345
1.0000;3.5500;355.0000;-0.1007;0.0061;-0.9356;28.4866;-36.3113;20.1260;0.0000;0.0000;0.0000;3.5923;-6.2860;-47.8637;1.0000;0.0000;0.0000;0.0000;-0.0065;-0.0668;-0.0568
1.0000;3.5600;356.0000;-0.1032;0.0715;-0.9746;27.5955;-31.3861;11.1129;0.0000;0.0000;0.0000;3.8581;-6.6064;-47.7726;1.0000;0.0000;0.0000;0.0000;-0.0097;-0.1367;-0.0169
1.0000;3.5700;357.0000;-0.0653;0.0117;-0.9434;23.6696;-37.5884;-1.0216;0.0000;0.0000;0.0000;4.0991;-6.9806;-47.8092;1.0000;0.0000;0.0000;0.0000;-0.0536;-0.0811;-0.0470
1.0000;3.5800;358.0000;-0.0395;-0.1036;-0.8230;19.1354;-45.9974;-4.2851;0.0000;0.0000;0.0000;4.3001;-7.4362;-47.8863;1.0000;0.0000;0.0000;0.0000;-0.0869;0.0304;-0.1662
1.0000;3.5900;359.0000;-0.0639;-0.0925;-0.6465;12.4057;-49.5658;5.0648;0.0000;0.0000;0.0000;4.4224;-7.9343;-47.8734;1.0000;0.0000;0.0000;0.0000;-0.0710;0.0168;-0.3415
1.0000;3.6000;360.0000;-0.1354;0.0220;-0.5221;9.1207;-37.9708;9.0040;0.0000;0.0000;0.0000;4.4957;-8.3267;-47.8093;1.0000;0.0000;0.0000;0.0000;-0.0071;-0.0991;-0.4647
1.0000;3.6100;361.0000;-0.0956;0.0468;-0.5312;9.8001;-18.6730;1.3311;0.0000;0.0000;0.0000;4.5940;-8.5138;-47.8108;1.0000;0.0000;0.0000;0.0000;-0.0515;-0.1253;-0.4548
1.0000;3.6200;362.0000;-0.0001;-0.0583;-0.5314;10.5810;-10.2305;-6.9785;0.0000;0.0000;0.0000;4.7115;-8.6101;-47.8895;1.0000;0.0000;0.0000;0.0000;-0.1490;-0.0221;-0.4541
1.0000;3.6300;363.0000;0.0589;-0.1418;-0.3521;7.5662;-10.8103;-1.5587;0.0000;0.0000;0.0000;4.7909;-8.7166;-47.9143;1.0000;0.0000;0.0000;0.0000;-0.2098;0.0596;-0.6330
1.0000;3.6400;364.0000;0.0441;-0.1041;-0.0408;-0.1178;0.5709;10.6564;0.0000;0.0000;0.0000;4.7733;-8.7198;-47.8064;1.0000;0.0000;0.0000;0.0000;-0.1959;0.0215;-0.9441
1.0000;3.6500;365.0000;-0.2450;0.0881;0.1891;-8.6391;34.5968;23.6737;0.0000;0.0000;0.0000;4.6352;-8.4255;-47.5368;1.0000;0.0000;0.0000;0.0000;0.0961;-0.1690;-1.1747
1.0000;3.6600;366.0000;-0.5956;0.2966;0.0068;-3.7641;92.0227;24.2036;0.0000;0.0000;0.0000;4.5532;-7.5276;-47.2189;1.0000;0.0000;0.0000;0.0000;0.4580;-0.3756;-0.9941
1.0000;3.6700;367.0000;-0.7011;0.4031;-0.6554;3.1705;128.4542;11.3714;0.0000;0.0000;0.0000;4.5585;-6.2561;-47.0019;1.0000;0.0000;0.0000;0.0000;0.5837;-0.4820;-0.3345
1.0000;3.6800;368.0000;-0.5021;0.3024;-1.2974;-8.9390;99.1742;-12.3445;0.0000;0.0000;0.0000;4.4732;-5.2577;-47.0468;1.0000;0.0000;0.0000;0.0000;0.4048;-0.3809;0.3052
1.0000;3.6900;369.0000;-0.1719;0.0630;-1.2568;-39.4835;14.1474;-30.8747;0.0000;0.0000;0.0000;4.1048;-5.0935;-47.3447;1.0000;0.0000;0.0000;0.0000;0.0833;-0.1372;0.2635
1.0000;3.7000;370.0000;0.0732;-0.1811;-0.5536;-65.4192;-50.0245;-29.5464;0.0000;0.0000;0.0000;3.4956;-5.5626;-47.6787;1.0000;0.0000;0.0000;0.0000;-0.1668;0.1164;-0.4399
1.0000;3.7100;371.0000;0.1593;-0.2704;0.1782;-62.1051;-39.3263;-10.4042;0.0000;0.0000;0.0000;2.8872;-5.9493;-47.8053;1.0000;0.0000;0.0000;0.0000;-0.2609;0.2164;-1.1715
1.0000;3.7200;372.0000;0.1072;-0.1513;0.1576;-38.9373;65.0236;17.1761;0.0000;0.0000;0.0000;2.4779;-5.3076;-47.6030;1.0000;0.0000;0.0000;0.0000;-0.2051;0.1059;-1.1517
1.0000;3.7300;373.0000;0.0674;0.0657;-0.3832;-26.4209;136.5954;28.4537;0.0000;0.0000;0.0000;2.1860;-3.9543;-47.2623;1.0000;0.0000;0.0000;0.0000;-0.1459;-0.1056;-0.6129
1.0000;3.7400;374.0000;0.0473;0.1967;-1.0789;-26.8227;157.3806;18.0992;0.0000;0.0000;0.0000;1.9042;-2.3881;-47.0246;1.0000;0.0000;0.0000;0.0000;-0.0991;-0.2318;0.0808
1.0000;3.7500;375.0000;0.0010;0.1350;-1.5336;-35.2466;127.9180;-2.6016;0.0000;0.0000;0.0000;1.5492;-1.1086;-47.0111;1.0000;0.0000;0.0000;0.0000;-0.0282;-0.1645;0.5344
1.0000;3.7600;376.0000;-0.0074;-0.0311;-1.6962;-40.9110;82.6941;-15.2798;0.0000;0.0000;0.0000;1.1415;-0.2783;-47.1442;1.0000;0.0000;0.0000;0.0000;-0.0023;0.0085;0.6965
1.0000;3.7700;377.0000;0.0611;-0.1765;-1.7163;-38.1124;47.9743;-14.2534;0.0000;0.0000;0.0000;0.7605;0.2038;-47.2787;1.0000;0.0000;0.0000;0.0000;-0.0603;0.1609;0.7164
1.0000;3.7800;378.0000;0.1383;-0.2103;-1.7086;-24.1306;29.0061;-4.4462;0.0000;0.0000;0.0000;0.5190;0.4943;-47.3199;1.0000;0.0000;0.0000;0.0000;-0.1315;0.1999;0.7087
1.0000;3.7900;379.0000;0.2297;-0.1822;-1.7905;-6.7035;26.8219;2.4369;0.0000;0.0000;0.0000;0.4522;0.7623;-47.2933;1.0000;0.0000;0.0000;0.0000;-0.2182;0.1742;0.7906
1.0000;3.8000;380.0000;0.3294;-0.1931;-1.9577;10.1134;28.1416;4.2240;0.0000;0.0000;0.0000;0.5553;1.0453;-47.2489;1.0000;0.0000;0.0000;0.0000;-0.3129;0.1844;0.9579
1.0000;3.8100;381.0000;0.3154;-0.2077;-2.1042;22.4446;19.3097;8.5363;0.0000;0.0000;0.0000;0.7815;1.2374;-47.1613;1.0000;0.0000;0.0000;0.0000;-0.2948;0.1956;1.1045
1.0000;3.8200;382.0000;0.2037;-0.1574;-2.1633;27.6199;0.3169;13.5863;0.0000;0.0000;0.0000;1.0607;1.2384;-47.0255;1.0000;0.0000;0.0000;0.0000;-0.1818;0.1409;1.1637
1.0000;3.8300;383.0000;0.1292;-0.1106;-2.1109;32.5469;-22.4542;14.7449;0.0000;0.0000;0.0000;1.3890;1.0108;-46.8829;1.0000;0.0000;0.0000;0.0000;-0.1098;0.0886;1.1114
1.0000;3.8400;384.0000;0.0307;-0.0842;-1.9644;38.0091;-42.1048;16.3538;0.0000;0.0000;0.0000;1.7712;0.5854;-46.7311;1.0000;0.0000;0.0000;0.0000;-0.0175;0.0559;0.9649
1.0000;3.8500;385.0000;-0.0226;-0.0423;-1.8190;46.7250;-54.8507;16.6218;0.0000;0.0000;0.0000;2.2389;0.0311;-46.5840;1.0000;0.0000;0.0000;0.0000;0.0270;0.0064;0.8197
1.0000;3.8600;386.0000;-0.0388;-0.0432;-1.7122;54.1000;-67.9939;14.9242;0.0000;0.0000;0.0000;2.7792;-0.6547;-46.4648;1.0000;0.0000;0.0000;0.0000;0.0321;-0.0017;0.7132
1.0000;3.8700;387.0000;-0.0131;-0.0847;-1.5701;53.2173;-89.0466;18.0291;0.0000;0.0000;0.0000;3.3088;-1.5536;-46.3323;1.0000;0.0000;0.0000;0.0000;-0.0078;0.0303;0.5718
1.0000;3.8800;388.0000;-0.0016;0.0242;-1.1839;44.3494;-115.8773;26.3259;0.0000;0.0000;0.0000;3.7452;-2.7264;-46.1409;1.0000;0.0000;0.0000;0.0000;-0.0381;-0.0867;0.1866
1.0000;3.8900;389.0000;0.0129;0.1483;-0.7373;29.2652;-131.4234;22.1800;0.0000;0.0000;0.0000;4.0302;-4.0526;-46.0086;1.0000;0.0000;0.0000;0.0000;-0.0750;-0.2166;-0.2584
1.0000;3.9000;390.0000;0.0114;0.1209;-0.3836;21.5875;-122.6688;11.3527;0.0000;0.0000;0.0000;4.2363;-5.2831;-45.9806;1.0000;0.0000;0.0000;0.0000;-0.0957;-0.1933;-0.6102
1.0000;3.9100;391.0000;-0.0011;0.0182;-0.1213;20.8229;-95.4899;3.7204;0.0000;0.0000;0.0000;4.4481;-6.2381;-46.0159;1.0000;0.0000;0.0000;0.0000;-0.1019;-0.0940;-0.8705
1.0000;3.9200;392.0000;-0.0385;-0.0430;0.0053;22.4032;-60.3748;5.3050;0.0000;0.0000;0.0000;4.6715;-6.8442;-46.0109;1.0000;0.0000;0.0000;0.0000;-0.0772;-0.0364;-0.9954
1.0000;3.9300;393.0000;-0.1413;-0.0012;0.0431;19.6641;-30.2049;14.3912;0.0000;0.0000;0.0000;4.8535;-7.1572;-45.8916;1.0000;0.0000;0.0000;0.0000;0.0185;-0.0817;-1.0321
1.0000;3.9400;394.0000;-0.2027;0.1422;0.0369;11.4767;-6.3954;17.6945;0.0000;0.0000;0.0000;4.9467;-7.2360;-45.7194;1.0000;0.0000;0.0000;0.0000;0.0769;-0.2273;-1.0253
1.0000;3.9500;395.0000;-0.2027;0.1860;-0.0071;2.3101;14.1813;4.0500;0.0000;0.0000;0.0000;4.9467;-7.1200;-45.6620;1.0000;0.0000;0.0000;0.0000;0.0779;-0.2718;-0.9813
1.0000;3.9600;396.0000;-0.2553;0.0528;-0.0519;-8.5905;30.4338;-7.8219;0.0000;0.0000;0.0000;4.8672;-6.8100;-45.7142;1.0000;0.0000;0.0000;0.0000;0.1345;-0.1377;-0.9371
1.0000;3.9700;397.0000;-0.2706;-0.0232;-0.1200;-21.3331;45.6190;-2.5522;0.0000;0.0000;0.0000;4.6525;-6.3533;-45.7017;1.0000;0.0000;0.0000;0.0000;0.1567;-0.0590;-0.8701
1.0000;3.9800;398.0000;-0.2122;0.0294;-0.2264;-33.0846;56.1355;5.5728;0.0000;0.0000;0.0000;4.3111;-5.7980;-45.6016;1.0000;0.0000;0.0000;0.0000;0.1076;-0.1065;-0.7651
1.0000;3.9900;399.0000;-0.0994;0.1011;-0.2532;-43.1644;56.5929;5.9990;0.0000;0.0000;0.0000;3.8697;-5.2378;-45.5009;1.0000;0.0000;0.0000;0.0000;0.0045;-0.1713;-0.7398
1.0000;4.0000;400.0000;-0.0572;0.1302;-0.1947;-50.7111;63.5829;-0.5809;0.0000;0.0000;0.0000;3.3476;-4.6051;-45.4620;1.0000;0.0000;0.0000;0.0000;-0.0274;-0.1919;-0.7998
1.0000;4.0100;401.0000;-0.0187;0.0865;-0.2431;-49.2668;91.0250;-9.6021;0.0000;0.0000;0.0000;2.8582;-3.6910;-45.5091;1.0000;0.0000;0.0000;0.0000;-0.0521;-0.1394;-0.7530
1.0000;4.0200;402.0000;-0.0565;0.0333;-0.5341;-43.2433;122.1926;-13.6831;0.0000;0.0000;0.0000;2.4301;-2.4641;-45.5897;1.0000;0.0000;0.0000;0.0000;0.0052;-0.0784;-0.4636
1.0000;4.0300;403.0000;-0.0954;0.0346;-0.9559;-39.1510;137.3732;-13.8342;0.0000;0.0000;0.0000;2.0412;-1.0860;-45.6747;1.0000;0.0000;0.0000;0.0000;0.0673;-0.0726;-0.0430
1.0000;4.0400;404.0000;-0.0738;0.0091;-1.3939;-34.0299;133.7830;-18.0690;0.0000;0.0000;0.0000;1.7018;0.2570;-45.8116;1.0000;0.0000;0.0000;0.0000;0.0697;-0.0410;0.3944
1.0000;4.0500;405.0000;0.0774;-0.1048;-1.7519;-34.1710;109.2840;-20.8760;0.0000;0.0000;0.0000;1.3584;1.3558;-45.9911;1.0000;0.0000;0.0000;0.0000;-0.0606;0.0788;0.7524
1.0000;4.0600;406.0000;0.2114;-0.1598;-1.7713;-38.7363;59.1767;-15.6012;0.0000;0.0000;0.0000;0.9668;1.9506;-46.1349;1.0000;0.0000;0.0000;0.0000;-0.1807;0.1403;0.7720
1.0000;4.0700;407.0000;0.3371;-0.1709;-1.6515;-34.3174;38.2287;-11.0025;0.0000;0.0000;0.0000;0.6197;2.3344;-46.2397;1.0000;0.0000;0.0000;0.0000;-0.2988;0.1580;0.6523
1.0000;4.0800;408.0000;0.3398;-0.2014;-1.6185;-22.5470;42.5840;-6.2129;0.0000;0.0000;0.0000;0.3917;2.7608;-46.2983;1.0000;0.0000;0.0000;0.0000;-0.2946;0.1933;0.6195
1.0000;4.0900;409.0000;0.2822;-0.2052;-1.7749;-5.6871;57.9095;3.6834;0.0000;0.0000;0.0000;0.3371;3.3397;-46.2578;1.0000;0.0000;0.0000;0.0000;-0.2279;0.1992;0.7764
1.0000;4.1000;410.0000;0.2671;-0.1503;-2.0946;9.3422;67.2377;11.0816;0.0000;0.0000;0.0000;0.4384;4.0118;-46.1424;1.0000;0.0000;0.0000;0.0000;-0.2015;0.1435;1.0968
1.0000;4.1100;411.0000;0.2181;-0.0646;-2.3700;17.4459;49.3991;13.6595;0.0000;0.0000;0.0000;0.6234;4.5045;-46.0009;1.0000;0.0000;0.0000;0.0000;-0.1423;0.0550;1.3730
1.0000;4.1200;412.0000;0.1751;-0.0060;-2.4674;18.3905;9.4908;11.6375;0.0000;0.0000;0.0000;0.8167;4.5980;-45.8831;1.0000;0.0000;0.0000;0.0000;-0.0949;-0.0070;1.4707
1.0000;4.1300;413.0000;0.2134;-0.0476;-2.3772;17.6005;-37.1559;7.6674;0.0000;0.0000;0.0000;0.9983;4.2252;-45.8122;1.0000;0.0000;0.0000;0.0000;-0.1367;0.0313;1.3803
1.0000;4.1400;414.0000;0.3141;-0.1640;-2.0859;19.2594;-78.6864;6.5100;0.0000;0.0000;0.0000;1.1942;3.4373;-45.7622;1.0000;0.0000;0.0000;0.0000;-0.2485;0.1445;1.0883
1.0000;4.1500;415.0000;0.2775;-0.2055;-1.5907;28.5255;-109.0144;16.3635;0.0000;0.0000;0.0000;1.4895;2.3480;-45.6240;1.0000;0.0000;0.0000;0.0000;-0.2293;0.1816;0.5922
1.0000;4.1600;416.0000;0.1480;-0.0898;-1.1888;39.9030;-108.9447;26.8471;0.0000;0.0000;0.0000;1.8958;1.2511;-45.3875;1.0000;0.0000;0.0000;0.0000;-0.1191;0.0595;0.1897
1.0000;4.1700;417.0000;-0.0180;0.0366;-0.9394;48.5552;-99.4976;29.8449;0.0000;0.0000;0.0000;2.3848;0.2457;-45.1262;1.0000;0.0000;0.0000;0.0000;0.0287;-0.0749;-0.0598
1.0000;4.1800;418.0000;-0.0637;0.1101;-0.8083;52.4720;-94.7634;25.5305;0.0000;0.0000;0.0000;2.9088;-0.7127;-44.9150;1.0000;0.0000;0.0000;0.0000;0.0575;-0.1575;-0.1906
1.0000;4.1900;419.0000;-0.0872;0.0987;-0.6267;41.5800;-106.9480;19.2905;0.0000;0.0000;0.0000;3.3218;-1.7910;-44.7808;1.0000;0.0000;0.0000;0.0000;0.0633;-0.1541;-0.3714
1.0000;4.2000;420.0000;-0.0691;0.0815;-0.2753;23.5230;-124.8730;16.8853;0.0000;0.0000;0.0000;3.5425;-3.0545;-44.6846;1.0000;0.0000;0.0000;0.0000;0.0243;-0.1421;-0.7218
1.0000;4.2100;421.0000;-0.0871;0.1247;0.2067;6.0015;-127.5772;15.8429;0.0000;0.0000;0.0000;3.5974;-4.3377;-44.6060;1.0000;0.0000;0.0000;0.0000;0.0197;-0.1872;-1.2024
1.0000;4.2200;422.0000;-0.2021;0.1838;0.6213;-5.2427;-97.9741;7.1075;0.0000;0.0000;0.0000;3.5443;-5.3200;-44.5962;1.0000;0.0000;0.0000;0.0000;0.1153;-0.2458;-1.6156
1.0000;4.2300;423.0000;-0.2861;0.1189;0.6295;-6.8749;-19.1556;-6.5726;0.0000;0.0000;0.0000;3.4830;-5.5071;-44.6739;1.0000;0.0000;0.0000;0.0000;0.1903;-0.1797;-1.6230
1.0000;4.2400;424.0000;-0.2801;-0.0435;0.2821;-8.9953;37.3030;-8.6809;0.0000;0.0000;0.0000;3.3991;-5.1296;-44.7385;1.0000;0.0000;0.0000;0.0000;0.1877;-0.0162;-1.2760
1.0000;4.2500;425.0000;-0.2848;-0.0625;-0.1099;-20.3449;53.7726;2.7991;0.0000;0.0000;0.0000;3.1916;-4.6158;-44.6832;1.0000;0.0000;0.0000;0.0000;0.2011;0.0055;-0.8850
1.0000;4.2600;426.0000;-0.2510;0.0810;-0.2780;-36.3645;41.1259;10.8082;0.0000;0.0000;0.0000;2.8180;-4.2108;-44.5531;1.0000;0.0000;0.0000;0.0000;0.1751;-0.1327;-0.7178
1.0000;4.2700;427.0000;-0.2173;0.2009;-0.2296;-50.9773;30.4368;6.0838;0.0000;0.0000;0.0000;2.3029;-3.9095;-44.4785;1.0000;0.0000;0.0000;0.0000;0.1471;-0.2445;-0.7670
1.0000;4.2800;428.0000;-0.1557;0.1865;-0.2346;-58.3832;43.4915;-5.9561;0.0000;0.0000;0.0000;1.7219;-3.4729;-44.5230;1.0000;0.0000;0.0000;0.0000;0.0920;-0.2204;-0.7627
1.0000;4.2900;429.0000;-0.0812;0.1282;-0.4606;-59.9273;67.3041;-12.9711;0.0000;0.0000;0.0000;1.1288;-2.7968;-44.6363;1.0000;0.0000;0.0000;0.0000;0.0277;-0.1517;-0.5377
1.0000;4.3000;430.0000;-0.0157;0.1154;-0.7921;-60.5603;81.8851;-15.4338;0.0000;0.0000;0.0000;0.5215;-1.9707;-44.7754;1.0000;0.0000;0.0000;0.0000;-0.0243;-0.1284;-0.2070
1.0000;4.3100;431.0000;0.1000;0.0783;-1.1474;-53.6675;88.0569;-23.4250;0.0000;0.0000;0.0000;-0.0091;-1.0892;-45.0058;1.0000;0.0000;0.0000;0.0000;-0.1248;-0.0815;0.1477
1.0000;4.3200;432.0000;0.1514;-0.0329;-1.4532;-44.4405;82.6333;-28.1167;0.0000;0.0000;0.0000;-0.4502;-0.2640;-45.2904;1.0000;0.0000;0.0000;0.0000;-0.1613;0.0380;0.4533
1.0000;4.3300;433.0000;0.1709;-0.1093;-1.6926;-37.5037;72.4192;-21.7598;0.0000;0.0000;0.0000;-0.8256;0.4577;-45.5160;1.0000;0.0000;0.0000;0.0000;-0.1675;0.1213;0.6927
1.0000;4.3400;434.0000;0.1712;-0.0611;-1.8796;-30.4908;56.6332;-11.8648;0.0000;0.0000;0.0000;-1.1321;1.0220;-45.6443;1.0000;0.0000;0.0000;0.0000;-0.1568;0.0790;0.8798
1.0000;4.3500;435.0000;0.2128;0.0117;-2.0222;-24.2110;38.4855;-8.9707;0.0000;0.0000;0.0000;-1.3761;1.4061;-45.7422;1.0000;0.0000;0.0000;0.0000;-0.1905;0.0108;1.0227
1.0000;4.3600;436.0000;0.3547;0.0045;-2.0672;-15.2421;18.6403;-14.8267;0.0000;0.0000;0.0000;-1.5326;1.5886;-45.8952;1.0000;0.0000;0.0000;0.0000;-0.3279;0.0213;1.0679
1.0000;4.3700;437.0000;0.4713;-0.1677;-2.0244;-4.8846;5.2331;-21.2187;0.0000;0.0000;0.0000;-1.5875;1.6351;-46.1088;1.0000;0.0000;0.0000;0.0000;-0.4429;0.1952;1.0252
1.0000;4.3800;438.0000;0.3194;-0.2987;-1.9909;10.4062;5.1489;-9.3500;0.0000;0.0000;0.0000;-1.4862;1.6841;-46.2037;1.0000;0.0000;0.0000;0.0000;-0.2904;0.3256;0.9917
1.0000;4.3900;439.0000;0.1775;-0.1461;-2.2060;31.2409;11.7807;10.6322;0.0000;0.0000;0.0000;-1.1706;1.8042;-46.1001;1.0000;0.0000;0.0000;0.0000;-0.1468;0.1688;1.2067
1.0000;4.4000;440.0000;0.1089;-0.0092;-2.4425;44.3208;-14.6331;14.1680;0.0000;0.0000;0.0000;-0.7229;1.6603;-45.9563;1.0000;0.0000;0.0000;0.0000;-0.0783;0.0248;1.4431
1.0000;4.4100;441.0000;0.0983;0.0205;-2.3820;39.5503;-80.1887;14.2585;0.0000;0.0000;0.0000;-0.3239;0.8597;-45.8069;1.0000;0.0000;0.0000;0.0000;-0.0771;-0.0124;1.3823
1.0000;4.4200;442.0000;0.2695;-0.0058;-1.8732;28.3628;-143.5201;13.8238;0.0000;0.0000;0.0000;-0.0398;-0.5751;-45.6645;1.0000;0.0000;0.0000;0.0000;-0.2695;0.0082;0.8733
1.0000;4.4300;443.0000;0.3268;-0.0344;-1.0986;23.3544;-172.4572;17.8488;0.0000;0.0000;0.0000;0.1891;-2.2999;-45.4882;1.0000;0.0000;0.0000;0.0000;-0.3556;0.0326;0.0991
1.0000;4.4400;444.0000;0.1139;0.0361;-0.4675;33.7451;-144.0488;23.3762;0.0000;0.0000;0.0000;0.5145;-3.7417;-45.2623;1.0000;0.0000;0.0000;0.0000;-0.1705;-0.0426;-0.5308
1.0000;4.4500;445.0000;-0.2322;0.1497;-0.3485;55.9746;-75.6589;23.1755;0.0000;0.0000;0.0000;1.0442;-4.5224;-45.0377;1.0000;0.0000;0.0000;0.0000;0.1577;-0.1643;-0.6486
1.0000;4.4600;446.0000;-0.3976;0.2169;-0.7354;68.1115;-31.5454;19.9072;0.0000;0.0000;0.0000;1.7096;-4.8425;-44.8454;1.0000;0.0000;0.0000;0.0000;0.3151;-0.2423;-0.2609
1.0000;4.4700;447.0000;-0.3740;0.2011;-1.0833;55.1453;-53.5599;11.6692;0.0000;0.0000;0.0000;2.2525;-5.3818;-44.7475;1.0000;0.0000;0.0000;0.0000;0.2844;-0.2370;0.0879
1.0000;4.4800;448.0000;-0.2442;0.0884;-0.7750;29.0563;-117.8362;1.2737;0.0000;0.0000;0.0000;2.5471;-6.5596;-44.7852;1.0000;0.0000;0.0000;0.0000;0.1387;-0.1311;-0.2185
1.0000;4.4900;449.0000;-0.1198;0.0377;0.1328;-0.7397;-169.7973;-2.8940;0.0000;0.0000;0.0000;2.5533;-8.2545;-44.8909;1.0000;0.0000;0.0000;0.0000;-0.0127;-0.0820;-1.1230
1.0000;4.5000;450.0000;-0.1892;0.0307;0.8416;-15.6179;-147.2130;-2.4281;0.0000;0.0000;0.0000;2.4121;-9.7501;-44.9859;1.0000;0.0000;0.0000;0.0000;0.0290;-0.0732;-1.8277
1.0000;4.5100;451.0000;-0.2671;0.0073;1.1461;-15.6659;-65.0994;-3.2094;0.0000;0.0000;0.0000;2.2660;-10.3992;-45.0457;1.0000;0.0000;0.0000;0.0000;0.0894;-0.0471;-2.1294
1.0000;4.5200;452.0000;-0.2864;-0.0947;0.8071;-8.1260;35.7797;-1.4999;0.0000;0.0000;0.0000;2.1850;-10.0411;-45.0469;1.0000;0.0000;0.0000;0.0000;0.1086;0.0567;-1.7905
1.0000;4.5300;453.0000;-0.2901;-0.0666;0.0930;-7.6080;85.1180;12.1123;0.0000;0.0000;0.0000;2.0832;-9.1950;-44.8919;1.0000;0.0000;0.0000;0.0000;0.1247;0.0299;-1.0786
1.0000;4.5400;454.0000;-0.2468;0.1489;-0.3643;-26.0690;72.7571;19.5772;0.0000;0.0000;0.0000;1.7882;-8.4746;-44.6686;1.0000;0.0000;0.0000;0.0000;0.0952;-0.1819;-0.6236
1.0000;4.5500;455.0000;-0.1548;0.2797;-0.4199;-51.0218;43.5829;4.7519;0.0000;0.0000;0.0000;1.2460;-8.0470;-44.5978;1.0000;0.0000;0.0000;0.0000;0.0123;-0.3051;-0.5696
1.0000;4.5600;456.0000;-0.0846;0.1265;-0.3803;-62.3693;39.4643;-16.3668;0.0000;0.0000;0.0000;0.6439;-7.6499;-44.7564;1.0000;0.0000;0.0000;0.0000;-0.0512;-0.1415;-0.6103
1.0000;4.5700;457.0000;0.0142;-0.0981;-0.5961;-57.8896;76.8317;-21.6683;0.0000;0.0000;0.0000;0.0923;-6.8802;-44.9704;1.0000;0.0000;0.0000;0.0000;-0.1396;0.0932;-0.3960
1.0000;4.5800;458.0000;0.0496;-0.1520;-1.0813;-42.4396;112.2662;-7.7378;0.0000;0.0000;0.0000;-0.3230;-5.7576;-45.0509;1.0000;0.0000;0.0000;0.0000;-0.1575;0.1551;0.0872
1.0000;4.5900;459.0000;0.0970;-0.0434;-1.5567;-31.5619;117.6933;2.8150;0.0000;0.0000;0.0000;-0.6402;-4.5804;-45.0327;1.0000;0.0000;0.0000;0.0000;-0.1844;0.0526;0.5606
1.0000;4.6000;460.0000;0.1280;0.0136;-1.8701;-24.5395;100.0808;-1.8183;0.0000;0.0000;0.0000;-0.8834;-3.5779;-45.0639;1.0000;0.0000;0.0000;0.0000;-0.1967;0.0003;0.8726
1.0000;4.6100;461.0000;0.1365;-0.0742;-2.0279;-15.0249;79.7014;-11.8871;0.0000;0.0000;0.0000;-1.0264;-2.7830;-45.1963;1.0000;0.0000;0.0000;0.0000;-0.1900;0.0913;1.0295
1.0000;4.6200;462.0000;0.1174;-0.2049;-2.1202;-4.3853;63.9825;-8.1778;0.0000;0.0000;0.0000;-1.0661;-2.1448;-45.2900;1.0000;0.0000;0.0000;0.0000;-0.1588;0.2234;1.1212
1.0000;4.6300;463.0000;0.0634;-0.1354;-2.1812;7.6271;48.6879;8.3990;0.0000;0.0000;0.0000;-0.9922;-1.6565;-45.2148;1.0000;0.0000;0.0000;0.0000;-0.0953;0.1533;1.1819
1.0000;4.6400;464.0000;0.0709;0.0740;-2.2099;13.2551;29.0937;17.2862;0.0000;0.0000;0.0000;-0.8640;-1.3628;-45.0466;1.0000;0.0000;0.0000;0.0000;-0.0964;-0.0580;1.2103
1.0000;4.6500;465.0000;0.1500;0.1225;-2.1808;15.1509;8.8585;5.3525;0.0000;0.0000;0.0000;-0.7142;-1.2722;-44.9939;1.0000;0.0000;0.0000;0.0000;-0.1725;-0.1091;1.1811
1.0000;4.6600;466.0000;0.2041;-0.0943;-2.0612;19.3764;-10.5381;-11.4471;0.0000;0.0000;0.0000;-0.5178;-1.3788;-45.1073;1.0000;0.0000;0.0000;0.0000;-0.2273;0.1048;1.0615
1.0000;4.6700;467.0000;0.1919;-0.2758;-1.9053;30.9588;-18.1939;-3.7695;0.0000;0.0000;0.0000;-0.2073;-1.5611;-45.1438;1.0000;0.0000;0.0000;0.0000;-0.2179;0.2816;0.9057
1.0000;4.6800;468.0000;0.1053;-0.2168;-1.7708;45.2434;-21.9054;17.5708;0.0000;0.0000;0.0000;0.2400;-1.7803;-44.9681;1.0000;0.0000;0.0000;0.0000;-0.1348;0.2158;0.7713
1.0000;4.6900;469.0000;0.0119;-0.0064;-1.6490;55.1528;-29.7211;29.9743;0.0000;0.0000;0.0000;0.7815;-2.0801;-44.6709;1.0000;0.0000;0.0000;0.0000;-0.0460;-0.0036;0.6496
1.0000;4.7000;470.0000;-0.1319;0.1499;-1.5089;55.2826;-46.6250;28.6535;0.0000;0.0000;0.0000;1.3173;-2.5536;-44.3909;1.0000;0.0000;0.0000;0.0000;0.0908;-0.1694;0.5099
1.0000;4.7100;471.0000;-0.0937;0.1510;-1.3128;50.6617;-67.7951;17.7685;0.0000;0.0000;0.0000;1.8161;-3.2361;-44.2318;1.0000;0.0000;0.0000;0.0000;0.0420;-0.1794;0.3146
1.0000;4.7200;472.0000;-0.0232;-0.0088;-1.0124;45.6749;-86.5335;8.9640;0.0000;0.0000;0.0000;2.2691;-4.1040;-44.1731;1.0000;0.0000;0.0000;0.0000;-0.0425;-0.0278;0.0153
1.0000;4.7300;473.0000;-0.0305;-0.0612;-0.5855;44.5155;-96.0482;13.0833;0.0000;0.0000;0.0000;2.7070;-5.0693;-44.0838;1.0000;0.0000;0.0000;0.0000;-0.0515;0.0170;-0.4101
1.0000;4.7400;474.0000;-0.1058;0.0906;-0.1858;40.4625;-81.6028;20.6179;0.0000;0.0000;0.0000;3.0958;-5.8947;-43.9183;1.0000;0.0000;0.0000;0.0000;0.0081;-0.1419;-0.8080
1.0000;4.7500;475.0000;-0.2168;0.1623;-0.0313;38.1777;-47.6438;11.8767;0.0000;0.0000;0.0000;3.4534;-6.4017;-43.8251;1.0000;0.0000;0.0000;0.0000;0.1083;-0.2200;-0.9611
1.0000;4.7600;476.0000;-0.2985;0.1103;-0.0747;33.6681;-23.6944;4.3571;0.0000;0.0000;0.0000;3.7868;-6.6409;-43.7963;1.0000;0.0000;0.0000;0.0000;0.1842;-0.1739;-0.9168
1.0000;4.7700;477.0000;-0.2905;0.0732;-0.0865;20.0728;-21.6626;2.8150;0.0000;0.0000;0.0000;3.9860;-6.8589;-43.7829;1.0000;0.0000;0.0000;0.0000;0.1726;-0.1412;-0.9042
1.0000;4.7800;478.0000;-0.2855;0.0942;0.1080;-0.5251;-30.7487;1.7526;0.0000;0.0000;0.0000;3.9812;-7.1669;-43.7869;1.0000;0.0000;0.0000;0.0000;0.1628;-0.1634;-1.0980
1.0000;4.7900;479.0000;-0.2790;0.1361;0.4432;-20.2209;-23.2165;-1.8374;0.0000;0.0000;0.0000;3.7834;-7.3973;-43.8214;1.0000;0.0000;0.0000;0.0000;0.1514;-0.2031;-1.4327
1.0000;4.8000;480.0000;-0.2456;0.0758;0.5726;-31.7896;18.6535;-6.7144;0.0000;0.0000;0.0000;3.4712;-7.2376;-43.8848;1.0000;0.0000;0.0000;0.0000;0.1181;-0.1379;-1.5625
1.0000;4.8100;481.0000;-0.2707;0.0877;0.2906;-33.7355;70.0341;-3.1275;0.0000;0.0000;0.0000;3.1328;-6.5366;-43.8758;1.0000;0.0000;0.0000;0.0000;0.1517;-0.1442;-1.2819
1.0000;4.8200;482.0000;-0.2224;0.2180;-0.2319;-38.7029;100.3126;-2.1847;0.0000;0.0000;0.0000;2.7425;-5.5337;-43.8460;1.0000;0.0000;0.0000;0.0000;0.1192;-0.2682;-0.7614
1.0000;4.8300;483.0000;-0.1411;0.2084;-0.7100;-52.6631;98.3562;-17.0162;0.0000;0.0000;0.0000;2.2269;-4.5438;-43.9736;1.0000;0.0000;0.0000;0.0000;0.0556;-0.2506;-0.2854
1.0000;4.8400;484.0000;0.0013;0.0540;-0.9327;-61.5442;80.7733;-28.3668;0.0000;0.0000;0.0000;1.6298;-3.7270;-44.2304;1.0000;0.0000;0.0000;0.0000;-0.0714;-0.0863;-0.0643
1.0000;4.8500;485.0000;0.0711;-0.1056;-1.0131;-67.2725;66.3881;-27.2938;0.0000;0.0000;0.0000;0.9803;-3.0483;-44.4904;1.0000;0.0000;0.0000;0.0000;-0.1287;0.0842;0.0150
1.0000;4.8600;486.0000;0.1321;-0.1264;-1.0431;-61.5104;66.5833;-16.8450;0.0000;0.0000;0.0000;0.3729;-2.3804;-44.6512;1.0000;0.0000;0.0000;0.0000;-0.1781;0.1160;0.0442
1.0000;4.8700;487.0000;0.1634;-0.0614;-1.1785;-50.1613;77.8895;-10.4109;0.0000;0.0000;0.0000;-0.1251;-1.6013;-44.7540;1.0000;0.0000;0.0000;0.0000;-0.1967;0.0605;0.1791
1.0000;4.8800;488.0000;0.1593;-0.0589;-1.4451;-35.7484;91.5167;-11.1092;0.0000;0.0000;0.0000;-0.4803;-0.6868;-44.8702;1.0000;0.0000;0.0000;0.0000;-0.1773;0.0651;0.4453
1.0000;4.8900;489.0000;0.1459;-0.0915;-1.7693;-22.2294;92.3589;-9.5848;0.0000;0.0000;0.0000;-0.7021;0.2358;-44.9757;1.0000;0.0000;0.0000;0.0000;-0.1477;0.1024;0.7694
1.0000;4.9000;490.0000;0.1625;-0.0782;-2.0712;-15.5581;78.0424;-5.1805;0.0000;0.0000;0.0000;-0.8578;1.0161;-45.0382;1.0000;0.0000;0.0000;0.0000;-0.1496;0.0922;1.0714
1.0000;4.9100;491.0000;0.2102;-0.0593;-2.2028;-13.1451;38.2403;-3.3343;0.0000;0.0000;0.0000;-0.9901;1.3980;-45.0776;1.0000;0.0000;0.0000;0.0000;-0.1877;0.0758;1.2032
1.0000;4.9200;492.0000;0.2686;-0.0908;-2.1091;-9.0238;2.9437;-4.4309;0.0000;0.0000;0.0000;-1.0815;1.4266;-45.1224;1.0000;0.0000;0.0000;0.0000;-0.2436;0.1092;1.1096
1.0000;4.9300;493.0000;0.2721;-0.1542;-1.9482;1.2061;-9.0219;-3.1922;0.0000;0.0000;0.0000;-1.0701;1.3358;-45.1526;1.0000;0.0000;0.0000;0.0000;-0.2482;0.1731;0.9486
1.0000;4.9400;494.0000;0.2515;-0.1820;-1.9462;18.4150;-3.4870;3.2246;0.0000;0.0000;0.0000;-0.8852;1.3014;-45.1198;1.0000;0.0000;0.0000;0.0000;-0.2286;0.1989;0.9466
1.0000;4.9500;495.0000;0.1739;-0.1239;-2.0270;31.6581;-5.6043;11.2446;0.0000;0.0000;0.0000;-0.5653;1.2475;-45.0068;1.0000;0.0000;0.0000;0.0000;-0.1517;0.1360;1.0273
1.0000;4.9600;496.0000;0.0922;-0.0487;-2.0370;40.9171;-21.1001;14.4834;0.0000;0.0000;0.0000;-0.1532;1.0375;-44.8607;1.0000;0.0000;0.0000;0.0000;-0.0725;0.0542;1.0372
1.0000;4.9700;497.0000;0.0635;-0.0237;-1.9208;46.1224;-46.9282;14.8152;0.0000;0.0000;0.0000;0.3102;0.5680;-44.7133;1.0000;0.0000;0.0000;0.0000;-0.0501;0.0214;0.9209
1.0000;4.9800;498.0000;0.0718;-0.0346;-1.6115;47.9198;-73.0325;15.4829;0.0000;0.0000;0.0000;0.7899;-0.1638;-44.5657;1.0000;0.0000;0.0000;0.0000;-0.0696;0.0240;0.6116
1.0000;4.9900;499.0000;0.0613;0.0142;-1.1643;50.1488;-87.4006;19.1710;0.0000;0.0000;0.0000;1.2895;-1.0412;-44.3898;1.0000;0.0000;0.0000;0.0000;-0.0737;-0.0333;0.1646
1.0000;5.0000;500.0000;0.0280;0.0704;-0.8109;53.6601;-78.1579;18.1171;0.0000;0.0000;0.0000;1.8136;-1.8243;-44.2252;1.0000;0.0000;0.0000;0.0000;-0.0550;-0.0986;-0.1883
1.0000;5.0100;501.0000;-0.0732;0.0963;-0.6614;55.4793;-59.8577;15.8082;0.0000;0.0000;0.0000;2.3633;-2.4283;-44.0888;1.0000;0.0000;0.0000;0.0000;0.0346;-0.1339;-0.3372
1.0000;5.0200;502.0000;-0.1460;0.1215;-0.5971;50.6822;-49.8800;14.6196;0.0000;0.0000;0.0000;2.8643;-2.9332;-43.9654;1.0000;0.0000;0.0000;0.0000;0.0981;-0.1683;-0.4007
1.0000;5.0300;503.0000;-0.1733;0.1389;-0.5122;38.4866;-50.8765;11.5548;0.0000;0.0000;0.0000;3.2443;-3.4474;-43.8771;1.0000;0.0000;0.0000;0.0000;0.1166;-0.1932;-0.4848
1.0000;5.0400;504.0000;-0.2257;0.1306;-0.3740;27.6898;-53.0532;4.8191;0.0000;0.0000;0.0000;3.5202;-3.9798;-43.8603;1.0000;0.0000;0.0000;0.0000;0.1598;-0.1902;-0.6220
1.0000;5.0500;505.0000;-0.2488;0.0785;-0.2331;19.3359;-50.4032;-1.2596;0.0000;0.0000;0.0000;3.7096;-4.5049;-43.9067;1.0000;0.0000;0.0000;0.0000;0.1738;-0.1419;-0.7621
1.0000;5.0600;506.0000;-0.2069;0.0491;-0.0886;12.4890;-44.8500;-4.6102;0.0000;0.0000;0.0000;3.8408;-4.9494;-43.9825;1.0000;0.0000;0.0000;0.0000;0.1235;-0.1151;-0.9058
1.0000;5.0700;507.0000;-0.1892;0.0235;0.1251;2.0788;-35.3518;-7.1006;0.0000;0.0000;0.0000;3.8701;-5.2973;-44.0776;1.0000;0.0000;0.0000;0.0000;0.0989;-0.0907;-1.1188
1.0000;5.0800;508.0000;-0.2308;0.0289;0.3048;-10.8869;-12.2630;-3.8699;0.0000;0.0000;0.0000;3.7656;-5.4171;-44.1246;1.0000;0.0000;0.0000;0.0000;0.1366;-0.0952;-1.2981
1.0000;5.0900;509.0000;-0.2711;0.0721;0.3060;-23.7527;27.5535;1.0268;0.0000;0.0000;0.0000;3.5255;-5.1427;-44.0968;1.0000;0.0000;0.0000;0.0000;0.1791;-0.1351;-1.2998
1.0000;5.1000;510.0000;-0.3001;0.1376;0.0252;-33.8304;57.0545;2.9504;0.0000;0.0000;0.0000;3.1666;-4.5998;-44.0318;1.0000;0.0000;0.0000;0.0000;0.2163;-0.1953;-1.0200
1.0000;5.1100;511.0000;-0.2539;0.1879;-0.2834;-47.0208;62.4655;-2.2841;0.0000;0.0000;0.0000;2.6956;-3.9749;-44.0225;1.0000;0.0000;0.0000;0.0000;0.1806;-0.2381;-0.7126
1.0000;5.1200;512.0000;-0.1947;0.1706;-0.4389;-58.1834;54.4027;-12.2696;0.0000;0.0000;0.0000;2.1201;-3.4262;-44.1223;1.0000;0.0000;0.0000;0.0000;0.1314;-0.2114;-0.5583
1.0000;5.1300;513.0000;-0.0576;0.0770;-0.5168;-63.9160;53.0471;-21.0350;0.0000;0.0000;0.0000;1.4916;-2.8895;-44.3162;1.0000;0.0000;0.0000;0.0000;0.0036;-0.1071;-0.4813
1.0000;5.1400;514.0000;0.0318;-0.0222;-0.6323;-64.9765;60.0150;-20.6424;0.0000;0.0000;0.0000;0.8507;-2.2852;-44.5106;1.0000;0.0000;0.0000;0.0000;-0.0758;0.0032;-0.3665
1.0000;5.1500;515.0000;0.0691;-0.0010;-0.8421;-61.9397;73.2378;-14.5214;0.0000;0.0000;0.0000;0.2346;-1.5417;-44.6459;1.0000;0.0000;0.0000;0.0000;-0.1011;-0.0071;-0.1573
1.0000;5.1600;516.0000;0.1272;0.0176;-1.2345;-49.9192;91.4453;-16.0463;0.0000;0.0000;0.0000;-0.2616;-0.6274;-44.8069;1.0000;0.0000;0.0000;0.0000;-0.1443;-0.0161;0.2347
1.0000;5.1700;517.0000;0.1585;-0.0327;-1.6704;-39.3946;94.1641;-18.4705;0.0000;0.0000;0.0000;-0.6551;0.3127;-44.9991;1.0000;0.0000;0.0000;0.0000;-0.1590;0.0416;0.6704
1.0000;5.1800;518.0000;0.2518;-0.0789;-1.9648;-32.5222;74.1014;-18.3536;0.0000;0.0000;0.0000;-0.9827;1.0510;-45.1932;1.0000;0.0000;0.0000;0.0000;-0.2379;0.0940;0.9650
1.0000;5.1900;519.0000;0.3403;-0.1475;-2.0856;-26.8406;46.7838;-16.3828;0.0000;0.0000;0.0000;-1.2550;1.5156;-45.3661;1.0000;0.0000;0.0000;0.0000;-0.3165;0.1677;1.0861
1.0000;5.2000;520.0000;0.3724;-0.2067;-2.0827;-16.8167;24.4444;-9.6817;0.0000;0.0000;0.0000;-1.4242;1.7599;-45.4689;1.0000;0.0000;0.0000;0.0000;-0.3431;0.2307;1.0834
1.0000;5.2100;521.0000;0.3869;-0.1997;-2.0514;-3.0897;13.4986;0.2407;0.0000;0.0000;0.0000;-1.4551;1.8949;-45.4699;1.0000;0.0000;0.0000;0.0000;-0.3547;0.2251;1.0522
1.0000;5.2200;522.0000;0.3523;-0.1592;-2.0835;11.8085;10.6208;7.2341;0.0000;0.0000;0.0000;-1.3347;2.0028;-45.4002;1.0000;0.0000;0.0000;0.0000;-0.3180;0.1834;1.0843
1.0000;5.2300;523.0000;0.2869;-0.1051;-2.1768;24.8772;6.7567;11.7008;0.0000;0.0000;0.0000;-1.0818;2.0729;-45.2846;1.0000;0.0000;0.0000;0.0000;-0.2511;0.1257;1.1776
1.0000;5.2400;524.0000;0.1957;-0.1053;-2.2485;32.5345;-8.3296;12.9342;0.0000;0.0000;0.0000;-0.7518;1.9916;-45.1540;1.0000;0.0000;0.0000;0.0000;-0.1601;0.1207;1.2492
1.0000;5.2500;525.0000;0.0750;-0.0864;-2.0997;36.7173;-44.2947;20.0186;0.0000;0.0000;0.0000;-0.3777;1.5505;-44.9498;1.0000;0.0000;0.0000;0.0000;-0.0442;0.0955;1.1002
1.0000;5.2600;526.0000;-0.0122;0.0542;-1.7055;40.4736;-74.9644;24.3008;0.0000;0.0000;0.0000;0.0321;0.8016;-44.7045;1.0000;0.0000;0.0000;0.0000;0.0313;-0.0520;0.7057
1.0000;5.2700;527.0000;-0.0654;0.1343;-1.3246;44.5543;-81.3123;17.7714;0.0000;0.0000;0.0000;0.4790;-0.0123;-44.5304;1.0000;0.0000;0.0000;0.0000;0.0705;-0.1397;0.3246
1.0000;5.2800;528.0000;-0.0885;0.0925;-1.0617;46.6883;-73.9647;9.9048;0.0000;0.0000;0.0000;0.9453;-0.7530;-44.4405;1.0000;0.0000;0.0000;0.0000;0.0801;-0.1060;0.0619
1.0000;5.2900;529.0000;-0.0948;0.0439;-0.9164;49.3400;-64.7081;8.2315;0.0000;0.0000;0.0000;1.4374;-1.4017;-44.3716;1.0000;0.0000;0.0000;0.0000;0.0745;-0.0657;-0.0832
1.0000;5.3000;530.0000;-0.1272;0.0316;-0.7857;47.5097;-61.8594;9.2675;0.0000;0.0000;0.0000;1.9046;-2.0343;-44.2971;1.0000;0.0000;0.0000;0.0000;0.0959;-0.0618;-0.2133
1.0000;5.3100;531.0000;-0.1519;0.0436;-0.6497;42.7464;-63.6856;10.4767;0.0000;0.0000;0.0000;2.3287;-2.6746;-44.2160;1.0000;0.0000;0.0000;0.0000;0.1094;-0.0815;-0.3487
1.0000;5.3200;532.0000;-0.1554;0.0883;-0.4508;33.5091;-68.3519;11.1122;0.0000;0.0000;0.0000;2.6596;-3.3623;-44.1347;1.0000;0.0000;0.0000;0.0000;0.1013;-0.1327;-0.5468
1.0000;5.3300;533.0000;-0.1345;0.1569;-0.1869;20.6589;-70.2272;7.5900;0.0000;0.0000;0.0000;2.8635;-4.0674;-44.0928;1.0000;0.0000;0.0000;0.0000;0.0681;-0.2057;-0.8097
1.0000;5.3400;534.0000;-0.1155;0.1456;0.0509;7.0387;-56.7091;-3.2833;0.0000;0.0000;0.0000;2.9387;-4.6321;-44.1545;1.0000;0.0000;0.0000;0.0000;0.0381;-0.1963;-1.0466
1.0000;5.3500;535.0000;-0.1161;0.0389;0.1547;0.6468;-30.6845;-11.2629;0.0000;0.0000;0.0000;2.9578;-4.9519;-44.2893;1.0000;0.0000;0.0000;0.0000;0.0315;-0.0902;-1.1498
1.0000;5.3600;536.0000;-0.1367;-0.0656;0.1338;-3.9095;-0.2618;-9.6585;0.0000;0.0000;0.0000;2.9271;-4.9496;-44.3862;1.0000;0.0000;0.0000;0.0000;0.0500;0.0145;-1.1287
1.0000;5.3700;537.0000;-0.1800;-0.0903;0.0087;-11.1315;24.0101;0.4806;0.0000;0.0000;0.0000;2.8144;-4.7100;-44.3693;1.0000;0.0000;0.0000;0.0000;0.0961;0.0404;-1.0039
1.0000;5.3800;538.0000;-0.2424;0.0271;-0.1186;-24.9010;34.3713;11.1657;0.0000;0.0000;0.0000;2.5553;-4.3719;-44.2412;1.0000;0.0000;0.0000;0.0000;0.1640;-0.0735;-0.8773
1.0000;5.3900;539.0000;-0.2332;0.2069;-0.1684;-39.5212;31.0630;11.3582;0.0000;0.0000;0.0000;2.1507;-4.0662;-44.1145;1.0000;0.0000;0.0000;0.0000;0.1603;-0.2472;-0.8281
1.0000;5.4000;540.0000;-0.1689;0.2578;-0.1495;-53.6370;27.7733;-1.3522;0.0000;0.0000;0.0000;1.5906;-3.8014;-44.1091;1.0000;0.0000;0.0000;0.0000;0.1010;-0.2894;-0.8477
1.0000;5.4100;541.0000;-0.0882;0.1501;-0.1639;-63.8145;33.9690;-13.9815;0.0000;0.0000;0.0000;0.9608;-3.4587;-44.2416;1.0000;0.0000;0.0000;0.0000;0.0255;-0.1710;-0.8339
1.0000;5.4200;542.0000;-0.0144;0.0450;-0.2824;-68.6326;52.2197;-14.6348;0.0000;0.0000;0.0000;0.2825;-2.9349;-44.3828;1.0000;0.0000;0.0000;0.0000;-0.0406;-0.0544;-0.7160
1.0000;5.4300;543.0000;0.0290;0.0535;-0.5063;-71.9846;68.5348;-6.5793;0.0000;0.0000;0.0000;-0.4343;-2.2496;-44.4496;1.0000;0.0000;0.0000;0.0000;-0.0728;-0.0507;-0.4928
1.0000;5.4400;544.0000;0.0456;0.1555;-0.7231;-75.3185;75.1435;-3.4682;0.0000;0.0000;0.0000;-1.1860;-1.4988;-44.4950;1.0000;0.0000;0.0000;0.0000;-0.0768;-0.1398;-0.2763
1.0000;5.4500;545.0000;0.0941;0.1656;-0.9658;-72.8659;84.7018;-12.2401;0.0000;0.0000;0.0000;-1.9177;-0.6482;-44.6355;1.0000;0.0000;0.0000;0.0000;-0.1111;-0.1368;-0.0336
1.0000;5.4600;546.0000;0.1382;0.0555;-1.2686;-67.1577;90.2606;-19.1391;0.0000;0.0000;0.0000;-2.5885;0.2462;-44.8623;1.0000;0.0000;0.0000;0.0000;-0.1398;-0.0146;0.2694
1.0000;5.4700;547.0000;0.1589;-0.0286;-1.5543;-58.9179;86.8664;-15.9202;0.0000;0.0000;0.0000;-3.1800;1.1057;-45.0651;1.0000;0.0000;0.0000;0.0000;-0.1451;0.0803;0.5558
1.0000;5.4800;548.0000;0.2179;-0.0511;-1.8035;-48.8264;78.8583;-9.2784;0.0000;0.0000;0.0000;-3.6719;1.8874;-45.2050;1.0000;0.0000;0.0000;0.0000;-0.1900;0.1121;0.8058
1.0000;5.4900;549.0000;0.2698;-0.0680;-2.0140;-38.4029;68.2693;-5.2435;0.0000;0.0000;0.0000;-4.0597;2.5650;-45.3034;1.0000;0.0000;0.0000;0.0000;-0.2293;0.1363;1.0172
1.0000;5.5000;550.0000;0.2795;-0.0876;-2.1792;-25.0324;55.4794;-1.2882;0.0000;0.0000;0.0000;-4.3113;3.1182;-45.3573;1.0000;0.0000;0.0000;0.0000;-0.2285;0.1614;1.1832
1.0000;5.5100;551.0000;0.2520;-0.0719;-2.2787;-3.2608;40.2089;4.8275;0.0000;0.0000;0.0000;-4.3429;3.5228;-45.3396;1.0000;0.0000;0.0000;0.0000;-0.1931;0.1475;1.2833
1.0000;5.5200;552.0000;0.1989;0.0192;-2.3611;11.2628;27.4714;11.3067;0.0000;0.0000;0.0000;-4.2243;3.8052;-45.2472;1.0000;0.0000;0.0000;0.0000;-0.1341;0.0553;1.3659
1.0000;5.5300;553.0000;0.1746;0.1184;-2.4298;22.2977;10.1490;10.0225;0.0000;0.0000;0.0000;-3.9950;3.9136;-45.1544;1.0000;0.0000;0.0000;0.0000;-0.1067;-0.0473;1.4346
1.0000;5.5400;554.0000;0.1840;0.0791;-2.4252;32.8737;-13.3229;0.3593;0.0000;0.0000;0.0000;-3.6654;3.7810;-45.1420;1.0000;0.0000;0.0000;0.0000;-0.1169;-0.0131;1.4297
1.0000;5.5500;555.0000;0.1653;-0.0685;-2.2929;44.1544;-41.6536;-1.8452;0.0000;0.0000;0.0000;-3.2223;3.3642;-45.1360;1.0000;0.0000;0.0000;0.0000;-0.1035;0.1277;1.2966
1.0000;5.5600;556.0000;0.1426;-0.1008;-2.0084;56.0161;-67.3869;9.6231;0.0000;0.0000;0.0000;-2.6553;2.6961;-45.0052;1.0000;0.0000;0.0000;0.0000;-0.0910;0.1510;1.0110
1.0000;5.5700;557.0000;0.1101;0.0094;-1.6744;67.8812;-81.9949;20.0327;0.0000;0.0000;0.0000;-1.9672;1.8848;-44.7717;1.0000;0.0000;0.0000;0.0000;-0.0718;0.0296;0.6759
1.0000;5.5800;558.0000;0.0899;0.1223;-1.3300;75.0144;-89.5784;20.4509;0.0000;0.0000;0.0000;-1.2112;0.9951;-44.5424;1.0000;0.0000;0.0000;0.0000;-0.0667;-0.0962;0.3306
1.0000;5.5900;559.0000;0.0641;0.1408;-1.0416;74.1788;-97.7616;16.3924;0.0000;0.0000;0.0000;-0.4677;0.0201;-44.3644;1.0000;0.0000;0.0000;0.0000;-0.0573;-0.1279;0.0417
1.0000;5.6000;560.0000;0.0721;0.1054;-0.7397;71.2685;-102.7303;12.8696;0.0000;0.0000;0.0000;0.2375;-1.0021;-44.2293;1.0000;0.0000;0.0000;0.0000;-0.0828;-0.1051;-0.2602
1.0000;5.6100;561.0000;0.0461;0.1035;-0.4089;64.7251;-103.0967;13.4703;0.0000;0.0000;0.0000;0.8814;-2.0344;-44.1046;1.0000;0.0000;0.0000;0.0000;-0.0749;-0.1148;-0.5906
1.0000;5.6200;562.0000;-0.0563;0.1531;-0.1156;54.5406;-89.6013;13.2816;0.0000;0.0000;0.0000;1.4218;-2.9329;-43.9897;1.0000;0.0000;0.0000;0.0000;0.0107;-0.1745;-0.8831
1.0000;5.6300;563.0000;-0.1547;0.1926;0.0267;46.1336;-66.0669;8.9372;0.0000;0.0000;0.0000;1.8792;-3.5958;-43.9192;1.0000;0.0000;0.0000;0.0000;0.0960;-0.2225;-1.0245
1.0000;5.6400;564.0000;-0.1946;0.1626;0.0217;35.4225;-43.8716;-0.1196;0.0000;0.0000;0.0000;2.2346;-4.0342;-43.9362;1.0000;0.0000;0.0000;0.0000;0.1268;-0.1993;-1.0187
1.0000;5.6500;565.0000;-0.1998;0.0607;-0.0239;22.4862;-34.8349;-7.6943;0.0000;0.0000;0.0000;2.4632;-4.4048;-44.0337;1.0000;0.0000;0.0000;0.0000;0.1256;-0.1022;-0.9725
1.0000;5.6600;566.0000;-0.1770;-0.0220;0.0800;7.2374;-36.7127;-8.0548;0.0000;0.0000;0.0000;2.5433;-4.7681;-44.1306;1.0000;0.0000;0.0000;0.0000;0.0963;-0.0219;-1.0758
1.0000;5.6700;567.0000;-0.2119;-0.0288;0.3342;-10.4284;-30.9677;-0.9462;0.0000;0.0000;0.0000;2.4410;-5.0770;-44.1538;1.0000;0.0000;0.0000;0.0000;0.1252;-0.0146;-1.3295
1.0000;5.6800;568.0000;-0.2527;0.0174;0.4146;-28.7408;4.5186;8.8309;0.0000;0.0000;0.0000;2.1456;-5.0354;-44.0635;1.0000;0.0000;0.0000;0.0000;0.1642;-0.0567;-1.4099
1.0000;5.6900;569.0000;-0.2236;0.1476;0.2343;-38.1313;35.2270;14.7851;0.0000;0.0000;0.0000;1.7507;-4.6883;-43.9033;1.0000;0.0000;0.0000;0.0000;0.1392;-0.1808;-1.2301
1.0000;5.7000;570.0000;-0.1955;0.2731;-0.0050;-50.6265;53.4409;7.4531;0.0000;0.0000;0.0000;1.2102;-4.1707;-43.8036;1.0000;0.0000;0.0000;0.0000;0.1193;-0.2980;-0.9918
1.0000;5.7100;571.0000;-0.1124;0.2303;-0.2761;-58.3583;69.1820;-10.4133;0.0000;0.0000;0.0000;0.6327;-3.4774;-43.8969;1.0000;0.0000;0.0000;0.0000;0.0470;-0.2452;-0.7216
1.0000;5.7200;572.0000;-0.0474;0.0550;-0.5924;-60.3227;78.9840;-20.4932;0.0000;0.0000;0.0000;0.0402;-2.6864;-44.0975;1.0000;0.0000;0.0000;0.0000;-0.0047;-0.0596;-0.4062
1.0000;5.7300;573.0000;-0.0052;-0.0107;-0.8629;-59.9125;78.7634;-15.1286;0.0000;0.0000;0.0000;-0.5526;-1.8994;-44.2524;1.0000;0.0000;0.0000;0.0000;-0.0331;0.0165;-0.1364
1.0000;5.7400;574.0000;0.0223;0.0591;-1.0700;-59.7148;76.5484;-8.2624;0.0000;0.0000;0.0000;-1.1472;-1.1352;-44.3465;1.0000;0.0000;0.0000;0.0000;-0.0471;-0.0430;0.0704
1.0000;5.7500;575.0000;0.1124;0.0865;-1.3741;-54.2648;81.2876;-12.9805;0.0000;0.0000;0.0000;-1.6885;-0.3217;-44.4950;1.0000;0.0000;0.0000;0.0000;-0.1234;-0.0605;0.3745
1.0000;5.7600;576.0000;0.1781;0.0014;-1.6477;-45.9687;78.4038;-19.6083;0.0000;0.0000;0.0000;-2.1485;0.4553;-44.7173;1.0000;0.0000;0.0000;0.0000;-0.1751;0.0332;0.6483
1.0000;5.7700;577.0000;0.2355;-0.0777;-1.8420;-36.8829;65.0997;-16.4640;0.0000;0.0000;0.0000;-2.5199;1.0990;-44.9083;1.0000;0.0000;0.0000;0.0000;-0.2203;0.1194;0.8430
1.0000;5.7800;578.0000;0.2594;-0.0752;-1.9347;-27.7295;54.2708;-8.8291;0.0000;0.0000;0.0000;-2.7998;1.6371;-45.0217;1.0000;0.0000;0.0000;0.0000;-0.2343;0.1224;0.9361
1.0000;5.7900;579.0000;0.2364;-0.0556;-2.0335;-14.9001;47.8618;-2.4470;0.0000;0.0000;0.0000;-2.9504;2.1139;-45.0703;1.0000;0.0000;0.0000;0.0000;-0.2026;0.1063;1.0354
1.0000;5.8000;580.0000;0.2257;-0.0188;-2.1597;-1.9013;41.0213;2.1956;0.0000;0.0000;0.0000;-2.9687;2.5254;-45.0697;1.0000;0.0000;0.0000;0.0000;-0.1843;0.0707;1.1619
1.0000;5.8100;581.0000;0.2167;-0.0070;-2.2914;13.0968;30.5838;1.0665;0.0000;0.0000;0.0000;-2.8379;2.8314;-45.0746;1.0000;0.0000;0.0000;0.0000;-0.1691;0.0575;1.2938
1.0000;5.8200;582.0000;0.2232;-0.0636;-2.3885;27.0804;12.3834;-1.0342;0.0000;0.0000;0.0000;-2.5680;2.9546;-45.0910;1.0000;0.0000;0.0000;0.0000;-0.1721;0.1103;1.3909
1.0000;5.8300;583.0000;0.2409;-0.1238;-2.3447;37.4439;-16.3392;3.7326;0.0000;0.0000;0.0000;-2.1913;2.7928;-45.0470;1.0000;0.0000;0.0000;0.0000;-0.1907;0.1646;1.3468
1.0000;5.8400;584.0000;0.2201;-0.0787;-2.0952;46.8643;-47.0155;14.1401;0.0000;0.0000;0.0000;-1.7156;2.3277;-44.8896;1.0000;0.0000;0.0000;0.0000;-0.1761;0.1118;1.0967
1.0000;5.8500;585.0000;0.2030;-0.0280;-1.7996;57.4594;-68.6145;17.5531;0.0000;0.0000;0.0000;-1.1335;1.6484;-44.6967;1.0000;0.0000;0.0000;0.0000;-0.1696;0.0517;0.8004
1.0000;5.8600;586.0000;0.1591;-0.0131;-1.5080;65.4726;-78.6996;19.5060;0.0000;0.0000;0.0000;-0.4742;0.8642;-44.4906;1.0000;0.0000;0.0000;0.0000;-0.1388;0.0257;0.5083
1.0000;5.8700;587.0000;0.0910;0.0407;-1.2386;69.6680;-83.0799;22.8329;0.0000;0.0000;0.0000;0.2243;0.0339;-44.2603;1.0000;0.0000;0.0000;0.0000;-0.0849;-0.0400;0.2386
1.0000;5.8800;588.0000;0.0108;0.0985;-1.0367;73.2989;-82.5783;21.8669;0.0000;0.0000;0.0000;0.9559;-0.7941;-44.0502;1.0000;0.0000;0.0000;0.0000;-0.0192;-0.1105;0.0369
1.0000;5.8900;589.0000;-0.0402;0.0954;-0.8659;71.5095;-85.6576;18.0552;0.0000;0.0000;0.0000;1.6676;-1.6545;-43.8894;1.0000;0.0000;0.0000;0.0000;0.0170;-0.1199;-0.1335
1.0000;5.9000;590.0000;-0.1011;0.0904;-0.6572;62.6075;-95.6105;16.5244;0.0000;0.0000;0.0000;2.2802;-2.6218;-43.7547;1.0000;0.0000;0.0000;0.0000;0.0619;-0.1263;-0.3413
1.0000;5.9100;591.0000;-0.1087;0.1000;-0.3515;53.0339;-105.3728;13.4816;0.0000;0.0000;0.0000;2.8058;-3.6804;-43.6668;1.0000;0.0000;0.0000;0.0000;0.0516;-0.1455;-0.6458
1.0000;5.9200;592.0000;-0.1284;0.1172;0.0723;41.7244;-108.3528;9.3151;0.0000;0.0000;0.0000;3.2204;-4.7673;-43.6308;1.0000;0.0000;0.0000;0.0000;0.0523;-0.1707;-1.0679
1.0000;5.9300;593.0000;-0.2080;0.1455;0.4338;27.1010;-92.3592;4.1879;0.0000;0.0000;0.0000;3.4927;-5.6917;-43.6433;1.0000;0.0000;0.0000;0.0000;0.1143;-0.2047;-1.4277
1.0000;5.9400;594.0000;-0.2753;0.1083;0.6343;8.7220;-49.2873;-3.2164;0.0000;0.0000;0.0000;3.5864;-6.1817;-43.7062;1.0000;0.0000;0.0000;0.0000;0.1702;-0.1701;-1.6269
1.0000;5.9500;595.0000;-0.3226;0.0161;0.6072;-9.3400;-4.0880;-3.7224;0.0000;0.0000;0.0000;3.5066;-6.2952;-43.7808;1.0000;0.0000;0.0000;0.0000;0.2136;-0.0776;-1.5993
1.0000;5.9600;596.0000;-0.3204;-0.0475;0.4188;-28.8957;36.1706;3.3962;0.0000;0.0000;0.0000;3.2118;-5.9360;-43.7255;1.0000;0.0000;0.0000;0.0000;0.2142;-0.0103;-1.4114
1.0000;5.9700;597.0000;-0.2744;0.0144;0.1151;-41.5000;55.1834;12.9267;0.0000;0.0000;0.0000;2.7812;-5.3917;-43.5667;1.0000;0.0000;0.0000;0.0000;0.1768;-0.0656;-1.1090
1.0000;5.9800;598.0000;-0.1765;0.1678;-0.0427;-55.2607;53.1315;13.1759;0.0000;0.0000;0.0000;2.2146;-4.8667;-43.4111;1.0000;0.0000;0.0000;0.0000;0.0883;-0.2102;-0.9524
1.0000;5.9900;599.0000;-0.0844;0.2580;-0.0519;-68.4298;55.3609;-0.0934;0.0000;0.0000;0.0000;1.5288;-4.3135;-43.3940;1.0000;0.0000;0.0000;0.0000;0.0054;-0.2892;-0.9445
1.0000;6.0000;600.0000;-0.0662;0.1726;-0.1731;-72.9855;79.2160;-16.6081;0.0000;0.0000;0.0000;0.7992;-3.5218;-43.5393;1.0000;0.0000;0.0000;0.0000;-0.0008;-0.1913;-0.8245
1.0000;6.0100;601.0000;-0.0578;0.0107;-0.6407;-69.6568;108.5179;-19.2958;0.0000;0.0000;0.0000;0.1124;-2.4351;-43.7242;1.0000;0.0000;0.0000;0.0000;0.0078;-0.0170;-0.3580
1.0000;6.0200;602.0000;-0.0468;-0.0072;-1.1342;-63.3972;120.7420;-12.1936;0.0000;0.0000;0.0000;-0.5174;-1.2281;-43.8506;1.0000;0.0000;0.0000;0.0000;0.0175;0.0122;0.1347
1.0000;6.0300;603.0000;0.0284;0.0353;-1.5319;-57.0867;106.5172;-10.1112;0.0000;0.0000;0.0000;-1.0870;-0.1645;-43.9665;1.0000;0.0000;0.0000;0.0000;-0.0379;-0.0199;0.5321
1.0000;6.0400;604.0000;0.1091;0.0511;-1.7209;-52.8976;80.7664;-13.6509;0.0000;0.0000;0.0000;-1.6167;0.6397;-44.1218;1.0000;0.0000;0.0000;0.0000;-0.1028;-0.0263;0.7212
1.0000;6.0500;605.0000;0.1436;0.0437;-1.7682;-48.9692;58.1395;-16.2056;0.0000;0.0000;0.0000;-2.1089;1.2173;-44.3024;1.0000;0.0000;0.0000;0.0000;-0.1260;-0.0100;0.7689
1.0000;6.0600;606.0000;0.1783;0.0022;-1.8187;-38.5886;50.9201;-16.2078;0.0000;0.0000;0.0000;-2.4995;1.7196;-44.4849;1.0000;0.0000;0.0000;0.0000;-0.1516;0.0390;0.8199
1.0000;6.0700;607.0000;0.1903;-0.0274;-1.9700;-23.3891;52.8454;-11.2964;0.0000;0.0000;0.0000;-2.7380;2.2423;-44.6221;1.0000;0.0000;0.0000;0.0000;-0.1546;0.0738;0.9717
1.0000;6.0800;608.0000;0.2505;-0.0193;-2.1766;-11.0553;46.1769;-3.9663;0.0000;0.0000;0.0000;-2.8513;2.7016;-44.6843;1.0000;0.0000;0.0000;0.0000;-0.2062;0.0684;1.1788
1.0000;6.0900;609.0000;0.3381;0.0101;-2.3027;-1.2514;26.7734;-2.3902;0.0000;0.0000;0.0000;-2.8656;2.9678;-44.7216;1.0000;0.0000;0.0000;0.0000;-0.2877;0.0399;1.3052
1.0000;6.1000;610.0000;0.3611;-0.0373;-2.2816;7.5825;0.7400;-6.3750;0.0000;0.0000;0.0000;-2.7921;2.9733;-44.7860;1.0000;0.0000;0.0000;0.0000;-0.3088;0.0866;1.2842
1.0000;6.1100;611.0000;0.3344;-0.1153;-2.1258;22.8868;-19.6571;-5.1229;0.0000;0.0000;0.0000;-2.5653;2.7746;-44.8280;1.0000;0.0000;0.0000;0.0000;-0.2846;0.1618;1.1281
1.0000;6.1200;612.0000;0.2930;-0.1424;-2.0245;39.3682;-23.6536;2.8354;0.0000;0.0000;0.0000;-2.1699;2.5394;-44.7898;1.0000;0.0000;0.0000;0.0000;-0.2472;0.1830;1.0264
1.0000;6.1300;613.0000;0.2555;-0.1003;-1.9965;53.8133;-30.8698;13.7554;0.0000;0.0000;0.0000;-1.6256;2.2353;-44.6420;1.0000;0.0000;0.0000;0.0000;-0.2143;0.1324;0.9979
1.0000;6.1400;614.0000;0.2214;-0.0050;-1.9071;60.7843;-49.5655;19.9419;0.0000;0.0000;0.0000;-1.0104;1.7444;-44.4313;1.0000;0.0000;0.0000;0.0000;-0.1874;0.0266;0.9079
1.0000;6.1500;615.0000;0.1677;0.0659;-1.6550;61.4503;-74.7897;19.0064;0.0000;0.0000;0.0000;-0.3927;1.0018;-44.2304;1.0000;0.0000;0.0000;0.0000;-0.1451;-0.0550;0.6553
1.0000;6.1600;616.0000;0.1251;0.0622;-1.3038;61.3937;-90.6606;15.0752;0.0000;0.0000;0.0000;0.2227;0.0955;-44.0784;1.0000;0.0000;0.0000;0.0000;-0.1174;-0.0621;0.3038
1.0000;6.1700;617.0000;0.0822;0.0117;-1.0100;63.6188;-94.4261;12.7811;0.0000;0.0000;0.0000;0.8581;-0.8499;-43.9595;1.0000;0.0000;0.0000;0.0000;-0.0908;-0.0225;0.0101
1.0000;6.1800;618.0000;0.0079;0.0096;-0.6783;62.2080;-95.5430;17.1075;0.0000;0.0000;0.0000;1.4766;-1.8087;-43.8079;1.0000;0.0000;0.0000;0.0000;-0.0332;-0.0314;-0.3211
1.0000;6.1900;619.0000;-0.1061;0.1151;-0.4016;56.4067;-92.8068;22.0231;0.0000;0.0000;0.0000;2.0331;-2.7431;-43.6161;1.0000;0.0000;0.0000;0.0000;0.0643;-0.1470;-0.5970
1.0000;6.2000;620.0000;-0.1751;0.2027;-0.1556;45.8213;-84.9886;16.1901;0.0000;0.0000;0.0000;2.4629;-3.6167;-43.4800;1.0000;0.0000;0.0000;0.0000;0.1177;-0.2431;-0.8419
1.0000;6.2100;621.0000;-0.2124;0.1914;0.0381;32.2701;-77.3959;4.1786;0.0000;0.0000;0.0000;2.7853;-4.3917;-43.4738;1.0000;0.0000;0.0000;0.0000;0.1407;-0.2379;-1.0344
1.0000;6.2200;622.0000;-0.2553;0.0976;0.2447;17.4242;-68.4553;-5.9288;0.0000;0.0000;0.0000;2.9673;-5.0724;-43.5678;1.0000;0.0000;0.0000;0.0000;0.1712;-0.1482;-1.2399
1.0000;6.2300;623.0000;-0.3448;0.0350;0.4568;1.7454;-50.4057;-6.2066;0.0000;0.0000;0.0000;2.9930;-5.5726;-43.6564;1.0000;0.0000;0.0000;0.0000;0.2506;-0.0870;-1.4510
1.0000;6.2400;624.0000;-0.4235;0.0791;0.5959;-13.9311;-16.8270;-0.4916;0.0000;0.0000;0.0000;2.8550;-5.7403;-43.6701;1.0000;0.0000;0.0000;0.0000;0.3240;-0.1298;-1.5897
1.0000;6.2500;625.0000;-0.4047;0.1187;0.4857;-30.4496;28.7731;0.3182;0.0000;0.0000;0.0000;2.5373;-5.5018;-43.6619;1.0000;0.0000;0.0000;0.0000;0.3070;-0.1650;-1.4798
1.0000;6.2600;626.0000;-0.3283;0.1316;0.1076;-42.7639;55.8103;-1.0148;0.0000;0.0000;0.0000;2.1085;-4.9438;-43.6493;1.0000;0.0000;0.0000;0.0000;0.2383;-0.1713;-1.1028
1.0000;6.2700;627.0000;-0.2507;0.1586;-0.0927;-58.6625;55.0601;-4.5038;0.0000;0.0000;0.0000;1.5240;-4.3920;-43.6767;1.0000;0.0000;0.0000;0.0000;0.1707;-0.1892;-0.9036
1.0000;6.2800;628.0000;-0.2236;0.2053;-0.0907;-73.8042;51.5476;-9.8721;0.0000;0.0000;0.0000;0.7923;-3.8747;-43.7652;1.0000;0.0000;0.0000;0.0000;0.1526;-0.2240;-0.9065
1.0000;6.2900;629.0000;-0.1708;0.2131;-0.1683;-79.3523;71.4159;-16.8847;0.0000;0.0000;0.0000;0.0089;-3.1595;-43.9297;1.0000;0.0000;0.0000;0.0000;0.1106;-0.2184;-0.8299
1.0000;6.3000;630.0000;-0.1128;0.1665;-0.4980;-78.3898;99.4032;-23.0762;0.0000;0.0000;0.0000;-0.7723;-2.1709;-44.1633;1.0000;0.0000;0.0000;0.0000;0.0682;-0.1581;-0.5010
1.0000;6.3100;631.0000;-0.0536;0.0915;-0.9531;-77.1272;113.1062;-25.1000;0.0000;0.0000;0.0000;-1.5359;-1.0452;-44.4372;1.0000;0.0000;0.0000;0.0000;0.0280;-0.0696;-0.0463
1.0000;6.3200;632.0000;0.0293;0.0817;-1.3438;-70.2790;109.6736;-23.7543;0.0000;0.0000;0.0000;-2.2363;0.0431;-44.7107;1.0000;0.0000;0.0000;0.0000;-0.0356;-0.0471;0.3444
1.0000;6.3300;633.0000;0.1457;0.0724;-1.6393;-62.3797;96.7471;-25.4208;0.0000;0.0000;0.0000;-2.8629;0.9983;-45.0077;1.0000;0.0000;0.0000;0.0000;-0.1344;-0.0265;0.6404
1.0000;6.3400;634.0000;0.2540;0.0219;-1.8620;-50.4231;82.4164;-27.6610;0.0000;0.0000;0.0000;-3.3751;1.8061;-45.3290;1.0000;0.0000;0.0000;0.0000;-0.2276;0.0338;0.8639
1.0000;6.3500;635.0000;0.3933;-0.0921;-2.0709;-32.9539;72.8881;-28.0397;0.0000;0.0000;0.0000;-3.7152;2.5181;-45.6547;1.0000;0.0000;0.0000;0.0000;-0.3539;0.1549;1.0737
1.0000;6.3600;636.0000;0.4117;-0.1571;-2.2415;-14.2798;62.8044;-18.7976;0.0000;0.0000;0.0000;-3.8692;3.1323;-45.8842;1.0000;0.0000;0.0000;0.0000;-0.3609;0.2237;1.2450
1.0000;6.3700;637.0000;0.4198;-0.1054;-2.3922;4.3600;46.0622;-4.7863;0.0000;0.0000;0.0000;-3.8302;3.5887;-45.9631;1.0000;0.0000;0.0000;0.0000;-0.3599;0.1726;1.3963
1.0000;6.3800;638.0000;0.4597;-0.0288;-2.4779;15.3458;23.8068;0.9415;0.0000;0.0000;0.0000;-3.6771;3.8268;-45.9694;1.0000;0.0000;0.0000;0.0000;-0.3942;0.0939;1.4822
1.0000;6.3900;639.0000;0.4648;-0.0429;-2.4837;25.7470;-1.7854;-2.4973;0.0000;0.0000;0.0000;-3.4213;3.8075;-45.9934;1.0000;0.0000;0.0000;0.0000;-0.3979;0.1043;1.4879
1.0000;6.4000;640.0000;0.4528;-0.1517;-2.3800;37.2346;-26.9637;-3.5997;0.0000;0.0000;0.0000;-3.0488;3.5375;-46.0146;1.0000;0.0000;0.0000;0.0000;-0.3890;0.2074;1.3836
1.0000;6.4100;641.0000;0.4085;-0.2324;-2.1957;52.1414;-48.2039;6.8169;0.0000;0.0000;0.0000;-2.5222;3.0593;-45.9230;1.0000;0.0000;0.0000;0.0000;-0.3518;0.2800;1.1984
1.0000;6.4200;642.0000;0.3389;-0.1682;-1.9527;66.0777;-66.6187;24.0159;0.0000;0.0000;0.0000;-1.8489;2.4026;-45.6573;1.0000;0.0000;0.0000;0.0000;-0.2924;0.2050;0.9545
1.0000;6.4300;643.0000;0.2456;0.0406;-1.5751;72.7364;-85.5979;35.7850;0.0000;0.0000;0.0000;-1.1083;1.5561;-45.2775;1.0000;0.0000;0.0000;0.0000;-0.2127;-0.0164;0.5760
1.0000;6.4400;644.0000;0.1589;0.1591;-1.2241;70.9043;-97.0961;32.5920;0.0000;0.0000;0.0000;-0.3927;0.5896;-44.9389;1.0000;0.0000;0.0000;0.0000;-0.1422;-0.1476;0.2243
1.0000;6.4500;645.0000;0.0840;0.1009;-0.9160;67.0839;-100.5974;22.4830;0.0000;0.0000;0.0000;0.2737;-0.4116;-44.7086;1.0000;0.0000;0.0000;0.0000;-0.0846;-0.1015;-0.0840
1.0000;6.4600;646.0000;0.0153;0.0462;-0.6560;60.5953;-103.2129;22.0241;0.0000;0.0000;0.0000;0.8762;-1.4460;-44.4989;1.0000;0.0000;0.0000;0.0000;-0.0337;-0.0577;-0.3437
1.0000;6.4700;647.0000;-0.0456;0.1089;-0.3455;50.8066;-105.6210;25.2479;0.0000;0.0000;0.0000;1.3763;-2.5070;-44.2672;1.0000;0.0000;0.0000;0.0000;0.0087;-0.1298;-0.6536
1.0000;6.4800;648.0000;-0.1115;0.1606;-0.0518;40.6583;-95.3662;19.9458;0.0000;0.0000;0.0000;1.7739;-3.4657;-44.0938;1.0000;0.0000;0.0000;0.0000;0.0570;-0.1890;-0.9463
1.0000;6.4900;649.0000;-0.1806;0.1162;0.1323;33.2248;-72.3585;12.0134;0.0000;0.0000;0.0000;2.0997;-4.1929;-43.9979;1.0000;0.0000;0.0000;0.0000;0.1119;-0.1507;-1.1293
1.0000;6.5000;650.0000;-0.2256;0.0675;0.2276;25.1150;-46.6895;9.7029;0.0000;0.0000;0.0000;2.3389;-4.6941;-43.9252;1.0000;0.0000;0.0000;0.0000;0.1469;-0.1068;-1.2237
1.0000;6.5100;651.0000;-0.3098;0.0786;0.2601;16.0987;-21.7664;9.7221;0.0000;0.0000;0.0000;2.4924;-4.9157;-43.8369;1.0000;0.0000;0.0000;0.0000;0.2253;-0.1211;-1.2556
1.0000;6.5200;652.0000;-0.4294;0.1475;0.2443;2.2795;-0.3104;8.8668;0.0000;0.0000;0.0000;2.5076;-4.9226;-43.7482;1.0000;0.0000;0.0000;0.0000;0.3433;-0.1913;-1.2396
1.0000;6.5300;653.0000;-0.4184;0.1487;0.1491;-18.1754;21.3099;4.6297;0.0000;0.0000;0.0000;2.3211;-4.7117;-43.6927;1.0000;0.0000;0.0000;0.0000;0.3346;-0.1906;-1.1447
1.0000;6.5400;654.0000;-0.3807;0.1469;0.0248;-34.2490;29.5818;4.2765;0.0000;0.0000;0.0000;1.9744;-4.4177;-43.6387;1.0000;0.0000;0.0000;0.0000;0.3017;-0.1837;-1.0210
1.0000;6.5500;655.0000;-0.3182;0.2542;-0.0163;-49.0825;31.6937;4.8505;0.0000;0.0000;0.0000;1.4469;-4.1319;-43.5677;1.0000;0.0000;0.0000;0.0000;0.2444;-0.2833;-0.9805
1.0000;6.5600;656.0000;-0.2240;0.3384;-0.0492;-60.7666;44.4230;-6.0734;0.0000;0.0000;0.0000;0.8427;-3.6867;-43.6198;1.0000;0.0000;0.0000;0.0000;0.1565;-0.3572;-0.9483
1.0000;6.5700;657.0000;-0.1893;0.2731;-0.2284;-66.1426;70.3932;-22.9731;0.0000;0.0000;0.0000;0.1943;-2.9809;-43.8438;1.0000;0.0000;0.0000;0.0000;0.1323;-0.2807;-0.7699
1.0000;6.5800;658.0000;-0.1331;0.1342;-0.5974;-64.1500;93.2471;-30.0602;0.0000;0.0000;0.0000;-0.4339;-2.0490;-44.1468;1.0000;0.0000;0.0000;0.0000;0.0911;-0.1307;-0.4017
1.0000;6.5900;659.0000;-0.0991;0.0811;-0.9835;-63.3700;96.2675;-26.1668;0.0000;0.0000;0.0000;-1.0600;-1.0898;-44.4210;1.0000;0.0000;0.0000;0.0000;0.0739;-0.0667;-0.0161
1.0000;6.6000;660.0000;0.0019;0.1190;-1.2601;-60.3656;84.9741;-22.9769;0.0000;0.0000;0.0000;-1.6645;-0.2435;-44.6675;1.0000;0.0000;0.0000;0.0000;-0.0115;-0.0939;0.2605
1.0000;6.6100;661.0000;0.0926;0.1137;-1.4098;-57.4196;68.9503;-26.5792;0.0000;0.0000;0.0000;-2.2393;0.4365;-44.9564;1.0000;0.0000;0.0000;0.0000;-0.0892;-0.0783;0.4104
1.0000;6.6200;662.0000;0.2021;0.0392;-1.5075;-53.3050;55.3817;-28.6794;0.0000;0.0000;0.0000;-2.7762;0.9772;-45.2672;1.0000;0.0000;0.0000;0.0000;-0.1885;0.0058;0.5086
1.0000;6.6300;663.0000;0.3144;-0.0401;-1.6281;-45.0216;56.8711;-26.6284;0.0000;0.0000;0.0000;-3.2329;1.5312;-45.5632;1.0000;0.0000;0.0000;0.0000;-0.2914;0.0937;0.6298
1.0000;6.6400;664.0000;0.4194;-0.1490;-1.8532;-30.5411;65.2877;-21.9991;0.0000;0.0000;0.0000;-3.5466;2.1699;-45.8217;1.0000;0.0000;0.0000;0.0000;-0.3858;0.2090;0.8556
1.0000;6.6500;665.0000;0.4983;-0.2288;-2.1231;-13.9640;66.8420;-11.2817;0.0000;0.0000;0.0000;-3.6908;2.8320;-45.9772;1.0000;0.0000;0.0000;0.0000;-0.4531;0.2924;1.1262
1.0000;6.6600;666.0000;0.4895;-0.2018;-2.3209;1.4876;56.2242;2.2633;0.0000;0.0000;0.0000;-3.6766;3.3945;-45.9909;1.0000;0.0000;0.0000;0.0000;-0.4337;0.2661;1.3245
1.0000;6.6700;667.0000;0.4513;-0.1201;-2.4610;16.8071;38.3676;10.4749;0.0000;0.0000;0.0000;-3.5034;3.7840;-45.9104;1.0000;0.0000;0.0000;0.0000;-0.3876;0.1824;1.4650
1.0000;6.6800;668.0000;0.4367;-0.0931;-2.5154;29.2532;11.2010;10.7722;0.0000;0.0000;0.0000;-3.2041;3.9021;-45.8093;1.0000;0.0000;0.0000;0.0000;-0.3690;0.1509;1.5193
1.0000;6.6900;669.0000;0.3489;-0.1574;-2.4206;37.4643;-22.4450;11.8325;0.0000;0.0000;0.0000;-2.8208;3.6842;-45.6792;1.0000;0.0000;0.0000;0.0000;-0.2827;0.2092;1.4241
1.0000;6.7000;670.0000;0.3014;-0.1668;-2.1874;49.3390;-60.9764;21.9599;0.0000;0.0000;0.0000;-2.3111;3.0860;-45.4329;1.0000;0.0000;0.0000;0.0000;-0.2431;0.2105;1.1900
1.0000;6.7100;671.0000;0.2219;-0.0830;-1.8514;57.8496;-86.4598;34.1721;0.0000;0.0000;0.0000;-1.7153;2.2339;-45.0607;1.0000;0.0000;0.0000;0.0000;-0.1771;0.1169;0.8530
1.0000;6.7200;672.0000;0.1561;0.0412;-1.5274;61.8401;-101.0054;40.5665;0.0000;0.0000;0.0000;-1.0838;1.2341;-44.6304;1.0000;0.0000;0.0000;0.0000;-0.1279;-0.0181;0.5281
1.0000;6.7300;673.0000;0.0872;0.1165;-1.2089;61.3156;-108.7515;39.0467;0.0000;0.0000;0.0000;-0.4657;0.1520;-44.2253;1.0000;0.0000;0.0000;0.0000;-0.0774;-0.1044;0.2090
1.0000;6.7400;674.0000;-0.0116;0.1256;-0.9630;61.9658;-105.6821;33.2652;0.0000;0.0000;0.0000;0.1518;-0.9039;-43.8896;1.0000;0.0000;0.0000;0.0000;0.0026;-0.1241;-0.0370
1.0000;6.7500;675.0000;-0.0693;0.1115;-0.8032;61.9016;-100.3202;30.2668;0.0000;0.0000;0.0000;0.7542;-1.9132;-43.5899;1.0000;0.0000;0.0000;0.0000;0.0425;-0.1208;-0.1964
1.0000;6.7600;676.0000;-0.0993;0.1358;-0.6412;56.1557;-101.4815;28.8535;0.0000;0.0000;0.0000;1.3044;-2.9330;-43.3195;1.0000;0.0000;0.0000;0.0000;0.0548;-0.1551;-0.3576
1.0000;6.7700;677.0000;-0.1260;0.1827;-0.3608;46.7054;-107.3526;24.5952;0.0000;0.0000;0.0000;1.7584;-4.0127;-43.1021;1.0000;0.0000;0.0000;0.0000;0.0632;-0.2105;-0.6368
1.0000;6.7800;678.0000;-0.1789;0.1708;-0.0237;33.3386;-105.1592;13.7952;0.0000;0.0000;0.0000;2.0838;-5.0683;-42.9993;1.0000;0.0000;0.0000;0.0000;0.0973;-0.2051;-0.9724
1.0000;6.7900;679.0000;-0.2819;0.0676;0.2193;25.8634;-80.6679;6.4233;0.0000;0.0000;0.0000;2.3392;-5.8769;-42.9660;1.0000;0.0000;0.0000;0.0000;0.1844;-0.1066;-1.2137
1.0000;6.8000;680.0000;-0.3637;0.0140;0.2839;18.4087;-52.6774;11.9193;0.0000;0.0000;0.0000;2.5102;-6.4578;-42.8871;1.0000;0.0000;0.0000;0.0000;0.2551;-0.0567;-1.2771
1.0000;6.8100;681.0000;-0.4141;0.1467;0.3230;0.8546;-36.9987;21.2086;0.0000;0.0000;0.0000;2.4959;-6.8368;-42.6902;1.0000;0.0000;0.0000;0.0000;0.2974;-0.1903;-1.3152
1.0000;6.8200;682.0000;-0.3984;0.2878;0.4473;-22.0775;-24.4823;14.5321;0.0000;0.0000;0.0000;2.2586;-7.0875;-42.5543;1.0000;0.0000;0.0000;0.0000;0.2764;-0.3288;-1.4390
1.0000;6.8300;683.0000;-0.3495;0.2300;0.5011;-41.9370;-0.5938;-1.7773;0.0000;0.0000;0.0000;1.8415;-7.0928;-42.5726;1.0000;0.0000;0.0000;0.0000;0.2256;-0.2648;-1.4928
1.0000;6.8400;684.0000;-0.2783;0.1301;0.4082;-53.2655;30.3166;-9.2889;0.0000;0.0000;0.0000;1.3192;-6.7872;-42.6579;1.0000;0.0000;0.0000;0.0000;0.1577;-0.1565;-1.4005
1.0000;6.8500;685.0000;-0.2434;0.1235;0.1893;-59.8023;61.8606;-8.4870;0.0000;0.0000;0.0000;0.7148;-6.1926;-42.7303;1.0000;0.0000;0.0000;0.0000;0.1314;-0.1399;-1.1829
1.0000;6.8600;686.0000;-0.1650;0.1945;-0.2083;-62.7564;85.9917;-9.0238;0.0000;0.0000;0.0000;0.0957;-5.3321;-42.8149;1.0000;0.0000;0.0000;0.0000;0.0663;-0.2003;-0.7868
1.0000;6.8700;687.0000;-0.0898;0.1966;-0.6364;-66.7453;102.3713;-17.9165;0.0000;0.0000;0.0000;-0.5564;-4.3092;-42.9989;1.0000;0.0000;0.0000;0.0000;0.0080;-0.1912;-0.3602
1.0000;6.8800;688.0000;-0.0080;0.1427;-0.9656;-68.0745;98.3714;-24.6320;0.0000;0.0000;0.0000;-1.2198;-3.3294;-43.2609;1.0000;0.0000;0.0000;0.0000;-0.0564;-0.1258;-0.0322
1.0000;6.8900;689.0000;0.0548;0.0880;-1.2058;-68.3772;91.2421;-28.5622;0.0000;0.0000;0.0000;-1.8881;-2.4251;-43.5715;1.0000;0.0000;0.0000;0.0000;-0.1029;-0.0594;0.2074
1.0000;6.9000;690.0000;0.1313;0.0231;-1.4319;-63.4512;83.7231;-29.0786;0.0000;0.0000;0.0000;-2.5095;-1.5945;-43.8936;1.0000;0.0000;0.0000;0.0000;-0.1645;0.0167;0.4332
1.0000;6.9100;691.0000;0.2121;-0.0289;-1.6241;-54.8673;76.4030;-27.1701;0.0000;0.0000;0.0000;-3.0517;-0.8445;-44.2022;1.0000;0.0000;0.0000;0.0000;-0.2317;0.0787;0.6255
1.0000;6.9200;692.0000;0.2909;-0.0751;-1.7809;-42.0295;70.5319;-23.7216;0.0000;0.0000;0.0000;-3.4695;-0.1539;-44.4792;1.0000;0.0000;0.0000;0.0000;-0.2981;0.1331;0.7827
1.0000;6.9300;693.0000;0.3070;-0.1155;-1.9275;-26.9024;68.0723;-17.9160;0.0000;0.0000;0.0000;-3.7392;0.5142;-44.7010;1.0000;0.0000;0.0000;0.0000;-0.3024;0.1791;0.9296
1.0000;6.9400;694.0000;0.3294;-0.1217;-2.1275;-11.1493;65.7487;-8.7392;0.0000;0.0000;0.0000;-3.8525;1.1645;-44.8318;1.0000;0.0000;0.0000;0.0000;-0.3132;0.1883;1.1299
1.0000;6.9500;695.0000;0.3429;-0.0625;-2.2884;5.2378;54.3660;1.1281;0.0000;0.0000;0.0000;-3.7998;1.7091;-44.8571;1.0000;0.0000;0.0000;0.0000;-0.3164;0.1293;1.2910
1.0000;6.9600;696.0000;0.3699;-0.0266;-2.3715;17.2552;32.9262;2.2156;0.0000;0.0000;0.0000;-3.6272;2.0391;-44.8564;1.0000;0.0000;0.0000;0.0000;-0.3362;0.0911;1.3741
1.0000;6.9700;697.0000;0.3435;-0.0547;-2.3489;26.5344;9.9252;1.0959;0.0000;0.0000;0.0000;-3.3617;2.1388;-44.8516;1.0000;0.0000;0.0000;0.0000;-0.3066;0.1152;1.3514
1.0000;6.9800;698.0000;0.2535;-0.0859;-2.2466;36.2434;-10.3824;4.5350;0.0000;0.0000;0.0000;-2.9974;2.0376;-44.8006;1.0000;0.0000;0.0000;0.0000;-0.2170;0.1406;1.2488
1.0000;6.9900;699.0000;0.1739;-0.0594;-2.1480;47.7058;-27.1378;12.5268;0.0000;0.0000;0.0000;-2.5157;1.7726;-44.6624;1.0000;0.0000;0.0000;0.0000;-0.1410;0.1066;1.1497
1.0000;7.0000;700.0000;0.1502;-0.0018;-2.0167;57.1182;-48.5037;18.0919;0.0000;0.0000;0.0000;-1.9387;1.2959;-44.4628;1.0000;0.0000;0.0000;0.0000;-0.1241;0.0395;1.0177
1.0000;7.0100;701.0000;0.1422;0.0614;-1.7194;61.4605;-73.4104;19.7050;0.0000;0.0000;0.0000;-1.3205;0.5677;-44.2450;1.0000;0.0000;0.0000;0.0000;-0.1272;-0.0342;0.7199
1.0000;7.0200;702.0000;0.1083;0.0726;-1.3397;62.9353;-85.6958;18.6672;0.0000;0.0000;0.0000;-0.6906;-0.2858;-44.0434;1.0000;0.0000;0.0000;0.0000;-0.1077;-0.0564;0.3398
1.0000;7.0300;703.0000;-0.0168;0.0919;-0.9893;65.3925;-81.9414;20.7287;0.0000;0.0000;0.0000;-0.0393;-1.1039;-43.8307;1.0000;0.0000;0.0000;0.0000;0.0028;-0.0869;-0.0106
1.0000;7.0400;704.0000;-0.1069;0.1495;-0.8751;66.8428;-68.4768;22.3922;0.0000;0.0000;0.0000;0.6235;-1.7898;-43.6102;1.0000;0.0000;0.0000;0.0000;0.0801;-0.1560;-0.1245
1.0000;7.0500;705.0000;-0.1418;0.1913;-0.7850;63.0485;-70.9653;17.8595;0.0000;0.0000;0.0000;1.2280;-2.5124;-43.4324;1.0000;0.0000;0.0000;0.0000;0.1028;-0.2090;-0.2141
1.0000;7.0600;706.0000;-0.1226;0.1575;-0.6007;55.6740;-82.4802;9.1169;0.0000;0.0000;0.0000;1.7813;-3.3392;-43.3631;1.0000;0.0000;0.0000;0.0000;0.0699;-0.1850;-0.3975
1.0000;7.0700;707.0000;-0.0818;0.0746;-0.3045;45.3456;-91.7225;4.1471;0.0000;0.0000;0.0000;2.2342;-4.2573;-43.3539;1.0000;0.0000;0.0000;0.0000;0.0136;-0.1107;-0.6925
1.0000;7.0800;708.0000;-0.0995;0.0534;0.0331;33.3217;-87.1011;5.9237;0.0000;0.0000;0.0000;2.5655;-5.1301;-43.3312;1.0000;0.0000;0.0000;0.0000;0.0156;-0.0960;-1.0286
1.0000;7.0900;709.0000;-0.1675;0.0748;0.2748;23.0554;-62.5967;6.3907;0.0000;0.0000;0.0000;2.7928;-5.7584;-43.2964;1.0000;0.0000;0.0000;0.0000;0.0708;-0.1219;-1.2690
1.0000;7.1000;710.0000;-0.2162;0.0814;0.3579;14.7713;-30.3013;3.3555;0.0000;0.0000;0.0000;2.9316;-6.0993;-43.2875;1.0000;0.0000;0.0000;0.0000;0.1120;-0.1315;-1.3512
1.0000;7.1100;711.0000;-0.2786;0.0326;0.3569;0.9877;-3.7137;0.3204;0.0000;0.0000;0.0000;2.9413;-6.1365;-43.2862;1.0000;0.0000;0.0000;0.0000;0.1716;-0.0838;-1.3499
1.0000;7.1200;712.0000;-0.3766;0.0193;0.3584;-19.1833;19.4928;4.3232;0.0000;0.0000;0.0000;2.7439;-5.9440;-43.2331;1.0000;0.0000;0.0000;0.0000;0.2713;-0.0686;-1.3516
1.0000;7.1300;713.0000;-0.3656;0.1152;0.2272;-38.6500;43.8763;9.8537;0.0000;0.0000;0.0000;2.3456;-5.5101;-43.1145;1.0000;0.0000;0.0000;0.0000;0.2666;-0.1587;-1.2214
1.0000;7.1400;714.0000;-0.3058;0.2562;0.0741;-54.9264;50.4952;5.0037;0.0000;0.0000;0.0000;1.7899;-5.0074;-43.0459;1.0000;0.0000;0.0000;0.0000;0.2153;-0.2911;-1.0694
