SensorId; TimeStamp (s); FrameNumber; AccX (g); AccY (g); AccZ (g); GyroX (deg/s); GyroY (deg/s); GyroZ (deg/s); MagX (uT); MagY (uT); MagZ (uT); EulerX (deg); EulerY (deg); EulerZ (deg); QuatW; QuatX; QuatY; QuatZ; LinAccX (g); LinAccY (g); LinAccZ (g); Pressure (kPa); Altitude (m); Temperature (degC); HeaveMotion (m)
1;0;0;0.16206306;-0.04692072;-0.99474257;0.18831076;-0.13488789;0.05242936;0;0;0;2.55579162;9.08650112;-136.0844116;1;0;0;0;-0.00413419;0.00288746;0.00827436;0;0;0;0
1;0.01;1;0.16087377;-0.04623558;-0.99366981;-0.83387619;0.21764553;0.03409845;0;0;0;2.54752231;9.08865929;-136.0839691;1;0;0;0;-0.00294577;0.00227165;0.00719838;0;0;0;0
1;0.02;2;0.15951823;-0.04640508;-0.99943185;-1.58583581;0.55081844;-0.0402657;0;0;0;2.53163791;9.09418106;-136.084137;1;0;0;0;-0.00148931;0.00270673;0.01296473;0;0;0;0
1;0.03;3;0.16344893;-0.04375851;-0.9998126;-1.22739506;0.30901292;-0.18749687;0;0;0;2.51908684;9.09734917;-136.0858917;1;0;0;0;-0.00535127;0.00028366;0.01334669;0;0;0;0
1;0.04;4;0.16081901;-0.04274949;-1.00128365;-1.10360539;0.44012842;0.33750835;0;0;0;2.52840805;9.10444164;-136.0814514;1;0;0;0;-0.00264287;-0.00060468;0.01482491;0;0;0;0
1;0.05;5;0.15891035;-0.04314887;-1.00134981;0.38361022;-0.44390607;-0.04109992;0;0;0;2.53214741;9.10002613;-136.082077;1;0;0;0;-0.00072161;-0.00043523;0.01490326;0;0;0;0
1;0.06;6;0.15845068;-0.04317011;-0.99834865;0.92822421;-0.02199971;-0.02529265;0;0;0;2.5413878;9.09981823;-136.0823517;1;0;0;0;-0.00030155;-0.00055002;0.01190172;0;0;0;0
1;0.07;7;0.16109246;-0.04572658;-0.99905878;1.46464562;-0.38617784;-0.07114997;0;0;0;2.55589271;9.09599018;-136.0832367;1;0;0;0;-0.00296799;0.00179138;0.0126175;0;0;0;0
1;0.08;8;0.15928842;-0.04513699;-0.99660897;1.19510233;-0.21410805;0.12666836;0;0;0;2.56802964;9.09379196;-136.0820465;1;0;0;0;-0.00122613;0.00096559;0.01016825;0;0;0;0
1;0.09;9;0.15864457;-0.04515675;-0.99345499;0.69102293;-0.31032944;-0.02578862;0;0;0;2.56480742;9.07800579;-136.0830536;1;0;0;0;-0.00068115;0.00087932;0.00700326;0;0;0;0
1;0.1;10;0.16041572;-0.04597153;-0.99480301;-0.5986622;0.23357724;-0.10858592;0;0;0;2.55866408;9.08038807;-136.0840454;1;0;0;0;-0.00261386;0.00183567;0.00831898;0;0;0;0
1;0.11;11;0.15939049;-0.04431931;-0.99547207;-1.31579483;0.51435965;-0.09649818;0;0;0;2.54538894;9.08557034;-136.0847778;1;0;0;0;-0.00151307;0.00037226;0.00899179;0;0;0;0
1;0.12;12;0.16022134;-0.04145207;-0.99769539;-1.8217957;0.39898169;-0.00416939;0;0;0;2.52719402;9.08955956;-136.0846405;1;0;0;0;-0.00227556;-0.0022156;0.01121362;0;0;0;0
1;0.13;13;0.15895873;-0.04169171;-0.9994753;-1.40866256;0.30934504;-0.01028276;0;0;0;2.51311231;9.09265327;-136.0845947;1;0;0;0;-0.00094148;-0.00168221;0.01299202;0;0;0;0
1;0.14;14;0.15973459;-0.0409139;-1.00173771;-0.54583269;0.14725071;-0.07525196;0;0;0;2.51230955;9.11902809;-136.0843964;1;0;0;0;-0.00157023;-0.00232223;0.01527187;0;0;0;0
1;0.15;15;0.15778205;-0.03980758;-1.00164473;0.2796281;-0.01610025;0.0527121;0;0;0;2.51518822;9.11884212;-136.0838776;1;0;0;0;0.00070849;-0.00348778;0.01523399;0;0;0;0
1;0.16;16;0.15641911;-0.04087908;-0.99984407;1.30082083;-0.53858835;-0.05344253;0;0;0;2.5280726;9.1134882;-136.0846558;1;0;0;0;0.00200711;-0.0025826;0.01343031;0;0;0;0
1;0.17;17;0.15886542;-0.04446391;-0.99878198;1.68012226;-0.30461249;0.13716409;0;0;0;2.54507136;9.11038494;-136.0834045;1;0;0;0;-0.00051093;0.00072996;0.01236863;0;0;0;0
1;0.18;18;0.16039498;-0.04510948;-0.99489146;1.66317213;-0.38757214;-0.14359292;0;0;0;2.56144547;9.10657787;-136.0850525;1;0;0;0;-0.00210724;0.00107934;0.00848065;0;0;0;0
1;0.19;19;0.16211773;-0.04490647;-0.99326408;0.46083418;0.03412782;-0.03640939;0;0;0;2.55080032;9.11841202;-136.0861969;1;0;0;0;-0.0038042;0.00077505;0.00686194;0;0;0;0
1;0.2;20;0.15986298;-0.04596008;-0.99507958;-0.36685878;0.12732118;0.04481655;0;0;0;2.54721236;9.1196661;-136.0856781;1;0;0;0;-0.00136539;0.00205285;0.00869696;0;0;0;0
1;0.21;21;0.15977219;-0.04587457;-0.99422175;-1.35366166;0.37749195;-0.04515084;0;0;0;2.53363085;9.12345791;-136.085968;1;0;0;0;-0.00123701;0.00212962;0.00783788;0;0;0;0
1;0.22;22;0.16120827;-0.04370426;-0.99852973;-1.65939772;0.4653123;0.04712239;0;0;0;2.51714611;9.12808704;-136.0852814;1;0;0;0;-0.00259392;0.00024338;0.01214609;0;0;0;0
1;0.23;23;0.16000377;-0.04421832;-1.00064766;-1.04823494;0.30618185;-0.067229;0;0;0;2.50657749;9.13117504;-136.0858307;1;0;0;0;-0.00133221;0.00097296;0.01426369;0;0;0;0
1;0.24;24;0.16175933;-0.04374539;-1.00159228;-0.65341485;0.19948007;-0.05582024;0;0;0;2.47685957;9.14581108;-136.0877991;1;0;0;0;-0.00298179;0.00074356;0.01521477;0;0;0;0
1;0.25;25;0.16113521;-0.04723881;-1.00176048;0.51242214;-0.18869172;-0.03966772;0;0;0;2.48190737;9.14394379;-136.0882721;1;0;0;0;-0.00220249;0.0045264;0.0153954;0;0;0;0
1;0.26;26;0.16123928;-0.04631568;-0.9987852;1.53684306;-0.3698003;-0.07184059;0;0;0;2.49713397;9.14027882;-136.0891571;1;0;0;0;-0.00235565;0.00340903;0.01242064;0;0;0;0
1;0.27;27;0.16303992;-0.04730332;-0.9981733;2.07494164;-0.47882581;0.04278201;0;0;0;2.51791787;9.13547611;-136.0889435;1;0;0;0;-0.0042371;0.00406911;0.01181008;0;0;0;0
1;0.28;28;0.16372095;-0.0469852;-0.99397409;1.67981017;-0.49063665;-0.11001332;0;0;0;2.53450394;9.13062096;-136.0902863;1;0;0;0;-0.00500233;0.00341504;0.00761209;0;0;0;0
1;0.29;29;0.15905727;-0.04659636;-0.99471593;0.27888411;-0.01698228;0.15770578;0;0;0;2.56393719;9.1353159;-136.085144;1;0;0;0;-0.00036712;0.00276851;0.0083608;0;0;0;0
1;0.3;30;0.15866265;-0.04622842;-0.99394935;-0.16851974;0.00756129;-0.18651195;0;0;0;2.56195354;9.13547611;-136.0870209;1;0;0;0;0.00010586;0.00208284;0.00762099;0;0;0;0
1;0.31;31;0.16060989;-0.04519656;-0.99256331;-0.8159982;0.14980678;-0.05441593;0;0;0;2.55371666;9.13699627;-136.0875092;1;0;0;0;-0.00182686;0.00113531;0.00623345;0;0;0;0
1;0.32;32;0.15807046;-0.04422131;-0.99709761;-1.82440019;0.29462725;0.20462212;0;0;0;2.53582287;9.13984966;-136.0852966;1;0;0;0;0.00076501;0.00042445;0.01076445;0;0;0;0
1;0.33;33;0.15809555;-0.04467442;-0.99798769;-2.01852441;0.38562965;-0.21190871;0;0;0;2.51532316;9.14379406;-136.0872803;1;0;0;0;0.00077884;0.00120994;0.01164611;0;0;0;0
1;0.34;34;0.15807486;-0.04104348;-1.00149596;-1.62029123;0.60365009;-0.17921433;0;0;0;2.48731065;9.14404011;-136.0905457;1;0;0;0;0.00088447;-0.00204015;0.01515141;0;0;0;0
1;0.35;35;0.15969422;-0.04178518;-1.00057721;-0.07968371;-0.01161416;-0.04783208;0;0;0;2.48643613;9.14394474;-136.0910339;1;0;0;0;-0.00078271;-0.0010422;0.01421362;0;0;0;0
1;0.36;36;0.1588386;-0.04135348;-1.00250673;1.05207288;-0.11022309;0.1471429;0;0;0;2.49718642;9.14278126;-136.0895844;1;0;0;0;0.00007144;-0.0015747;0.01614743;0;0;0;0
1;0.37;37;0.16047636;-0.04057605;-0.99971318;2.03961682;-0.56204623;-0.18525574;0;0;0;2.5172441;9.13724422;-136.0917206;1;0;0;0;-0.00164275;-0.00264916;0.01335457;0;0;0;0
1;0.38;38;0.15869279;-0.04092427;-0.99567419;1.73568046;-0.28643766;-0.05579234;0;0;0;2.53449202;9.1344099;-136.092392;1;0;0;0;0.00008529;-0.00262526;0.00932083;0;0;0;0
1;0.39;39;0.15752313;-0.04123376;-0.9935025;1.46284807;-0.40518734;0.15613693;0;0;0;2.55354524;9.13022995;-136.0905151;1;0;0;0;0.00118501;-0.0026118;0.00715104;0;0;0;0
1;0.4;40;0.15808398;-0.04322055;-0.9924373;0.33177581;-0.08635749;0.20873794;0;0;0;2.55719233;9.12927246;-136.0884399;1;0;0;0;0.00057395;-0.00082382;0.00608666;0;0;0;0
1;0.41;41;0.15858299;-0.04515023;-0.99403709;-0.43843713;0.04416722;-0.14777835;0;0;0;2.55257416;9.12978077;-136.08992;1;0;0;0;0.00008311;0.00113283;0.00768647;0;0;0;0
1;0.42;42;0.15997085;-0.04456899;-0.99605405;-1.5860225;0.49996424;-0.09336043;0;0;0;2.53660083;9.13481808;-136.090622;1;0;0;0;-0.00125198;0.0007549;0.00970292;0;0;0;0
1;0.43;43;0.16015303;-0.04463263;-0.99936235;-1.73029304;0.46735618;-0.10947819;0;0;0;2.51915526;9.139534;-136.0915222;1;0;0;0;-0.00133543;0.00112756;0.01301344;0;0;0;0
1;0.44;44;0.16069131;-0.04318107;-1.00094855;-1.57105851;0.37803733;0.15000716;0;0;0;2.49295855;9.13416386;-136.0915833;1;0;0;0;-0.00184707;0.00000656;0.01458943;0;0;0;0
1;0.45;45;0.16136596;-0.04316501;-1.00376558;-0.77893746;0.26884097;-0.01846789;0;0;0;2.48515701;9.13685799;-136.0916596;1;0;0;0;-0.00258172;0.00032354;0.01738214;0;0;0;0
1;0.46;46;0.16303822;-0.04204557;-1.00143003;0.46015126;-0.05107006;-0.07240377;0;0;0;2.48963857;9.1363802;-136.0924225;1;0;0;0;-0.00424714;-0.00079854;0.01504785;0;0;0;0
1;0.47;47;0.15961343;-0.04344029;-1.00098217;1.78534639;-0.56216943;0.13283974;0;0;0;2.50766468;9.13070488;-136.0913391;1;0;0;0;-0.00088276;0.0003728;0.01459993;0;0;0;0
1;0.48;48;0.1595595;-0.04556386;-0.9974373;2.68039703;-0.9822759;0.2044276;0;0;0;2.53472686;9.12080288;-136.0897064;1;0;0;0;-0.00098286;0.00207249;0.01104896;0;0;0;0
1;0.49;49;0.15751489;-0.04718459;-0.99493545;2.41544318;-0.56847674;0.12505323;0;0;0;2.560112;9.11170387;-136.0888367;1;0;0;0;0.00092366;0.00324089;0.00854498;0;0;0;0
1;0.5;50;0.158674;-0.04797127;-0.99175072;1.23371172;-0.17762552;-0.18835881;0;0;0;2.57213473;9.11001587;-136.0908203;1;0;0;0;-0.00033851;0.00371426;0.0053577;0;0;0;0
1;0.51;51;0.15930367;-0.04666719;-0.99091738;-0.43750548;0.19717059;-0.04099099;0;0;0;2.56770778;9.11200428;-136.0911408;1;0;0;0;-0.00096109;0.0023751;0.00452697;0;0;0;0
1;0.52;52;0.15989204;-0.04616164;-0.99333429;-1.8572427;0.45063722;-0.00312654;0;0;0;2.54916263;9.11650658;-136.0909576;1;0;0;0;-0.00147245;0.00211703;0.00694525;0;0;0;0
1;0.53;53;0.16210771;-0.04568087;-0.99587101;-2.75502348;0.66497511;-0.00711027;0;0;0;2.52164841;9.12315273;-136.0907288;1;0;0;0;-0.00359989;0.00205077;0.00947772;0;0;0;0
1;0.54;54;0.16265208;-0.04358128;-1.00094676;-2.69853449;0.76864183;-0.19907022;0;0;0;2.49143386;9.13024139;-136.0927429;1;0;0;0;-0.00401504;0.00045814;0.01455192;0;0;0;0
1;0.55;55;0.1632544;-0.04183568;-1.00446153;-1.53418624;0.31119445;-0.0787212;0;0;0;2.47598743;9.1333847;-136.0933991;1;0;0;0;-0.00454068;-0.00089811;0.0180621;0;0;0;0
1;0.56;56;0.15981974;-0.04145145;-1.00354707;0.04267557;-0.23662458;0.12300913;0;0;0;2.47659469;9.13096809;-136.0922699;1;0;0;0;-0.00109824;-0.00117918;0.01714437;0;0;0;0
1;0.57;57;0.15595952;-0.0407342;-1.00137603;1.9471848;-0.61464548;0.07774275;0;0;0;2.49614739;9.12479305;-136.0917511;1;0;0;0;0.00266683;-0.00212281;0.01496784;0;0;0;0
1;0.58;58;0.1571421;-0.04217475;-0.99736673;2.73893499;-0.65677118;0.06755533;0;0;0;2.52359867;9.11819935;-136.0913544;1;0;0;0;0.0013697;-0.00111727;0.01095921;0;0;0;0
1;0.59;59;0.15547913;-0.04006303;-0.9935627;2.56182218;-0.53336948;-0.15631098;0;0;0;2.54838967;9.11089993;-136.0933838;1;0;0;0;0.002929;-0.00369426;0.00715911;0;0;0;0
1;0.6;60;0.1566114;-0.04315131;-0.99078548;1.14158964;-0.21297935;0.05734005;0;0;0;2.55988288;9.10874844;-136.0929108;1;0;0;0;0.00170749;-0.00090095;0.00438064;0;0;0;0
1;0.61;61;0.15704542;-0.04274398;-0.99231476;-0.83412427;0.21735148;0.06909627;0;0;0;2.55166841;9.11088943;-136.0921021;1;0;0;0;0.00128007;-0.00129047;0.00591017;0;0;0;0
1;0.62;62;0.15784101;-0.04292277;-0.99424392;-2.91556048;0.70211679;-0.16219983;0;0;0;2.52230334;9.11797619;-136.0934296;1;0;0;0;0.00057148;-0.00074379;0.00783703;0;0;0;0
1;0.63;63;0.16202551;-0.04204633;-0.99965507;-3.50636339;0.99888307;-0.16896912;0;0;0;2.48703885;9.12803078;-136.0946808;1;0;0;0;-0.00344434;-0.00102667;0.01324911;0;0;0;0
1;0.64;64;0.16389942;-0.03921014;-1.00359213;-2.66500974;0.66407406;-0.00822266;0;0;0;2.45994353;9.1354866;-136.0944824;1;0;0;0;-0.00518169;-0.00332845;0.01718496;0;0;0;0
1;0.65;65;0.16248126;-0.04227868;-1.00507724;-0.5131765;-0.02585756;0.13229731;0;0;0;2.4550221;9.13517189;-136.0931549;1;0;0;0;-0.00370293;-0.00000889;0.01866898;0;0;0;0
1;0.66;66;0.16028264;-0.04388209;-1.00413787;1.8400991;-0.52807224;0.08007409;0;0;0;2.47351575;9.12986183;-136.0925598;1;0;0;0;-0.00157183;0.00141923;0.01772635;0;0;0;0
1;0.67;67;0.16130905;-0.04817382;-1.00072229;3.49424458;-0.74968481;0.03971608;0;0;0;2.5084691;9.12235641;-136.0924988;1;0;0;0;-0.00271337;0.00520348;0.01431425;0;0;0;0
1;0.68;68;0.1619432;-0.04932006;-0.99441546;3.96076536;-0.94186431;-0.03825623;0;0;0;2.5479486;9.11296177;-136.0933075;1;0;0;0;-0.00350165;0.00567383;0.00801225;0;0;0;0
1;0.69;69;0.15889835;-0.04986629;-0.99007308;2.79151702;-0.67588025;0.2416781;0;0;0;2.58762264;9.10673046;-136.0900116;1;0;0;0;-0.00059878;0.00559231;0.0036751;0;0;0;0
1;0.7;70;0.16000517;-0.04980396;-0.98878437;0.56667882;-0.15518257;-0.02243757;0;0;0;2.59324265;9.10519218;-136.0903168;1;0;0;0;-0.00175597;0.00512515;0.00239648;0;0;0;0
1;0.71;71;0.16111699;-0.04927035;-0.9885658;-1.81782532;0.63997602;-0.1938675;0;0;0;2.57480025;9.11167145;-136.09198;1;0;0;0;-0.00280897;0.00476004;0.00217977;0;0;0;0
1;0.72;72;0.16311318;-0.04641832;-0.99437118;-3.77690196;0.93348664;-0.20142709;0;0;0;2.53677487;9.12108517;-136.0935822;1;0;0;0;-0.00465266;0.00246041;0.00798482;0;0;0;0
1;0.73;73;0.16174667;-0.04490021;-0.9997589;-4.53338909;1.04188156;0.0190998;0;0;0;2.49154496;9.13148403;-136.092926;1;0;0;0;-0.00310762;0.00168718;0.01336841;0;0;0;0
1;0.74;74;0.16225456;-0.04333203;-1.00385654;-3.49022222;0.82771903;-0.17118457;0;0;0;2.45948625;9.14141178;-136.0939179;1;0;0;0;-0.00345058;0.00080026;0.01746292;0;0;0;0
1;0.75;75;0.1597835;-0.04182109;-1.00664234;-1.0492897;0.220543;-0.05072657;0;0;0;2.44892693;9.14363766;-136.0943451;1;0;0;0;-0.00088421;-0.00039673;0.0202506;0;0;0;0
1;0.76;76;0.16093871;-0.04026065;-1.00455117;1.80471385;-0.49322119;0.04591979;0;0;0;2.46701431;9.13868999;-136.0940857;1;0;0;0;-0.00206811;-0.00207791;0.01815991;0;0;0;0
1;0.77;77;0.15846738;-0.04168124;-0.99975181;4.08386946;-1.1322372;0.08048674;0;0;0;2.5079031;9.12734318;-136.0937805;1;0;0;0;0.00023962;-0.00124868;0.0133599;0;0;0;0
1;0.78;78;0.15886979;-0.04426701;-0.99363482;4.12415552;-0.80684608;-0.02116515;0;0;0;2.54905272;9.11929035;-136.0943451;1;0;0;0;-0.00032507;0.00061309;0.00724864;0;0;0;0
1;0.79;79;0.15803067;-0.04527973;-0.98919857;2.5064497;-0.53444582;0.03684474;0;0;0;2.57176304;9.11664677;-136.0943451;1;0;0;0;0.00040465;0.00108113;0.00281897;0;0;0;0
1;0.8;80;0.15808375;-0.04606842;-0.98717988;0.02833332;0.02106038;0.00372852;0;0;0;2.57205367;9.11685562;-136.0942993;1;0;0;0;0.00035369;0.00172143;0.00080724;0;0;0;0
1;0.81;81;0.16060339;-0.04323045;-0.98915529;-2.6475656;0.61259878;-0.00904301;0;0;0;2.54560804;9.12298107;-136.094101;1;0;0;0;-0.00209358;-0.00082558;0.00278126;0;0;0;0
1;0.82;82;0.15988122;-0.04166593;-0.99726796;-4.20816088;1.09066808;-0.07180149;0;0;0;2.50348854;9.13390923;-136.0943451;1;0;0;0;-0.0012152;-0.00174652;0.01089053;0;0;0;0
1;0.83;83;0.1604035;-0.0414733;-1.00222886;-4.00876617;1.12405849;-0.21384162;0;0;0;2.46313548;9.14523315;-136.0960236;1;0;0;0;-0.00153123;-0.00120008;0.01585236;0;0;0;0
1;0.84;84;0.1583489;-0.038457;-1.00558996;-2.37739992;0.61004275;-0.02987901;0;0;0;2.42459583;9.14007378;-136.0981903;1;0;0;0;0.00062159;-0.00362253;0.01920387;0;0;0;0
1;0.85;85;0.15926772;-0.04133699;-1.0049566;0.60076094;-0.30972251;0.01032162;0;0;0;2.43059874;9.13697338;-136.0982208;1;0;0;0;-0.00044168;-0.00044;0.01853433;0;0;0;0
1;0.86;86;0.16185917;-0.0430247;-1.00318217;3.33308887;-0.64576668;0.07791204;0;0;0;2.46401048;9.1304884;-136.0977173;1;0;0;0;-0.00312777;0.00081705;0.0167629;0;0;0;0
1;0.87;87;0.16064939;-0.04421392;-0.99896157;4.26458025;-1.01508534;0.16715184;0;0;0;2.50685358;9.12027359;-136.0964508;1;0;0;0;-0.00207846;0.00129904;0.01254714;0;0;0;0
1;0.88;88;0.15951787;-0.0440881;-0.99090666;3.6365304;-0.85445184;0.12423525;0;0;0;2.54335785;9.1116848;-136.0955811;1;0;0;0;-0.00110512;0.00049244;0.00449657;0;0;0;0
1;0.89;89;0.15911962;-0.04671191;-0.98914117;1.71532047;-0.42407358;0.06532831;0;0;0;2.56869578;9.11147499;-136.094101;1;0;0;0;-0.00079674;0.00263928;0.00273785;0;0;0;0
1;0.9;90;0.15911333;-0.04722746;-0.98987842;-0.7442345;0.21630348;0.08548286;0;0;0;2.56140566;9.11359596;-136.0931397;1;0;0;0;-0.00073283;0.00303017;0.00348991;0;0;0;0
1;0.91;91;0.15970229;-0.04665606;-0.99275458;-2.95187545;0.7527433;-0.03866442;0;0;0;2.53187943;9.1211338;-136.0931854;1;0;0;0;-0.00123188;0.00282428;0.00636427;0;0;0;0
1;0.92;92;0.16099092;-0.04660417;-0.99713254;-3.76044989;0.84707952;-0.11515134;0;0;0;2.49414968;9.12964916;-136.0939789;1;0;0;0;-0.00238682;0.00338853;0.01073657;0;0;0;0
1;0.93;93;0.16133787;-0.04559656;-1.00343835;-3.18690372;0.72015423;0.05132376;0;0;0;2.46241188;9.13682175;-136.0931549;1;0;0;0;-0.00259135;0.00299374;0.01703852;0;0;0;0
1;0.94;94;0.16275859;-0.04218854;-1.00532138;-1.06797457;0.2030368;0.01929236;0;0;0;2.44768453;9.12299347;-136.094162;1;0;0;0;-0.0040086;-0.00006807;0.01890732;0;0;0;0
1;0.95;95;0.16257094;-0.04249707;-1.00489414;1.23085892;-0.28227392;0.05543045;0;0;0;2.46006227;9.12014866;-136.0937042;1;0;0;0;-0.00403526;0.00022599;0.01844622;0;0;0;0
1;0.96;96;0.16105063;-0.04399141;-1.00039983;2.98911238;-0.7965222;0.11534324;0;0;0;2.49008298;9.11214066;-136.0929108;1;0;0;0;-0.00261581;0.00130835;0.0139534;0;0;0;0
1;0.97;97;0.15966928;-0.04406439;-0.9968797;3.34817529;-0.90256959;0.09219896;0;0;0;2.52364898;9.10308361;-136.0923767;1;0;0;0;-0.00140604;0.00079933;0.0104311;0;0;0;0
1;0.98;98;0.15862124;-0.0445909;-0.99149227;2.52401781;-0.61953002;-0.03436999;0;0;0;2.54879022;9.09691143;-136.0930023;1;0;0;0;-0.00048713;0.00082512;0.00504503;0;0;0;0
1;0.99;99;0.15921439;-0.04381764;-0.98974204;0.96348488;-0.09075354;-0.02653476;0;0;0;2.57325768;9.09771824;-136.0921478;1;0;0;0;-0.00112222;-0.00029546;0.00330356;0;0;0;0
1;1;100;0.15916409;-0.04550864;-0.98965698;-1.30157661;0.22277194;-0.01261412;0;0;0;2.56023812;9.09995079;-136.0921631;1;0;0;0;-0.00102379;0.00129343;0.0032308;0;0;0;0
1;1.01;101;0.15911773;-0.04404964;-0.99427682;-2.88110518;0.64928526;-0.02325119;0;0;0;2.53143692;9.10644817;-136.0921173;1;0;0;0;-0.00089604;0.00024083;0.00784558;0;0;0;0
1;1.02;102;0.15822944;-0.04108064;-0.99785054;-3.09608436;0.66957504;-0.14287475;0;0;0;2.50029469;9.11319923;-136.0932617;1;0;0;0;0.00011944;-0.00218815;0.01141585;0;0;0;0
1;1.03;103;0.16064231;-0.04201739;-1.00360906;-2.14379668;0.65781909;0.10781824;0;0;0;2.47907519;9.11972427;-136.0918732;1;0;0;0;-0.00218041;-0.00080479;0.01717295;0;0;0;0
1;1.04;104;0.1606511;-0.04120214;-1.00529051;-0.54595625;0.18085943;-0.00485761;0;0;0;2.44220972;9.0846653;-136.0954437;1;0;0;0;-0.00229058;-0.00129144;0.01882412;0;0;0;0
1;1.05;105;0.15899052;-0.04151575;-1.00186384;1.44558823;-0.47163662;-0.05442509;0;0;0;2.45654535;9.07997513;-136.0962067;1;0;0;0;-0.00114869;-0.00069444;0.01530208;0;0;0;0
1;1.06;106;0.16058205;-0.04205317;-0.99974954;2.81069708;-0.72529763;-0.00412747;0;0;0;2.48459578;9.07273293;-136.0965729;1;0;0;0;-0.00284204;-0.00055782;0.01318869;0;0;0;0
1;1.07;107;0.16083325;-0.04168783;-0.99656183;3.15213037;-0.72945654;0.07914025;0;0;0;2.51619267;9.06541157;-136.0960846;1;0;0;0;-0.00321787;-0.00146037;0.01000439;0;0;0;0
1;1.08;108;0.15751943;-0.0442653;-0.9915542;2.0921371;-0.5643509;0.02406405;0;0;0;2.53711224;9.05976295;-136.0960999;1;0;0;0;-0.00002102;0.00067009;0.00499766;0;0;0;0
1;1.09;109;0.1565858;-0.04536799;-0.99042678;0.56792003;-0.05244526;-0.03874073;0;0;0;2.56615233;9.08226967;-136.0942383;1;0;0;0;0.00096749;0.00146975;0.00389253;0;0;0;0
1;1.1;110;0.15782148;-0.04465871;-0.99271929;-1.11974978;0.34124643;-0.08343946;0;0;0;2.55484605;9.08571625;-136.0949402;1;0;0;0;0.00006;0.00054454;0.0062471;0;0;0;0
1;1.11;111;0.15963449;-0.04448071;-0.99507409;-2.41042638;0.88397717;-0.02624527;0;0;0;2.53076172;9.09455776;-136.0948181;1;0;0;0;-0.0016326;0.00071312;0.00860576;0;0;0;0
1;1.12;112;0.16271769;-0.0432526;-1.00005698;-2.35952187;0.50844818;-0.17128877;0;0;0;2.50692844;9.09971428;-136.0963135;1;0;0;0;-0.0045969;-0.0000829;0.01358858;0;0;0;0
1;1.13;113;0.16219702;-0.04311782;-1.00042486;-1.53393781;0.34524423;-0.06082368;0;0;0;2.49151635;9.10319042;-136.0967865;1;0;0;0;-0.003995;0.00010641;0.0139554;0;0;0;0
1;1.14;114;0.16049302;-0.04432986;-1.00266898;-0.40205786;0.17927073;0.0108615;0;0;0;2.47766328;9.10128307;-136.0973206;1;0;0;0;-0.00226296;0.00151714;0.01619527;0;0;0;0
1;1.15;115;0.16181645;-0.0440307;-1.0040133;1.03301501;-0.22943754;0.11097243;0;0;0;2.48815465;9.09894371;-136.0962982;1;0;0;0;-0.0036624;0.00124958;0.01752602;0;0;0;0
1;1.16;116;0.16245711;-0.04454116;-0.9999094;2.34181905;-0.70468992;0.14184767;0;0;0;2.51175022;9.0918417;-136.0951691;1;0;0;0;-0.00439432;0.00142605;0.01342206;0;0;0;0
1;1.17;117;0.15959115;-0.04555258;-0.99544603;2.64768028;-0.69109601;0.19076169;0;0;0;2.5384829;9.08485413;-136.0935669;1;0;0;0;-0.0016508;0.00198302;0.00895905;0;0;0;0
1;1.18;118;0.15957986;-0.04922554;-0.99392909;1.93222153;-0.42520699;-0.05983397;0;0;0;2.55768013;9.08063507;-136.0943604;1;0;0;0;-0.00172855;0.00527528;0.00744474;0;0;0;0
1;1.19;119;0.15982381;-0.04682776;-0.99107021;0.47765726;-0.11934978;-0.10842132;0;0;0;2.5804472;9.09499454;-136.0936127;1;0;0;0;-0.00195469;0.0026004;0.00460112;0;0;0;0
1;1.2;120;0.15811101;-0.04616892;-0.99281663;-1.22832453;0.32478833;-0.0298071;0;0;0;2.56814027;9.09825325;-136.0937653;1;0;0;0;0.00000292;0.00183529;0.00639156;0;0;0;0
1;1.21;121;0.15865719;-0.04395863;-0.9966054;-2.41340566;0.57664728;-0.0823295;0;0;0;2.54391527;9.10404968;-136.0943451;1;0;0;0;-0.00047309;-0.00003809;0.01017638;0;0;0;0
1;1.22;122;0.1605214;-0.04199217;-0.9995963;-2.84249377;0.85454637;-0.07380135;0;0;0;2.51543236;9.11261845;-136.094696;1;0;0;0;-0.00220921;-0.0015369;0.01316711;0;0;0;0
1;1.23;123;0.15972637;-0.04166271;-1.00057662;-2.05347419;0.57289618;-0.06927999;0;0;0;2.49482656;9.11837196;-136.0951386;1;0;0;0;-0.0012924;-0.00144258;0.01414841;0;0;0;0
1;1.24;124;0.16293804;-0.04006934;-1.00215745;-0.79774672;0.21743208;0.01615459;0;0;0;2.47226858;9.1008234;-136.0966034;1;0;0;0;-0.0045226;-0.0027428;0.01571353;0;0;0;0
1;1.25;125;0.1610717;-0.04205177;-1.00394535;0.81915301;-0.0728016;0.04544003;0;0;0;2.48052859;9.10007477;-136.0961762;1;0;0;0;-0.00289193;-0.00060069;0.01745671;0;0;0;0
1;1.26;126;0.15922914;-0.04218122;-1.00018132;2.1111331;-0.49584365;-0.01035907;0;0;0;2.50158763;9.09512615;-136.0964966;1;0;0;0;-0.00111123;-0.00075684;0.01369512;0;0;0;0
1;1.27;127;0.15734942;-0.04286202;-0.99657267;2.77432036;-0.65786672;0.15460515;0;0;0;2.52953148;9.08848381;-136.0952301;1;0;0;0;0.00065646;-0.00053039;0.01008838;0;0;0;0
1;1.28;128;0.15894225;-0.04591611;-0.99492788;2.23504281;-0.63462716;0.07398389;0;0;0;2.55195475;9.08211136;-136.0947723;1;0;0;0;-0.00105811;0.00206968;0.00844419;0;0;0;0
1;1.29;129;0.15813962;-0.04639713;-0.99150032;0.6937536;-0.03704939;0.01239807;0;0;0;2.59111714;9.07997894;-136.093277;1;0;0;0;-0.00031479;0.00219167;0.00502323;0;0;0;0
1;1.3;130;0.15883857;-0.04437653;-0.99176669;-0.6163556;0.18349133;-0.23145393;0;0;0;2.58459616;9.0819149;-136.09552;1;0;0;0;-0.00101015;-0.00021384;0.00530744;0;0;0;0
1;1.31;131;0.16069739;-0.04555639;-0.99366742;-1.73116195;0.39881569;-0.09277642;0;0;0;2.56716585;9.08594227;-136.096283;1;0;0;0;-0.00279828;0.00120742;0.00720857;0;0;0;0
1;1.32;132;0.16087055;-0.04634288;-0.99854088;-2.27118206;0.48868471;0.03738673;0;0;0;2.54454803;9.09080696;-136.0956879;1;0;0;0;-0.00289283;0.0023694;0.01207778;0;0;0;0
1;1.33;133;0.16184002;-0.04477319;-1.00034022;-1.98078001;0.65737325;-0.0341755;0;0;0;2.52473187;9.09739113;-136.0957489;1;0;0;0;-0.00377771;0.00115428;0.01387501;0;0;0;0
1;1.34;134;0.16135955;-0.043761;-1.00251198;-1.3195163;0.30741501;0.11109746;0;0;0;2.51523542;9.09522438;-136.094223;1;0;0;0;-0.00323585;0.00039559;0.01604538;0;0;0;0
1;1.35;135;0.15990198;-0.04496081;-1.0032239;0.11698122;-0.15023644;-0.06937259;0;0;0;2.51628423;9.09375381;-136.0950012;1;0;0;0;-0.00184362;0.00163366;0.01674519;0;0;0;0
1;1.36;136;0.15906909;-0.04532987;-1.0018177;1.67857111;-0.42459527;0.17076693;0;0;0;2.53331327;9.08943844;-136.0934601;1;0;0;0;-0.00105811;0.00182655;0.01533911;0;0;0;0
1;1.37;137;0.15993188;-0.04523132;-0.99746591;2.88177752;-0.81151026;-0.00601389;0;0;0;2.56206322;9.08133411;-136.0938873;1;0;0;0;-0.0020406;0.0012758;0.01098822;0;0;0;0
1;1.38;138;0.15950947;-0.04730544;-0.99526942;2.47249246;-0.34600335;0.03948199;0;0;0;2.5868268;9.07785988;-136.0936432;1;0;0;0;-0.00169868;0.00289704;0.00879909;0;0;0;0
1;1.39;139;0.15950304;-0.04534196;-0.99158561;1.19460499;-0.3159633;0.03797793;0;0;0;2.60063291;9.0802536;-136.0934753;1;0;0;0;-0.00174353;0.00061349;0.00512153;0;0;0;0
1;1.4;140;0.1582218;-0.0472619;-0.99122792;-0.49201003;0.16336745;-0.02322322;0;0;0;2.59568739;9.08189487;-136.0936432;1;0;0;0;-0.00039641;0.00248802;0.00477652;0;0;0;0
1;1.41;141;0.16061179;-0.04500484;-0.99332839;-1.80354524;0.36533976;-0.09228517;0;0;0;2.57753158;9.0855875;-136.0944061;1;0;0;0;-0.00273503;0.00045637;0.00687499;0;0;0;0
1;1.42;142;0.16040608;-0.04407323;-0.99718475;-2.71635103;0.78592038;-0.19864838;0;0;0;2.55010676;9.09352779;-136.0960693;1;0;0;0;-0.00241029;-0.00004138;0.01073091;0;0;0;0
1;1.43;143;0.1596026;-0.04171494;-1.00134289;-2.82455444;0.73614752;-0.25040832;0;0;0;2.52151322;9.10099411;-136.0982666;1;0;0;0;-0.00147028;-0.00189744;0.01488855;0;0;0;0
1;1.44;144;0.15936284;-0.04109781;-1.00440407;-2.07129121;0.55641901;-0.12175363;0;0;0;2.47917819;9.10136986;-136.1002197;1;0;0;0;-0.00113526;-0.0019958;0.01794237;0;0;0;0
1;1.45;145;0.15990151;-0.03965909;-1.00464249;0.11753988;-0.0989413;-0.06877469;0;0;0;2.48023605;9.10040951;-136.1009522;1;0;0;0;-0.00172763;-0.00302907;0.01815443;0;0;0;0
1;1.46;146;0.15922195;-0.04010754;-1.00161278;1.91229725;-0.44418326;0.18517433;0;0;0;2.49962449;9.09589195;-136.0992737;1;0;0;0;-0.00110336;-0.00281622;0.01512605;0;0;0;0
1;1.47;147;0.15972629;-0.04174491;-0.998402;3.10047841;-0.65861124;-0.14688128;0;0;0;2.53034806;9.0893774;-136.101059;1;0;0;0;-0.00171621;-0.0016504;0.01191853;0;0;0;0
1;1.48;148;0.15873078;-0.04300049;-0.99402827;3.04417491;-0.74517965;0.04527795;0;0;0;2.56080914;9.08191395;-136.1009369;1;0;0;0;-0.0008428;-0.00092514;0.00754863;0;0;0;0
1;1.49;149;0.15730573;-0.04673438;-0.99343306;2.50477338;-0.72208709;-0.01784431;0;0;0;2.58368993;9.07820606;-136.101471;1;0;0;0;0.00049787;0.00234999;0.00696048;0;0;0;0
1;1.5;150;0.15936713;-0.04656535;-0.98880315;-0.44079292;0.00761831;0.13180608;0;0;0;2.57949281;9.07822227;-136.1001434;1;0;0;0;-0.00160757;0.00205148;0.00232941;0;0;0;0
1;1.51;151;0.15667683;-0.04785151;-0.99775785;-2.31948137;0.96856797;-0.02636115;0;0;0;2.55632377;9.08790874;-136.0999756;1;0;0;0;0.00121342;0.00365665;0.01129061;0;0;0;0
1;1.52;152;0.16374162;-0.04255807;-0.99398702;-2.26895261;0.32255211;-0.54207116;0;0;0;2.53279209;9.0913744;-136.1053009;1;0;0;0;-0.00576297;-0.00125938;0.00751714;0;0;0;0
1;1.53;153;0.16157494;-0.0437372;-1.00214386;-3.11600757;0.78562176;0.31371519;0;0;0;2.50218844;9.09908199;-136.1017761;1;0;0;0;-0.00348025;0.00044713;0.01566939;0;0;0;0
1;1.54;154;0.16328171;-0.04491974;-1.00027704;-0.60251099;-0.20980459;-0.25375924;0;0;0;2.50462627;9.10799885;-136.1037293;1;0;0;0;-0.00512438;0.00186164;0.01380235;0;0;0;0
1;1.55;155;0.15996112;-0.04510002;-1.00484788;0.26578322;0.37719566;0.07501747;0;0;0;2.50743055;9.11173344;-136.1028137;1;0;0;0;-0.00160655;0.00195572;0.01840866;0;0;0;0
1;1.56;156;0.16209224;-0.04418636;-1.00104201;2.95415902;-0.91305721;-0.21808676;0;0;0;2.53655791;9.10270691;-136.105423;1;0;0;0;-0.00380934;0.00070756;0.01460594;0;0;0;0
1;1.57;157;0.15841381;-0.04637509;-0.99750376;3.52746177;-0.70271921;0.51234037;0;0;0;2.57260156;9.09545708;-136.1005554;1;0;0;0;-0.00029964;0.00227973;0.01106806;0;0;0;0
1;1.58;158;0.15787116;-0.04836106;-0.99144739;3.32737947;-1.15886509;0.0894319;0;0;0;2.60593438;9.08384037;-136.1001892;1;0;0;0;0.00007663;0.00366393;0.00501207;0;0;0;0
1;1.59;159;0.16061412;-0.04763842;-0.98797816;0.89674759;0.30440602;-0.16105253;0;0;0;2.60986876;9.08352661;-136.1020508;1;0;0;0;-0.00274244;0.00261892;0.0015453;0;0;0;0
1;1.6;160;0.16100416;-0.04828048;-0.99223799;-1.24527502;0.20807293;-0.36345962;0;0;0;2.59685063;9.08576965;-136.1056366;1;0;0;0;-0.00308907;0.00343936;0.00580393;0;0;0;0
1;1.61;161;0.16382864;-0.04563038;-0.99436677;-3.38412762;0.80748129;0.07226641;0;0;0;2.56318235;9.09380341;-136.104538;1;0;0;0;-0.00584367;0.00122343;0.0079242;0;0;0;0
1;1.62;162;0.15851209;-0.04308628;-1.00079882;-3.77975607;0.72757107;-0.11632403;0;0;0;2.52525043;9.1011219;-136.1053925;1;0;0;0;-0.00036252;-0.00064078;0.01435238;0;0;0;0
1;1.63;163;0.16169244;-0.04155798;-1.00195122;-2.91413236;0.88946396;-0.07251287;0;0;0;2.4960556;9.11004162;-136.1057282;1;0;0;0;-0.00342509;-0.00162252;0.0154995;0;0;0;0
1;1.64;164;0.15993746;-0.03910989;-1.00748897;-0.8324495;0.30372539;-0.03490083;0;0;0;2.49167609;9.1137085;-136.1056671;1;0;0;0;-0.00155368;-0.0037756;0.02104314;0;0;0;0
1;1.65;165;0.16079642;-0.03939509;-1.00157654;2.19636917;-0.89059526;0.05394044;0;0;0;2.51366377;9.10478783;-136.1055145;1;0;0;0;-0.00251473;-0.00375673;0.01512593;0;0;0;0
1;1.66;166;0.15533705;-0.04142526;-1.0020231;3.65335417;-0.94041789;0.1580141;0;0;0;2.55038285;9.09532166;-136.1043243;1;0;0;0;0.00281629;-0.00225075;0.01557492;0;0;0;0
1;1.67;167;0.15779763;-0.04399171;-0.99492222;4.1565609;-1.25029421;-0.20178127;0;0;0;2.59153652;9.08292198;-136.1069336;1;0;0;0;0.00014576;-0.00040233;0.00847246;0;0;0;0
1;1.68;168;0.15885089;-0.04593885;-0.99238563;1.88001454;-0.13561095;0.13670993;0;0;0;2.6105454;9.08150387;-136.1056061;1;0;0;0;-0.0010106;0.00106433;0.00594108;0;0;0;0
1;1.69;169;0.15861289;-0.04273462;-0.98946309;0.18793753;-0.23659617;-0.05376003;0;0;0;2.59709311;9.07375622;-136.1074371;1;0;0;0;-0.00083048;-0.00223347;0.00301361;0;0;0;0
1;1.7;170;0.15909027;-0.0438579;-0.99176419;-2.21717334;0.55565554;0.14251027;0;0;0;2.57518935;9.07924271;-136.1057434;1;0;0;0;-0.00134251;-0.00069081;0.00529021;0;0;0;0
1;1.71;171;0.16180022;-0.04306095;-0.99604481;-3.27505803;0.72326028;-0.21004789;0;0;0;2.54215574;9.0865612;-136.107544;1;0;0;0;-0.00392852;-0.00095844;0.00956695;0;0;0;0
1;1.72;172;0.1611025;-0.04213941;-1.00125003;-3.5087831;0.84411561;-0.06576919;0;0;0;2.5070219;9.09502506;-136.1078339;1;0;0;0;-0.00308331;-0.00127373;0.01476878;0;0;0;0
1;1.73;173;0.15882304;-0.042584;-1.00563633;-1.73202991;0.36403081;-0.02317928;0;0;0;2.48969007;9.09867191;-136.1079102;1;0;0;0;-0.00068818;-0.0003796;0.01915395;0;0;0;0
1;1.74;174;0.16169943;-0.04349744;-1.00493038;0.53011531;-0.1723616;0.03030486;0;0;0;2.49832249;9.09975529;-136.1073608;1;0;0;0;-0.00355866;0.00056802;0.01844738;0;0;0;0
1;1.75;175;0.16000436;-0.04402612;-1.00469029;2.63160086;-0.57049209;0.1048846;0;0;0;2.52476597;9.0940094;-136.1065521;1;0;0;0;-0.00190934;0.00072112;0.01821654;0;0;0;0
1;1.76;176;0.16054291;-0.04552272;-0.99694526;4.05003405;-1.0449146;-0.0930612;0;0;0;2.5650444;9.0836134;-136.1079559;1;0;0;0;-0.00260893;0.00158802;0.01047349;0;0;0;0
1;1.77;177;0.16042189;-0.04813801;-0.99331063;3.67402434;-0.75178093;0.07248928;0;0;0;2.60184669;9.07607174;-136.1075592;1;0;0;0;-0.00262927;0.00353408;0.00684625;0;0;0;0
1;1.78;178;0.15991288;-0.04979754;-0.9893052;1.77007294;-0.42373222;-0.04033271;0;0;0;2.61945224;9.07185745;-136.1081696;1;0;0;0;-0.00222209;0.00474772;0.00284484;0;0;0;0
1;1.79;179;0.15859435;-0.04957862;-0.99071574;-0.70655477;0.23480543;-0.12475002;0;0;0;2.61873245;9.07626724;-136.1087799;1;0;0;0;-0.00089587;0.00446215;0.00425966;0;0;0;0
1;1.8;180;0.16188544;-0.04641273;-0.99290293;-2.75372148;0.68339658;-0.16440141;0;0;0;2.59098268;9.08316994;-136.1101227;1;0;0;0;-0.0040624;0.00158295;0.00645365;0;0;0;0
1;1.81;181;0.16120188;-0.04425872;-0.99840945;-3.68676305;1.03399968;-0.06135215;0;0;0;2.55409122;9.09352589;-136.1102753;1;0;0;0;-0.00321864;0.00001322;0.01195943;0;0;0;0
1;1.82;182;0.16157171;-0.04141195;-1.00093997;-3.27592492;0.78974265;0.01823548;0;0;0;2.52141666;9.101408;-136.1097412;1;0;0;0;-0.00344293;-0.00223154;0.01448643;0;0;0;0
1;1.83;183;0.16074961;-0.04333585;-1.00416553;-1.80093884;0.60471708;-0.08949495;0;0;0;2.50330615;9.10748959;-136.1103973;1;0;0;0;-0.00250372;0.00011318;0.01771227;0;0;0;0
1;1.84;184;0.16152529;-0.04263673;-1.00462091;0.71088517;-0.30830464;-0.28849515;0;0;0;2.50181031;9.10240459;-136.1141205;1;0;0;0;-0.00326123;-0.00048382;0.01816602;0;0;0;0
1;1.85;185;0.1620068;-0.04351284;-1.0038271;2.57771683;-0.53604877;0.1409485;0;0;0;2.52777529;9.09698772;-136.1129456;1;0;0;0;-0.00385532;0.00015929;0.01736443;0;0;0;0
1;1.86;186;0.15782256;-0.04183855;-0.9950667;3.40249443;-0.81835341;0.18002275;0;0;0;2.56202984;9.08873177;-136.111496;1;0;0;0;0.00020059;-0.00207307;0.00860822;0;0;0;0
1;1.87;187;0.15747777;-0.0451361;-0.99367136;2.66791582;-0.58736295;0.03424459;0;0;0;2.58872151;9.08285046;-136.1114197;1;0;0;0;0.00041243;0.00068297;0.00721578;0;0;0;0
1;1.88;188;0.16476777;-0.04163845;-0.98895776;-0.20688525;-0.33242884;-0.3825413;0;0;0;2.58601832;9.07970238;-136.1154327;1;0;0;0;-0.0069619;-0.00299815;0.00249696;0;0;0;0
1;1.89;189;0.15601407;-0.04161228;-0.99320036;-3.10099339;1.84983778;-0.16389848;0;0;0;2.55741143;9.09616375;-136.1161194;1;0;0;0;0.00197012;-0.00260356;0.00674918;0;0;0;0
1;1.9;190;0.16099392;-0.0410331;-0.99778426;0.36374286;-0.81724405;-0.36024299;0;0;0;2.56041527;9.08816051;-136.1201172;1;0;0;0;-0.00292817;-0.00301117;0.01133843;0;0;0;0
1;1.91;191;0.15947962;-0.04200284;-0.99350214;-2.00528145;-0.67125648;1.38539124;0;0;0;2.54252696;9.08083725;-136.1064148;1;0;0;0;-0.00164082;-0.00197965;0.00701736;0;0;0;0
1;1.92;192;0.14334863;-0.04751161;-1.00791943;-3.09167528;1.3330307;0.26737362;0;0;0;2.5121305;9.09403515;-136.1031189;1;0;0;0;0.01464085;0.0040772;0.0214344;0;0;0;0
1;1.93;193;0.16160859;-0.04357951;-0.99938625;0.3228738;1.14445257;-1.73654807;0;0;0;2.5126617;9.10623074;-136.1201782;1;0;0;0;-0.00344601;0.00031761;0.01292138;0;0;0;0
1;1.94;194;0.16641985;-0.04168556;-1.00292361;3.0463469;-0.55695039;0.0299713;0;0;0;2.54225349;9.10234642;-136.120163;1;0;0;0;-0.00814569;-0.00187407;0.01648974;0;0;0;0
1;1.95;195;0.16220903;-0.04253366;-0.98752612;3.33925366;-2.622437;1.24447536;0;0;0;2.5774467;9.07559109;-136.1087494;1;0;0;0;-0.00435295;-0.00172443;0.00105634;0;0;0;0
1;1.96;196;0.15115833;-0.04701512;-0.99886698;-0.54869592;1.31306112;-0.41145581;0;0;0;2.57139564;9.08889389;-136.11232;1;0;0;0;0.00669637;0.00266817;0.01240091;0;0;0;0
1;1.97;197;0.17540967;-0.03764247;-0.98729956;-0.37619954;0.96942568;-2.44752026;0;0;0;2.56378913;9.09967518;-136.1366272;1;0;0;0;-0.01732791;-0.00659554;0.00086494;0;0;0;0
1;1.98;198;0.17372952;-0.03909947;-0.99937767;-2.71031451;0.58589762;1.19885182;0;0;0;2.53864765;9.10499573;-136.1242371;1;0;0;0;-0.01547122;-0.00478398;0.01295555;0;0;0;0
1;1.99;199;0.15444133;-0.04720343;-1.00073051;-0.98128486;-2.20772791;1.86221945;0;0;0;2.53322244;9.07188034;-136.1065216;1;0;0;0;0.00350833;0.00354315;0.01424915;0;0;0;0
1;2;200;0.14450642;-0.05106788;-1.00447011;-0.19918466;0.7906251;0.27807322;0;0;0;2.53172898;9.0796566;-136.1033478;1;0;0;0;0.01320853;0.00744772;0.01794925;0;0;0;0
1;2.01;201;0.16155101;-0.0484825;-1.00099885;2.16933918;0.2727364;-1.97941494;0;0;0;2.55028129;9.08326054;-136.1232758;1;0;0;0;-0.00368922;0.0046811;0.01450957;0;0;0;0
1;2.02;202;0.16801824;-0.04445374;-0.99579442;1.14444542;0.12795924;0.18381871;0;0;0;2.56202769;9.08445454;-136.1213532;1;0;0;0;-0.0101264;0.00038739;0.00932179;0;0;0;0
1;2.03;203;0.15184741;-0.04858636;-0.99645203;2.51882148;-1.86240685;1.33347404;0;0;0;2.58921123;9.0652504;-136.1087036;1;0;0;0;0.00587045;0.00419016;0.00996636;0;0;0;0
1;2.04;204;0.15315227;-0.05009648;-0.99179953;2.08909774;-0.71985328;0.21475875;0;0;0;2.62570477;9.05732059;-136.1059265;1;0;0;0;0.00427;0.00514262;0.00529195;0;0;0;0
1;2.05;205;0.16142808;-0.04617056;-0.99173868;-0.72637087;1.1151216;-1.05908358;0;0;0;2.61683321;9.06894398;-136.1161346;1;0;0;0;-0.00387916;0.0009889;0.00526164;0;0;0;0
1;2.06;206;0.16945353;-0.04012093;-0.98826957;-4.05706692;1.4689188;-0.48917112;0;0;0;2.57558894;9.08384228;-136.1204071;1;0;0;0;-0.01169173;-0.00456683;0.00180405;0;0;0;0
1;2.07;207;0.1648872;-0.0415737;-0.99918872;-4.25055504;0.76277804;0.32733232;0;0;0;2.53366137;9.09131718;-136.116745;1;0;0;0;-0.00690111;-0.00232412;0.01272362;0;0;0;0
1;2.08;208;0.16368149;-0.0421756;-1.00176632;-2.83876085;-0.17521182;0.35149166;0;0;0;2.50582314;9.08941269;-136.113266;1;0;0;0;-0.00570294;-0.00117206;0.01527579;0;0;0;0
1;2.09;209;0.15497729;-0.04307559;-1.0089227;-1.60420871;0.68558061;0.22403532;0;0;0;2.48156929;9.06130314;-136.1109619;1;0;0;0;0.0029397;0.00016219;0.02240326;0;0;0;0
1;2.1;210;0.15994166;-0.04415247;-1.00423145;2.44020438;-0.47625571;-0.69662291;0;0;0;2.50482941;9.05684948;-136.1182251;1;0;0;0;-0.00247785;0.00117943;0.01764221;0;0;0;0
1;2.11;211;0.15577759;-0.0431528;-1.00215173;3.83139944;-0.87706053;0.54156327;0;0;0;2.54394341;9.04784775;-136.1131287;1;0;0;0;0.00153457;-0.0004241;0.01556472;0;0;0;0
1;2.12;212;0.15074606;-0.04047173;-0.9911527;4.32666349;-1.83770454;0.29668698;0;0;0;2.58755088;9.02935696;-136.1109467;1;0;0;0;0.00630091;-0.00386735;0.0045574;0;0;0;0
1;2.13;213;0.15245147;-0.04698159;-0.9916352;0.97384751;0.78229284;-0.13886303;0;0;0;2.59712529;9.03723431;-136.1119995;1;0;0;0;0.00453257;0.00225211;0.0050475;0;0;0;0
1;2.14;214;0.16628961;-0.04548142;-0.98829651;0.8243565;-0.33667332;-1.11267877;0;0;0;2.59379816;9.05883598;-136.1231537;1;0;0;0;-0.00910939;0.00069285;0.00174272;0;0;0;0
1;2.15;215;0.16266307;-0.04309081;-0.98789513;-2.89990854;1.07045662;0.75190711;0;0;0;2.56607413;9.06919384;-136.1150665;1;0;0;0;-0.00512907;-0.00133876;0.00138153;0;0;0;0
1;2.16;216;0.157757;-0.04208387;-0.99825364;-2.73932028;0.20637275;-0.39769053;0;0;0;2.53806138;9.07143116;-136.118988;1;0;0;0;-0.0000744;-0.00180635;0.01173972;0;0;0;0
1;2.17;217;0.16628291;-0.03540871;-0.99027807;-3.85655427;1.70616686;-0.47132924;0;0;0;2.49886274;9.08868408;-136.1230011;1;0;0;0;-0.00848176;-0.00793271;0.00375876;0;0;0;0
1;2.18;218;0.15893976;-0.0325752;-1.00434017;-1.63202846;0.9656893;-0.50728643;0;0;0;2.48179793;9.0985508;-136.1277161;1;0;0;0;-0.00081754;-0.01021028;0.01784799;0;0;0;0
1;2.19;219;0.16155763;-0.02976717;-0.990417;2.55288768;-1.18531287;0.09859972;0;0;0;2.49591255;9.08710003;-136.1277618;1;0;0;0;-0.00357339;-0.0132066;0.00391091;0;0;0;0
1;2.2;220;0.14988211;-0.03532945;-0.99698454;3.72406626;-0.75702572;0.63178796;0;0;0;2.53410983;9.07925987;-136.1217194;1;0;0;0;0.00801317;-0.00803674;0.01048142;0;0;0;0
1;2.21;221;0.1576921;-0.04000307;-0.99064845;-0.18024625;-0.86710209;0.11830469;0;0;0;2.53243375;9.0705452;-136.1209106;1;0;0;0;-0.00004475;-0.00382201;0.00412597;0;0;0;0
1;2.22;222;0.13930409;-0.05173783;-1.01581609;-10.42327595;3.04285431;0.98973799;0;0;0;2.42999315;9.10051441;-136.1095581;1;0;0;0;0.01868531;0.00918497;0.02929267;0;0;0;0
1;2.23;223;0.15275495;-0.0490505;-1.01703751;-7.954741;1.85616553;-1.17186415;0;0;0;2.34869218;9.11954784;-136.120636;1;0;0;0;0.005604;0.0081135;0.03050502;0;0;0;0
1;2.24;224;0.16570352;-0.04189591;-1.02161181;-1.06296027;1.8001287;-0.76690143;0;0;0;2.33868551;9.13820267;-136.1275482;1;0;0;0;-0.00697732;0.00168408;0.03510839;0;0;0;0
1;2.25;225;0.17695053;-0.03649748;-1.00680542;10.24590969;-2.76210046;-0.60912085;0;0;0;2.4399817;9.11085606;-136.1348724;1;0;0;0;-0.01838055;-0.0047684;0.02032053;0;0;0;0
1;2.26;226;0.17440267;-0.04235372;-0.98808593;13.05901814;-2.95809746;0.99905747;0;0;0;2.57196283;9.08086586;-136.1260681;1;0;0;0;-0.01639787;-0.00110258;0.00160453;0;0;0;0
1;2.27;227;0.16989915;-0.05220676;-0.98225176;11.89174747;-3.16234159;0.25847304;0;0;0;2.69106078;9.04916096;-136.1249237;1;0;0;0;-0.01239365;0.00657921;-0.00421156;0;0;0;0
1;2.28;228;0.17573085;-0.06092489;-0.96760321;5.49889231;-1.62757993;0.33731401;0;0;0;2.74646235;9.0327425;-136.1222839;1;0;0;0;-0.01867522;0.01383518;-0.01886325;0;0;0;0
1;2.29;229;0.16011238;-0.07000513;-0.97912365;-1.54671443;-0.24374504;0.84234488;0;0;0;2.74824786;9.02735901;-136.1131592;1;0;0;0;-0.00315987;0.02268552;-0.00734825;0;0;0;0
1;2.3;230;0.15353027;-0.06807059;-0.98399806;-7.24690437;1.63186932;0.23425941;0;0;0;2.67627263;9.04354763;-136.1100159;1;0;0;0;0.00348762;0.02140164;-0.00249431;0;0;0;0
1;2.31;231;0.15448302;-0.05946666;-1.00123894;-9.70653629;3.22195148;-0.81933612;0;0;0;2.57813692;9.07610512;-136.116806;1;0;0;0;0.00306199;0.01440746;0.01475577;0;0;0;0
1;2.32;232;0.16706054;-0.04471396;-1.00238323;-9.49596786;2.57196188;-1.05706549;0;0;0;2.48167038;9.10226822;-136.1263428;1;0;0;0;-0.00902776;0.00135199;0.01590203;0;0;0;0
1;2.33;233;0.16256379;-0.03748631;-1.01449287;-7.61646318;2.33771634;0.12461009;0;0;0;2.40586448;9.1255703;-136.1240845;1;0;0;0;-0.00408391;-0.00437826;0.02801867;0;0;0;0
1;2.34;234;0.16531353;-0.03080799;-1.01332796;-1.69894242;0.00578049;-0.1678011;0;0;0;2.36042118;9.12865257;-136.1271973;1;0;0;0;-0.00668515;-0.01026066;0.02684408;0;0;0;0
1;2.35;235;0.16299669;-0.03460997;-1.01377606;3.2626307;-0.39004025;0.25678083;0;0;0;2.39343309;9.12465096;-136.1247559;1;0;0;0;-0.00438006;-0.00634081;0.02728543;0;0;0;0
1;2.36;236;0.16295661;-0.03838729;-1.00447881;8.4620266;-2.5098815;0.01065799;0;0;0;2.47789931;9.09957027;-136.1257324;1;0;0;0;-0.00462189;-0.00370585;0.0179911;0;0;0;0
1;2.37;237;0.1541426;-0.0414612;-0.99301928;9.21237755;-2.57491899;0.73567176;0;0;0;2.57101727;9.07352066;-136.1194305;1;0;0;0;0.00371897;-0.00225255;0.0065262;0;0;0;0
1;2.38;238;0.14852442;-0.04433138;-0.9824723;6.52641201;-1.77125764;-0.07943684;0;0;0;2.63602734;9.05586433;-136.1210632;1;0;0;0;0.00897962;-0.00072405;-0.00401765;0;0;0;0
1;2.39;239;0.15485653;-0.04138323;-0.97656792;0.26913235;0.51618785;-0.18587223;0;0;0;2.63570762;9.06301403;-136.1227264;1;0;0;0;0.00257929;-0.00413665;-0.00991163;0;0;0;0
1;2.4;240;0.15448733;-0.03858307;-0.98265332;-4.92244005;1.50985456;-0.2506077;0;0;0;2.58619308;9.07821083;-136.1245575;1;0;0;0;0.00320711;-0.00633319;-0.00381261;0;0;0;0
1;2.41;241;0.15839574;-0.03762557;-0.98965746;-8.17976284;1.79703641;0.02013546;0;0;0;2.50455523;9.09615517;-136.1235657;1;0;0;0;-0.00043595;-0.00609608;0.00318046;0;0;0;0
1;2.42;242;0.15572135;-0.03735537;-1.00387478;-8.44800282;2.08879495;0.219349;0;0;0;2.42056966;9.11693096;-136.1204376;1;0;0;0;0.0025981;-0.00486164;0.01738985;0;0;0;0
1;2.43;243;0.15958312;-0.03778499;-1.01042509;-5.10420752;1.20579672;-0.47945657;0;0;0;2.36884022;9.12918091;-136.1247711;1;0;0;0;-0.00099786;-0.00331066;0.02393548;0;0;0;0
1;2.44;244;0.16206922;-0.03771009;-1.01599562;-0.84821862;0.47533044;-0.08518214;0;0;0;2.35892558;9.13672829;-136.1253204;1;0;0;0;-0.00331564;-0.00292539;0.02951401;0;0;0;0
1;2.45;245;0.15937521;-0.0397643;-1.01208758;4.31443071;-1.34123027;0.2501924;0;0;0;2.40238237;9.12322617;-136.1233521;1;0;0;0;-0.00071014;-0.00128185;0.02560876;0;0;0;0
1;2.46;246;0.15787828;-0.04463783;-1.00469649;7.74650955;-1.82211864;0.43000466;0;0;0;2.48041224;9.10483646;-136.1197815;1;0;0;0;0.00047196;0.00243325;0.01821606;0;0;0;0
1;2.47;247;0.16028145;-0.04972268;-0.99132609;8.57872868;-1.82555699;-0.15769413;0;0;0;2.56581855;9.08666706;-136.1222076;1;0;0;0;-0.00224406;0.00604713;0.00485943;0;0;0;0
1;2.48;248;0.16594091;-0.05201584;-0.97953159;5.66786432;-1.24965644;-0.06277922;0;0;0;2.62230659;9.07421207;-136.1234131;1;0;0;0;-0.00816459;0.0071344;-0.0069228;0;0;0;0
1;2.49;249;0.1644568;-0.05288404;-0.97950703;0.81549245;-0.33030641;0.1649431;0;0;0;2.65969872;9.08594799;-136.1187592;1;0;0;0;-0.00671946;0.00743112;-0.00692733;0;0;0;0
1;2.5;250;0.16347119;-0.05298092;-0.98382837;-3.47618961;0.58654439;0.01829103;0;0;0;2.62500906;9.09179974;-136.1183014;1;0;0;0;-0.00550268;0.00747981;-0.00256686;0;0;0;0
1;2.51;251;0.16130458;-0.05151837;-0.99172962;-6.72023487;1.8683728;-0.04938511;0;0;0;2.55786204;9.11048317;-136.1179504;1;0;0;0;-0.00309193;0.0069929;0.00532904;0;0;0;0
1;2.52;252;0.16293541;-0.04829608;-1.00029111;-7.43699789;1.9470613;-0.40716666;0;0;0;2.48297668;9.13011551;-136.1212158;1;0;0;0;-0.00438329;0.00503889;0.01388861;0;0;0;0
1;2.53;253;0.16058823;-0.04648402;-1.00907958;-6.0577302;1.58739591;0.02668935;0;0;0;2.42255211;9.14596558;-136.1202393;1;0;0;0;-0.00174535;0.00439915;0.02267313;0;0;0;0
1;2.54;254;0.15900409;-0.04261147;-1.01274288;-1.55200303;0.29471728;-0.13119484;0;0;0;2.39606977;9.12435341;-136.1229553;1;0;0;0;-0.00010651;0.00116429;0.02631821;0;0;0;0
1;2.55;255;0.16133347;-0.04050603;-1.00850308;3.31967592;-0.40385711;-0.19905826;0;0;0;2.42891932;9.12040138;-136.1251373;1;0;0;0;-0.00278795;-0.00107835;0.02202749;0;0;0;0
1;2.56;256;0.16126785;-0.04117165;-0.99983674;6.11582327;-1.49295092;-0.14112693;0;0;0;2.489748;9.105546;-136.1272125;1;0;0;0;-0.00288939;-0.00129566;0.01337197;0;0;0;0
1;2.57;257;0.16111922;-0.04111558;-0.9893297;5.70194674;-1.37044072;0.02287538;0;0;0;2.54670787;9.09184551;-136.1276093;1;0;0;0;-0.00302106;-0.00241781;0.0028664;0;0;0;0
1;2.58;258;0.15697558;-0.04365386;-0.98704964;2.86514044;-0.60717863;0.1190928;0;0;0;2.57550669;9.08572578;-136.1266632;1;0;0;0;0.00097268;-0.00056582;0.0005929;0;0;0;0
1;2.59;259;0.158095;-0.04256276;-0.98404133;-0.29801226;-0.13031629;0.09343399;0;0;0;2.57309985;9.0799284;-136.1259155;1;0;0;0;-0.00024498;-0.00184591;-0.00242268;0;0;0;0
1;2.6;260;0.15566146;-0.04298623;-0.99038827;-3.18485641;0.87448072;0.00062067;0;0;0;2.54131508;9.08866405;-136.1255188;1;0;0;0;0.00224253;-0.00103057;0.00391535;0;0;0;0
1;2.61;261;0.15823695;-0.04060448;-0.99297804;-4.40569592;1.05948246;-0.19224539;0;0;0;2.49702525;9.09933376;-136.1269836;1;0;0;0;-0.00016369;-0.00271094;0.00650114;0;0;0;0
1;2.62;262;0.15667209;-0.0401483;-1.00275087;-4.87022972;1.45654869;-0.07688364;0;0;0;2.44829965;9.1139164;-136.1271362;1;0;0;0;0.00163962;-0.00233353;0.01627596;0;0;0;0
1;2.63;263;0.1573146;-0.04021171;-1.00685477;-3.22222805;0.67068946;-0.12381855;0;0;0;2.41592455;9.12066936;-136.1280975;1;0;0;0;0.0011605;-0.0015873;0.02037698;0;0;0;0
1;2.64;264;0.15689543;-0.03919788;-1.00930214;-0.18614793;0.21071702;0.07858621;0;0;0;2.41400528;9.11464691;-136.1274872;1;0;0;0;0.00161461;-0.00236073;0.02281977;0;0;0;0
1;2.65;265;0.16004112;-0.03821663;-1.00460589;3.38678479;-0.83233136;-0.16993277;0;0;0;2.44754481;9.10640526;-136.1295624;1;0;0;0;-0.00172092;-0.00370322;0.01810825;0;0;0;0
1;2.66;266;0.16252564;-0.04128366;-0.99986559;5.14627934;-1.24384248;-0.12632325;0;0;0;2.49871945;9.09403229;-136.1313934;1;0;0;0;-0.00439026;-0.00142914;0.01337247;0;0;0;0
1;2.67;267;0.16291066;-0.04802253;-0.99345899;4.85346031;-1.36476386;0.36581147;0;0;0;2.54774261;9.08023739;-136.1282959;1;0;0;0;-0.0049984;0.00443631;0.00696826;0;0;0;0
1;2.68;268;0.16098313;-0.05273835;-0.99222523;3.50958085;-0.87117076;0.23058693;0;0;0;2.58314514;9.07143307;-136.126358;1;0;0;0;-0.00325942;0.00844897;0.00573562;0;0;0;0
1;2.69;269;0.1631601;-0.05322525;-0.98670942;1.37581086;-0.26573515;-0.05114362;0;0;0;2.64098477;9.08656406;-136.1247406;1;0;0;0;-0.0054604;0.00834852;0.00024262;0;0;0;0
1;2.7;270;0.16659342;-0.05369323;-0.98851258;-0.9746719;0.49295527;0.00406911;0;0;0;2.63127971;9.09148502;-136.1244812;1;0;0;0;-0.00862121;0.00826938;0.0021144;0;0;0;0
1;2.71;271;0.16527303;-0.0534575;-0.99491626;-2.68394327;0.57876235;-0.00899663;0;0;0;2.60446835;9.09727097;-136.1243134;1;0;0;0;-0.00720667;0.00839349;0.00851662;0;0;0;0
1;2.72;272;0.16330157;-0.05381097;-0.99969983;-3.56161189;0.99795365;0.00668773;0;0;0;2.56893444;9.10723686;-136.1237793;1;0;0;0;-0.00508076;0.00933341;0.01329835;0;0;0;0
1;2.73;273;0.16195694;-0.05054738;-1.00115955;-2.07011342;0.57469332;-0.2615459;0;0;0;2.54785657;9.11309719;-136.1261749;1;0;0;0;-0.00360157;0.00652708;0.01475911;0;0;0;0
1;2.74;274;0.1632304;-0.04922208;-1.00363326;-1.42492795;0.44660625;-0.04346376;0;0;0;2.53162718;9.11371326;-136.126358;1;0;0;0;-0.00480602;0.00550248;0.01723053;0;0;0;0
1;2.75;275;0.16300879;-0.04712006;-1.00445235;-0.27591485;0.14440061;-0.06109008;0;0;0;2.52877975;9.11518192;-136.1269226;1;0;0;0;-0.00458907;0.00356383;0.01804169;0;0;0;0
1;2.76;276;0.16411759;-0.04431003;-1.00113082;0.92946291;-0.08804109;-0.30607286;0;0;0;2.53757763;9.11443806;-136.1300507;1;0;0;0;-0.00571364;0.0006557;0.01472197;0;0;0;0
1;2.77;277;0.16274965;-0.0406084;-0.99689108;1.71786451;-0.23540334;-0.00247516;0;0;0;2.55473495;9.11208725;-136.130188;1;0;0;0;-0.00436682;-0.00328567;0.01048943;0;0;0;0
1;2.78;278;0.16117552;-0.04137405;-0.99456882;2.10741067;-0.73654395;0.1443412;0;0;0;2.57598758;9.1046629;-136.1290588;1;0;0;0;-0.00288698;-0.00286995;0.00816773;0;0;0;0
1;2.79;279;0.15644239;-0.04178042;-0.99240386;0.7983591;-0.19407411;0.25425467;0;0;0;2.56335902;9.08134365;-136.1270752;1;0;0;0;0.00167726;-0.00261232;0.00598232;0;0;0;0
1;2.8;280;0.15261658;-0.04059159;-0.99461138;-0.20694397;-0.07933418;0.02292378;0;0;0;2.5613203;9.08054066;-136.1268768;1;0;0;0;0.00522009;-0.00355876;0.00813365;0;0;0;0
1;2.81;281;0.15419692;-0.04199388;-0.99528819;-2.53830647;0.81552202;0.13200524;0;0;0;2.53620625;9.08863068;-136.1251831;1;0;0;0;0.00370847;-0.00187722;0.00880896;0;0;0;0
1;2.82;282;0.15395394;-0.04152646;-1.00199533;-2.10673809;0.64183038;-0.06781537;0;0;0;2.51507545;9.09506989;-136.1255798;1;0;0;0;0.00408841;-0.00192549;0.0155195;0;0;0;0
1;2.83;283;0.15801044;-0.03876638;-0.99836248;-1.17288899;0.44408336;-0.04657834;0;0;0;2.50330377;9.09953117;-136.1258545;1;0;0;0;0.0000953;-0.00444007;0.01188608;0;0;0;0
1;2.84;284;0.15505223;-0.03687378;-1.00166845;0.22661144;-0.01438359;-0.08661198;0;0;0;2.49917531;9.09751415;-136.1269226;1;0;0;0;0.00310938;-0.00621797;0.01519595;0;0;0;0
1;2.85;285;0.15761653;-0.03573624;-0.99626803;1.48103642;-0.42202488;0.10321829;0;0;0;2.51412082;9.09325314;-136.1260529;1;0;0;0;0.0004477;-0.00747728;0.00978518;0;0;0;0
1;2.86;286;0.1544361;-0.03709374;-1.00013876;1.43354309;0.07569182;-0.04782505;0;0;0;2.52838516;9.09403133;-136.1265106;1;0;0;0;0.00362877;-0.00635675;0.01366651;0;0;0;0
1;2.87;287;0.15955696;-0.03797308;-0.99385351;1.37438226;-0.52059382;-0.24662143;0;0;0;2.54169846;9.08893967;-136.1292419;1;0;0;0;-0.0015703;-0.00574577;0.0073806;0;0;0;0
1;2.88;288;0.15828329;-0.0391235;-0.99683177;0.09953973;0.10377348;0.24882025;0;0;0;2.54309797;9.08986378;-136.1266937;1;0;0;0;-0.0003094;-0.00469293;0.01036114;0;0;0;0
1;2.89;289;0.1566166;-0.03995821;-0.99356031;-0.56414557;0.1301855;-0.05772986;0;0;0;2.52956796;9.08080006;-136.1275177;1;0;0;0;0.00132272;-0.00377957;0.00708064;0;0;0;0
1;2.9;290;0.15780485;-0.04065133;-0.99702251;-1.38718402;0.65083843;0.02847866;0;0;0;2.5157876;9.08729076;-136.1269531;1;0;0;0;0.00009621;-0.00278184;0.01052317;0;0;0;0
1;2.91;291;0.16110519;-0.03928695;-1.00053406;-0.94177014;0.11760646;-0.14075187;0;0;0;2.50615263;9.08852577;-136.1283112;1;0;0;0;-0.00314333;-0.00394672;0.01403575;0;0;0;0
1;2.92;292;0.15858892;-0.04172601;-1.00171232;-0.77856433;0.37054932;0.0877215;0;0;0;2.4985323;9.09218979;-136.1272736;1;0;0;0;-0.00057851;-0.00135001;0.0152148;0;0;0;0
1;2.93;293;0.15888759;-0.04507664;-1.00227654;0.69164354;-0.24208295;-0.00749243;0;0;0;2.50542045;9.08977604;-136.1274567;1;0;0;0;-0.00089011;0.00197451;0.01577818;0;0;0;0
1;2.94;294;0.16149883;-0.04768028;-1.00121021;1.98523939;-0.32565644;0.23817647;0;0;0;2.52562046;9.07955074;-136.125351;1;0;0;0;-0.00358827;0.00430249;0.01470998;0;0;0;0
1;2.95;295;0.16322476;-0.04988499;-0.99858147;2.86445761;-0.72613215;0.03020302;0;0;0;2.55426264;9.0722847;-136.1253662;1;0;0;0;-0.00548996;0.00606935;0.01207256;0;0;0;0
1;2.96;296;0.16456251;-0.05121234;-0.99380577;2.88221145;-0.79411787;-0.0408124;0;0;0;2.58296299;9.0643692;-136.1261444;1;0;0;0;-0.00696559;0.00688735;0.00729753;0;0;0;0
1;2.97;297;0.16580027;-0.05312877;-0.991575;1.610654;-0.18273298;-0.03554026;0;0;0;2.59899855;9.06255913;-136.1265869;1;0;0;0;-0.00827868;0.00844173;0.00507107;0;0;0;0
1;2.98;298;0.16381003;-0.05264081;-0.99105579;-0.63423312;0.28508577;-0.09004412;0;0;0;2.59253359;9.06544876;-136.1273651;1;0;0;0;-0.00626349;0.00791154;0.00455779;0;0;0;0
1;2.99;299;0.16290185;-0.05139609;-0.99433011;-2.376158;0.78029144;0.05960866;0;0;0;2.57607174;9.08080196;-136.126236;1;0;0;0;-0.0052246;0.00693203;0.00784105;0;0;0;0
1;3;300;0.16454248;-0.05016159;-0.99756938;-3.00538802;0.75387198;-0.10799278;0;0;0;2.54589868;9.08838081;-136.1269836;1;0;0;0;-0.00663939;0.00609672;0.0110985;0;0;0;0
1;3.01;301;0.16499913;-0.0477794;-0.99988723;-2.57629871;0.54348439;-0.0107301;0;0;0;2.52015638;9.0938139;-136.1268463;1;0;0;0;-0.00698427;0.0041972;0.01341279;0;0;0;0
1;3.02;302;0.16583155;-0.04739605;-1.00279438;-1.4247427;0.39619306;-0.14905527;0;0;0;2.50569773;9.0978384;-136.1281891;1;0;0;0;-0.00772057;0.00416835;0.01631966;0;0;0;0
1;3.03;303;0.16213888;-0.04540113;-1.00270092;0.38820192;-0.06715361;-0.10671102;0;0;0;2.50940442;9.09721279;-136.129303;1;0;0;0;-0.00400538;0.00222145;0.01622784;0;0;0;0
1;3.04;304;0.16150828;-0.04424291;-1.00058377;1.53398955;-0.54196018;0.06615793;0;0;0;2.53108716;9.09517288;-136.1287231;1;0;0;0;-0.0034433;0.00082834;0.01410997;0;0;0;0
1;3.05;305;0.15960947;-0.04126017;-0.99745059;2.0380671;-0.54700589;0.05992868;0;0;0;2.55152464;9.08968163;-136.1283569;1;0;0;0;-0.00160453;-0.00258035;0.010986;0;0;0;0
1;3.06;306;0.1575233;-0.04123989;-0.99285924;1.33992887;-0.33273926;-0.17398842;0;0;0;2.56462169;9.08643436;-136.1302643;1;0;0;0;0.00041842;-0.00288081;0.00639701;0;0;0;0
1;3.07;307;0.15813124;-0.0391262;-0.99306422;0.08376843;0.1065997;-0.06593814;0;0;0;2.56536102;9.08752728;-136.1308746;1;0;0;0;-0.00020488;-0.00509047;0.00660372;0;0;0;0
1;3.08;308;0.15534253;-0.03862054;-0.99306709;-1.26631534;0.18777369;0.03903916;0;0;0;2.55277395;9.08938503;-136.1303864;1;0;0;0;0.00262182;-0.00544874;0.00660615;0;0;0;0
1;3.09;309;0.15501165;-0.0379071;-0.99640375;-2.18079638;0.48822469;-0.01622237;0;0;0;2.51597857;9.08593082;-136.1307373;1;0;0;0;0.00298506;-0.00577711;0.00993095;0;0;0;0
1;3.1;310;0.15649068;-0.0373391;-1.00041187;-2.53775001;0.69803852;-0.13187389;0;0;0;2.49043894;9.09296131;-136.1317444;1;0;0;0;0.00150669;-0.00572874;0.01391196;0;0;0;0
1;3.11;311;0.15795323;-0.03566538;-1.00104582;-1.94483697;0.60630572;-0.10521413;0;0;0;2.47086406;9.09906387;-136.1325531;1;0;0;0;0.00014669;-0.00701717;0.01454566;0;0;0;0
1;3.12;312;0.15876023;-0.03486111;-1.0029099;-0.38585526;-0.00869759;-0.02655109;0;0;0;2.46696162;9.09898758;-136.1328278;1;0;0;0;-0.0006088;-0.00764495;0.01641032;0;0;0;0
1;3.13;313;0.15664569;-0.03717794;-1.00145245;1.23135519;-0.24793014;0.03833019;0;0;0;2.47931933;9.09649467;-136.1325531;1;0;0;0;0.00147199;-0.00544262;0.01495248;0;0;0;0
1;3.14;314;0.15764929;-0.03815098;-0.99780923;2.82925916;-0.64042687;0.04914344;0;0;0;2.50294805;9.08952141;-136.1324158;1;0;0;0;0.00038601;-0.00483003;0.01131171;0;0;0;0
1;3.15;315;0.15857334;-0.04329376;-0.99525505;2.98880219;-0.81376755;0.13264281;0;0;0;2.53299093;9.08133507;-136.131424;1;0;0;0;-0.00068701;-0.00015472;0.00875404;0;0;0;0
1;3.16;316;0.16005442;-0.048037;-0.99361718;2.27104878;-0.63498753;0.07353895;0;0;0;2.55577374;9.07495785;-136.1309662;1;0;0;0;-0.00228199;0.00414959;0.00711741;0;0;0;0
1;3.17;317;0.16155778;-0.05079459;-0.99390125;1.08602965;-0.36617729;0.03871484;0;0;0;2.56666946;9.07128239;-136.1307373;1;0;0;0;-0.00387844;0.00662301;0.00739934;0;0;0;0
1;3.18;318;0.16243272;-0.05216829;-0.99316996;-0.31303629;0.14343795;0.09684525;0;0;0;2.56370378;9.07267189;-136.1296997;1;0;0;0;-0.00475951;0.00795181;0.00666906;0;0;0;0
1;3.19;319;0.16432673;-0.05034278;-0.99432343;-1.74866879;0.39958391;-0.16254973;0;0;0;2.55721784;9.08349228;-136.1307526;1;0;0;0;-0.00657823;0.00629603;0.00782701;0;0;0;0
1;3.2;320;0.16510259;-0.04952256;-0.99781096;-2.66122603;0.85421431;-0.25101548;0;0;0;2.53026485;9.09213734;-136.1329041;1;0;0;0;-0.00712648;0.00575792;0.01133831;0;0;0;0
1;3.21;321;0.16656817;-0.04748358;-1.00129235;-2.24927115;0.74630332;-0.11733662;0;0;0;2.50763702;9.09964371;-136.1337585;1;0;0;0;-0.00845885;0.00415344;0.0148219;0;0;0;0
1;3.22;322;0.16645361;-0.04677609;-1.00113654;-1.23186052;0.10118634;0.12509239;0;0;0;2.49552608;9.1006012;-136.1324463;1;0;0;0;-0.00828393;0.00371996;0.01466382;0;0;0;0
1;3.23;323;0.1617965;-0.04835482;-1.00513339;0.36474049;-0.37724331;0.18740596;0;0;0;2.49944663;9.09674931;-136.1307221;1;0;0;0;-0.00367075;0.00533739;0.01865183;0;0;0;0
1;3.24;324;0.16064675;-0.04966914;-1.00079072;1.66050529;-0.50887781;0.04750024;0;0;0;2.51650596;9.08409595;-136.1305542;1;0;0;0;-0.00263681;0.00643167;0.0143003;0;0;0;0
1;3.25;325;0.16114536;-0.04911104;-0.99888843;2.30941057;-0.56504327;-0.15359496;0;0;0;2.53931451;9.07851791;-136.1323547;1;0;0;0;-0.00331994;0.0055105;0.01238441;0;0;0;0
1;3.26;326;0.16016452;-0.04642139;-0.99557108;2.2887404;-0.71992463;-0.01517469;0;0;0;2.56212711;9.07133198;-136.1328278;1;0;0;0;-0.00245056;0.00243033;0.00906654;0;0;0;0
1;3.27;327;0.15863787;-0.04578553;-0.99198717;1.22508872;-0.71105647;0.20793837;0;0;0;2.57465887;9.06413746;-136.1310577;1;0;0;0;-0.00105359;0.00149139;0.00547546;0;0;0;0
1;3.28;328;0.15471891;-0.04473102;-0.9928475;-0.13164382;0.21076448;0.00792308;0;0;0;2.57336974;9.06623936;-136.1308746;1;0;0;0;0.00283886;0.00037407;0.00633448;0;0;0;0
1;3.29;329;0.15849569;-0.04219581;-0.99096221;-1.11894441;0.29156834;-0.27652568;0;0;0;2.55873537;9.06556511;-136.133667;1;0;0;0;-0.00091686;-0.00202453;0.00444634;0;0;0;0
1;3.3;330;0.15819719;-0.03876677;-0.99217427;-2.34189057;0.57533848;-0.01322361;0;0;0;2.53533626;9.07131958;-136.1335449;1;0;0;0;-0.00057314;-0.00507556;0.00564879;0;0;0;0
1;3.31;331;0.15717395;-0.03939895;-0.99833584;-2.3441236;0.43766934;0.0901756;0;0;0;2.51206923;9.07565308;-136.132431;1;0;0;0;0.00055159;-0.00402433;0.01180805;0;0;0;0
1;3.32;332;0.15692075;-0.03991186;-1.00216746;-1.48042572;0.3103599;-0.04439077;0;0;0;2.49721527;9.07876968;-136.1327515;1;0;0;0;0.00085349;-0.00319629;0.01563366;0;0;0;0
1;3.33;333;0.15893434;-0.03840619;-1.0022192;-1.02992094;0.39075854;0.0210397;0;0;0;2.48697758;9.08266449;-136.1323547;1;0;0;0;-0.00109916;-0.00449515;0.01568606;0;0;0;0
1;3.34;334;0.16180915;-0.03943732;-1.00206506;0.28142622;0.03666496;-0.12167937;0;0;0;2.48153305;9.07989216;-136.1337585;1;0;0;0;-0.00394793;-0.00338339;0.01553266;0;0;0;0
1;3.35;335;0.16275413;-0.0374759;-0.99975806;1.87759328;-0.4591572;-0.02456731;0;0;0;2.5002377;9.07531643;-136.1342163;1;0;0;0;-0.00499302;-0.00547707;0.0132153;0;0;0;0
1;3.36;336;0.16053218;-0.03851375;-0.99682534;2.39508343;-0.7061125;0.24617389;0;0;0;2.5245316;9.06815434;-136.1320343;1;0;0;0;-0.0028807;-0.00481866;0.01028176;0;0;0;0
1;3.37;337;0.15808876;-0.04274109;-0.99436527;2.5193038;-0.86140639;0.26032174;0;0;0;2.55007863;9.05943298;-136.1297913;1;0;0;0;-0.00057448;-0.00104557;0.00781985;0;0;0;0
1;3.38;338;0.15774982;-0.04551024;-0.99358046;1.32143092;-0.26563564;0.0020206;0;0;0;2.56327629;9.056777;-136.1298981;1;0;0;0;-0.00032555;0.00141912;0.00703424;0;0;0;0
1;3.39;339;0.16087514;-0.04611087;-0.99385315;0.22816263;0.10559904;-0.12021475;0;0;0;2.55376124;9.06515503;-136.1309967;1;0;0;0;-0.00341178;0.00195741;0.00731583;0;0;0;0
1;3.4;340;0.16031925;-0.04633629;-0.99508029;-1.14153695;0.08377488;0.05378497;0;0;0;2.54243708;9.06596661;-136.1304169;1;0;0;0;-0.00276189;0.00243999;0.00854662;0;0;0;0
1;3.41;341;0.1597061;-0.04878851;-0.99806255;-1.15879488;0.15234867;0.05480464;0;0;0;2.53094649;9.06746387;-136.1297913;1;0;0;0;-0.00211788;0.00511465;0.01152389;0;0;0;0
1;3.42;342;0.1631716;-0.0492206;-0.99723113;-0.84890205;0.35637683;-0.17407192;0;0;0;2.52220559;9.0711031;-136.1313934;1;0;0;0;-0.00554162;0.00570376;0.01069216;0;0;0;0
1;3.43;343;0.16206776;-0.04639593;-0.99820197;-0.22054249;0.17923279;-0.20135038;0;0;0;2.51969171;9.07298088;-136.1333466;1;0;0;0;-0.0043836;0.00297327;0.01166762;0;0;0;0
1;3.44;344;0.16261204;-0.04706378;-1.00001109;0.47604474;-0.18877232;0.01327403;0;0;0;2.54098225;9.08352661;-136.1321869;1;0;0;0;-0.00487434;0.00354525;0.01348945;0;0;0;0
1;3.45;345;0.16119525;-0.04749113;-0.99796283;0.90550596;-0.36496317;0.11093534;0;0;0;2.55018878;9.07983017;-136.1312408;1;0;0;0;-0.00335644;0.0036258;0.01147278;0;0;0;0
1;3.46;346;0.15968914;-0.04766878;-0.9961589;0.94511014;-0.09101445;0.0261845;0;0;0;2.55967522;9.07890987;-136.131012;1;0;0;0;-0.00189632;0.00363068;0.00966913;0;0;0;0
1;3.47;347;0.16091867;-0.0476052;-0.99520683;0.56816739;-0.08590701;-0.12663399;0;0;0;2.56514812;9.07810783;-136.1323395;1;0;0;0;-0.00314202;0.0034356;0.0087204;0;0;0;0
1;3.48;348;0.15860707;-0.04573942;-0.99354929;0.04490795;-0.16646698;-0.08618093;0;0;0;2.56544805;9.07648659;-136.1332855;1;0;0;0;-0.00083994;0.00153355;0.00706296;0;0;0;0
1;3.49;349;0.15991403;-0.04416695;-0.99620575;-0.69047493;0.14795738;0.01402252;0;0;0;2.55201554;9.06980324;-136.1335907;1;0;0;0;-0.00218291;0.00006059;0.00970912;0;0;0;0
1;3.5;350;0.16119146;-0.04518963;-0.99749416;-1.24552131;0.3428019;-0.11688004;0;0;0;2.53939772;9.07327938;-136.1346283;1;0;0;0;-0.00351819;0.00135697;0.01097614;0;0;0;0
1;3.51;351;0.15752807;-0.04323421;-0.99975961;-1.20808887;0.42852139;-0.18632421;0;0;0;2.52704954;9.07764339;-136.136322;1;0;0;0;0.0002197;-0.00038209;0.01324391;0;0;0;0
1;3.52;352;0.1588579;-0.042423;-0.99999911;-0.84970802;0.33854333;-0.08677655;0;0;0;2.51843786;9.08106518;-136.1370392;1;0;0;0;-0.00104679;-0.00101334;0.01348558;0;0;0;0
1;3.53;353;0.15946507;-0.04041145;-0.99916297;-0.15187977;0.07327556;0.11154474;0;0;0;2.51710224;9.08174706;-136.1358795;1;0;0;0;-0.00162495;-0.0029583;0.01265112;0;0;0;0
1;3.54;354;0.15957105;-0.03921265;-0.99931109;0.6365186;-0.31037682;0.04487452;0;0;0;2.5060761;9.0812273;-136.1362;1;0;0;0;-0.00175419;-0.0041451;0.01279505;0;0;0;0
1;3.55;355;0.15776534;-0.04133886;-0.99901646;0.81859368;-0.19160822;-0.06094873;0;0;0;2.51415062;9.07933998;-136.1369019;1;0;0;0;0.00005936;-0.00192028;0.01249731;0;0;0;0
1;3.56;356;0.15751351;-0.04197976;-0.99586427;0.98105311;-0.14208193;-0.04485409;0;0;0;2.52388;9.07794094;-136.1374207;1;0;0;0;0.00027898;-0.00143945;0.00934705;0;0;0;0
1;3.57;357;0.15771396;-0.04329113;-0.99409246;0.54638052;-0.30962282;0.06348586;0;0;0;2.52942348;9.07482052;-136.1369171;1;0;0;0;0.00002867;-0.00025781;0.00757289;0;0;0;0
1;3.58;358;0.15874204;-0.04457021;-0.99709779;0.02734152;0.0198844;0.14371999;0;0;0;2.52992821;9.07495689;-136.1354523;1;0;0;0;-0.00101778;0.00098537;0.01057695;0;0;0;0
1;3.59;359;0.16118789;-0.04289572;-0.99622905;-0.41944078;0.18018605;-0.07641064;0;0;0;2.52780724;9.07530594;-136.1361237;1;0;0;0;-0.00345942;-0.00067312;0.0097082;0;0;0;0
1;3.6;360;0.15987271;-0.04240541;-0.99708718;-0.61604422;0.30200398;-0.09006728;0;0;0;2.52152514;9.07836246;-136.1368866;1;0;0;0;-0.00210687;-0.00108567;0.0105688;0;0;0;0
1;3.61;361;0.15913345;-0.0425705;-0.99788553;-0.38417953;0.14518781;-0.02475742;0;0;0;2.51765394;9.07982635;-136.137085;1;0;0;0;-0.00133689;-0.0008295;0.0113681;0;0;0;0
1;3.62;362;0.15865222;-0.04426291;-1.00015998;-0.11668127;-0.01242978;0.09260437;0;0;0;2.51663423;9.07966042;-136.1361542;1;0;0;0;-0.00083525;0.00090782;0.01364382;0;0;0;0
1;3.63;363;0.16072722;-0.04544406;-0.99905831;0.46157855;0.06876564;-0.08850762;0;0;0;2.52111292;9.08038425;-136.1370087;1;0;0;0;-0.00290567;0.00204196;0.01254497;0;0;0;0
1;3.64;364;0.16179127;-0.04638686;-0.99869257;0.83845818;-0.02080462;-0.05917813;0;0;0;2.5281446;9.06659222;-136.1384583;1;0;0;0;-0.00403722;0.00286102;0.01217388;0;0;0;0
1;3.65;365;0.16202502;-0.04748617;-0.9966442;0.94281435;-0.27939066;0.05899004;0;0;0;2.53764653;9.06377411;-136.1379852;1;0;0;0;-0.00447429;0.00382707;0.01009883;0;0;0;0
1;3.66;366;0.16074544;-0.04669032;-0.99413139;0.88967478;-0.21030952;0.04295573;0;0;0;2.54659653;9.06165314;-136.1376495;1;0;0;0;-0.00324876;0.00286498;0.00758477;0;0;0;0
1;3.67;367;0.16041689;-0.04592464;-0.99327111;0.83796132;-0.08890413;-0.0949732;0;0;0;2.55481768;9.06080723;-136.1386566;1;0;0;0;-0.00292417;0.00195248;0.00673048;0;0;0;0
1;3.68;368;0.1660092;-0.04824243;-0.99492478;0.31960398;0.25828946;-0.0845355;0;0;0;2.55789661;9.06342411;-136.1394043;1;0;0;0;-0.00850777;0.00419141;0.008389;0;0;0;0
1;3.69;369;0.15851344;-0.04321427;-0.99381506;0.49652797;-0.11850095;-0.23113635;0;0;0;2.56370592;9.07860661;-136.1408234;1;0;0;0;-0.00090357;-0.00090442;0.00729965;0;0;0;0
1;3.7;370;0.16033588;-0.04501414;-0.99188918;-0.47425362;0.29791626;0.22313382;0;0;0;2.55934095;9.08148289;-136.1384277;1;0;0;0;-0.0025332;0.00087297;0.00540562;0;0;0;0
1;3.71;371;0.15975431;-0.0473685;-0.99551427;-1.40568411;0.54916334;-0.05998936;0;0;0;2.54522777;9.08699608;-136.1387787;1;0;0;0;-0.00185787;0.00340522;0.00903776;0;0;0;0
1;3.72;372;0.16293783;-0.04556181;-0.9968493;-3.85009003;0.98344451;0.04504586;0;0;0;2.50686836;9.0968008;-136.1378937;1;0;0;0;-0.00493019;0.00207622;0.01036945;0;0;0;0
1;3.73;373;0.15563245;-0.04488145;-1.00764215;-5.03361988;1.3890419;0.01181611;0;0;0;2.45664668;9.11067009;-136.1371613;1;0;0;0;0.00264188;0.00225354;0.02116762;0;0;0;0
1;3.74;374;0.1612405;-0.04064531;-1.00663507;-3.0048933;0.65319276;-0.33667478;0;0;0;2.42238784;9.12112713;-136.1402893;1;0;0;0;-0.00280671;-0.00129671;0.02015676;0;0;0;0
1;3.75;375;0.15786865;-0.03992706;-1.01184583;0.58672935;-0.00103633;-0.07336316;0;0;0;2.4281373;9.12114811;-136.141037;1;0;0;0;0.00068707;-0.00179683;0.0253778;0;0;0;0
1;3.76;376;0.16122267;-0.03706416;-1.00168908;4.39214802;-1.13265443;-0.23827617;0;0;0;2.47160029;9.10993385;-136.1439209;1;0;0;0;-0.00283004;-0.00520849;0.01521817;0;0;0;0
1;3.77;377;0.1573948;-0.03623174;-0.99875164;5.47256517;-0.94063818;0.03075003;0;0;0;2.52630901;9.10052395;-136.144043;1;0;0;0;0.00084029;-0.00692553;0.01229385;0;0;0;0
1;3.78;378;0.16290793;-0.03795155;-0.98557669;5.61025524;-1.62469208;-0.1364921;0;0;0;2.58207774;9.08435345;-136.1461487;1;0;0;0;-0.00492224;-0.00620335;-0.00087695;0;0;0;0
1;3.79;379;0.15839702;-0.04555573;-0.98665655;2.75290799;-0.71236277;0.5567053;0;0;0;2.60705996;9.07235909;-136.1413422;1;0;0;0;-0.00060906;0.00074583;0.00020069;0;0;0;0
1;3.8;380;0.15696451;-0.04997842;-0.98474687;0.13026831;-0.52731609;0.01351499;0;0;0;2.60834575;9.06708622;-136.141449;1;0;0;0;0.00065544;0.00501133;-0.00172867;0;0;0;0
1;3.81;381;0.15438625;-0.04966987;-0.99023342;-3.03946757;1.07719052;0.12372503;0;0;0;2.57822657;9.07779121;-136.1397095;1;0;0;0;0.0033051;0.00502698;0.00375462;0;0;0;0
1;3.82;382;0.15935469;-0.05007491;-0.99475998;-4.04359436;1.07518184;-0.45897967;0;0;0;2.53713346;9.08873558;-136.1438751;1;0;0;0;-0.00146071;0.00608788;0.00828414;0;0;0;0
1;3.83;383;0.15888947;-0.04496798;-1.0007751;-4.04414892;1.32768846;0.01648116;0;0;0;2.49681187;9.10199547;-136.1431122;1;0;0;0;-0.00079093;0.00169653;0.01430035;0;0;0;0
1;3.84;384;0.16091879;-0.04202588;-1.00317979;-1.5493983;0.39907166;-0.33998632;0;0;0;2.49035096;9.12915039;-136.1443176;1;0;0;0;-0.00257124;-0.00081511;0.01672617;0;0;0;0
1;3.85;385;0.16339789;-0.04278246;-1.00213683;0.90960008;-0.12382174;-0.09626172;0;0;0;2.49928379;9.12795639;-136.14534;1;0;0;0;-0.00474814;-0.00018394;0.01573731;0;0;0;0
1;3.86;386;0.16138981;-0.04387384;-1.00039876;3.10159588;-0.48850954;-0.03989469;0;0;0;2.53020239;9.12309551;-136.1459808;1;0;0;0;-0.002783;0.00051332;0.01400946;0;0;0;0
1;3.87;387;0.16254771;-0.0448323;-0.99531543;3.72505593;-0.92462826;0.22731933;0;0;0;2.56775165;9.11375713;-136.1440735;1;0;0;0;-0.00409513;0.00083847;0.00892948;0;0;0;0
1;3.88;388;0.16040486;-0.04961696;-0.99294895;2.99171901;-0.55714482;0.11813342;0;0;0;2.59781694;9.10813618;-136.1431427;1;0;0;0;-0.00207404;0.00504172;0.00656952;0;0;0;0
1;3.89;389;0.16223517;-0.04818052;-0.98865139;0.79953468;-0.37833413;-0.20290999;0;0;0;2.62014532;9.12174606;-136.1430664;1;0;0;0;-0.00392079;0.00322799;0.00228646;0;0;0;0
1;3.9;390;0.15873112;-0.045612;-0.99422252;-3.68781829;0.91460526;-0.09774513;0;0;0;2.58317804;9.13092804;-136.143631;1;0;0;0;-0.00011063;0.00082032;0.0078994;0;0;0;0
1;3.91;391;0.16152371;-0.04283926;-1.0027225;-6.38010788;1.47447896;-0.39067581;0;0;0;2.51885462;9.14583015;-136.1469116;1;0;0;0;-0.00266301;-0.00099043;0.01639487;0;0;0;0
1;3.92;392;0.16272458;-0.04225061;-1.01166272;-5.76596403;1.7914573;-0.18446587;0;0;0;2.46102285;9.16380787;-136.1479797;1;0;0;0;-0.00356501;-0.00046458;0.02533442;0;0;0;0
1;3.93;393;0.16383883;-0.04145679;-1.01294422;-0.69184095;-0.05619421;-0.11086167;0;0;0;2.45392156;9.16329288;-136.1491242;1;0;0;0;-0.00456099;-0.00077259;0.02661403;0;0;0;0
1;3.94;394;0.16235176;-0.04273674;-1.00841832;4.47850513;-1.08725858;0.35617325;0;0;0;2.49727535;9.15072346;-136.1463013;1;0;0;0;-0.00322209;0.00004491;0.02208415;0;0;0;0
1;3.95;395;0.16015682;-0.0442483;-1.00098443;8.53838253;-2.10038757;0.03205026;0;0;0;2.58256125;9.12972641;-136.1469116;1;0;0;0;-0.00134575;0.00033826;0.01465234;0;0;0;0
1;3.96;396;0.16286501;-0.04692439;-0.98601085;8.59276199;-2.13424349;-0.07400934;0;0;0;2.66821337;9.10843945;-136.1486511;1;0;0;0;-0.00443731;0.00147842;-0.00031318;0;0;0;0
1;3.97;397;0.15593292;-0.04905;-0.98042572;5.21196508;-1.48835063;0.39496478;0;0;0;2.72085261;9.0933876;-136.1453705;1;0;0;0;0.0022121;0.0024714;-0.00589094;0;0;0;0
1;3.98;398;0.1536589;-0.04929001;-0.97724485;0.49038625;-0.51396877;0.02676383;0;0;0;2.7257607;9.08824253;-136.14534;1;0;0;0;0.0043137;0.00228724;-0.00907934;0;0;0;0
1;3.99;399;0.15393692;-0.04888364;-0.98487037;-5.31806469;1.69999015;-0.01603479;0;0;0;2.67279077;9.10389328;-136.1446991;1;0;0;0;0.0041694;0.00243369;-0.00145857;0;0;0;0
1;4;400;0.15732725;-0.04476634;-0.99673349;-9.69678688;2.65502596;-0.52865368;0;0;0;2.57516956;9.1306572;-136.148819;1;0;0;0;0.00118096;-0.00025585;0.01040296;0;0;0;0
1;4.01;401;0.15982287;-0.03840153;-1.00742507;-9.86166191;2.61951089;-0.17707115;0;0;0;2.47645402;9.15690708;-136.1494446;1;0;0;0;-0.0008613;-0.00487328;0.02108939;0;0;0;0
1;4.02;402;0.16058356;-0.03341119;-1.0161649;-5.23066044;1.25717723;-0.3373099;0;0;0;2.42369032;9.16960907;-136.1523132;1;0;0;0;-0.0012818;-0.00859353;0.02982898;0;0;0;0
1;4.03;403;0.16457699;-0.03068067;-1.01577938;0.71554047;0.18666638;-0.17772183;0;0;0;2.43057179;9.17154884;-136.1540222;1;0;0;0;-0.00517875;-0.01106006;0.02944776;0;0;0;0
1;4.04;404;0.16416742;-0.03441885;-1.00997472;6.24097586;-1.46148551;0.03270362;0;0;0;2.49040723;9.1598711;-136.1546021;1;0;0;0;-0.00488236;-0.00802825;0.02365512;0;0;0;0
1;4.05;405;0.16206995;-0.03828241;-0.99786323;9.2171526;-2.38360262;0.35288745;0;0;0;2.58297706;9.1359024;-136.1520996;1;0;0;0;-0.00315244;-0.00561406;0.01154785;0;0;0;0
1;4.06;406;0.15613326;-0.04468993;-0.98984289;8.76615334;-2.32956648;0.56903446;0;0;0;2.6713798;9.11236954;-136.1474304;1;0;0;0;0.00238992;-0.00078519;0.00353546;0;0;0;0
1;4.07;407;0.1567388;-0.05106356;-0.9801873;5.53539276;-1.69486392;0.16108246;0;0;0;2.72686338;9.09536457;-136.1465912;1;0;0;0;0.00141684;0.00437126;-0.00612226;0;0;0;0
1;4.08;408;0.15417634;-0.05213369;-0.98298365;0.01262721;0.27712825;0.07693627;0;0;0;2.72713423;9.09809494;-136.1456757;1;0;0;0;0.00391801;0.00508135;-0.00331868;0;0;0;0
1;4.09;409;0.16033609;-0.04791756;-0.98402816;-5.51746368;1.36279786;-0.35005349;0;0;0;2.66922879;9.11255646;-136.1488648;1;0;0;0;-0.00207502;0.00148096;-0.0022766;0;0;0;0
1;4.1;410;0.16000946;-0.04645416;-0.99832839;-8.69303226;2.55532622;-0.05213828;0;0;0;2.58240247;9.13810635;-136.1482086;1;0;0;0;-0.00135821;0.00141223;0.01202178;0;0;0;0
1;4.11;411;0.16502631;-0.04259015;-1.00568664;-6.91665506;1.73724282;-0.48600578;0;0;0;2.51257825;9.15567589;-136.1523438;1;0;0;0;-0.00601652;-0.00110906;0.01937734;0;0;0;0
1;4.12;412;0.16783968;-0.04076484;-1.01158667;-4.29885483;1.1751498;0.1577936;0;0;0;2.46992564;9.16735172;-136.150238;1;0;0;0;-0.00859812;-0.00201324;0.02527419;0;0;0;0
1;4.13;413;0.16316643;-0.04116528;-1.01337302;1.13867307;-0.46960214;0.07184949;0;0;0;2.4813962;9.16262817;-136.149704;1;0;0;0;-0.00386932;-0.00142845;0.02706164;0;0;0;0
1;4.14;414;0.16276574;-0.04421777;-1.00532949;5.61050701;-1.38810802;0.19877788;0;0;0;2.53810191;9.15147781;-136.1481781;1;0;0;0;-0.0036693;0.00091125;0.0190168;0;0;0;0
1;4.15;415;0.15868568;-0.04930113;-1.00063956;7.9292655;-1.8206867;0.04280319;0;0;0;2.61733174;9.13327217;-136.1485748;1;0;0;0;0.00018509;0.00476098;0.01434545;0;0;0;0
1;4.16;416;0.16131659;-0.04807934;-0.98482352;7.71229982;-1.97152746;-0.06131444;0;0;0;2.6942091;9.11360455;-136.150116;1;0;0;0;-0.00280894;0.00213551;-0.00146471;0;0;0;0
1;4.17;417;0.15889138;-0.0506969;-0.98355162;2.65003824;-0.55327988;0.06986361;0;0;0;2.7207787;9.10804367;-136.1496735;1;0;0;0;-0.00055772;0.00393976;-0.0027263;0;0;0;0
1;4.18;418;0.16243526;-0.0497335;-0.98087651;-2.37386394;0.83364469;-0.18477857;0;0;0;2.69680643;9.11645794;-136.1511536;1;0;0;0;-0.00408539;0.00304602;-0.00540213;0;0;0;0
1;4.19;419;0.15934072;-0.04615388;-0.98999619;-6.07517672;1.5038482;-0.18407196;0;0;0;2.63667965;9.13316441;-136.1521606;1;0;0;0;-0.00072928;0.00031427;0.0037199;0;0;0;0
1;4.2;420;0.16057825;-0.04252231;-0.99567723;-7.40651321;1.61947989;-0.13141532;0;0;0;2.56252193;9.14940453;-136.1527405;1;0;0;0;-0.00168677;-0.00210553;0.00939037;0;0;0;0
1;4.21;421;0.1569626;-0.04139491;-1.00793231;-6.16438293;1.65760577;-0.05867333;0;0;0;2.50090194;9.16598988;-136.1526032;1;0;0;0;0.0022497;-0.00203244;0.02164353;0;0;0;0
1;4.22;422;0.1603938;-0.03936179;-1.01085889;-2.64309978;0.82042545;-0.32163233;0;0;0;2.47400999;9.17432785;-136.1555023;1;0;0;0;-0.00100544;-0.00337524;0.02456836;0;0;0;0
1;4.23;423;0.15915102;-0.03795964;-1.01073289;1.26903582;-0.12816088;-0.01321648;0;0;0;2.48667049;9.17305565;-136.1556854;1;0;0;0;0.00030115;-0.00473327;0.02445084;0;0;0;0
1;4.24;424;0.16112019;-0.03791199;-1.00288725;4.74730349;-1.36147749;0.10466225;0;0;0;2.52958822;9.1555748;-136.1560059;1;0;0;0;-0.00187591;-0.00538702;0.01659803;0;0;0;0
1;4.25;425;0.15574118;-0.04385588;-0.99605864;6.080688;-1.28902686;0.05419789;0;0;0;2.59038973;9.1426754;-136.1560364;1;0;0;0;0.00324713;-0.00035349;0.00976859;0;0;0;0
1;4.26;426;0.1632508;-0.04281753;-0.98528916;5.48547792;-1.48693776;-0.09834256;0;0;0;2.64497733;9.12786579;-136.1577301;1;0;0;0;-0.00453889;-0.0024433;-0.00099775;0;0;0;0
1;4.27;427;0.15790249;-0.0458649;-0.98564774;1.51654768;-0.28795031;0.38435078;0;0;0;2.66073728;9.12480831;-136.1539612;1;0;0;0;0.00070551;0.00008741;-0.00063205;0;0;0;0
1;4.28;428;0.15712237;-0.04428479;-0.98561215;-2.076689;0.1618332;0.03115286;0;0;0;2.64003325;9.12641144;-136.1535645;1;0;0;0;0.00147009;-0.00137774;-0.00067544;0;0;0;0
1;4.29;429;0.15436177;-0.04378013;-0.99201727;-5.67632151;1.8238709;-0.080186;0;0;0;2.58160543;9.14149189;-136.1538849;1;0;0;0;0.00441575;-0.00110515;0.00572371;0;0;0;0
1;4.3;430;0.16084269;-0.04080906;-0.99845755;-5.30050039;1.37861574;-0.45751747;0;0;0;2.52796412;9.15546608;-136.1578827;1;0;0;0;-0.00181403;-0.00307217;0.01215933;0;0;0;0
1;4.31;431;0.16385818;-0.04009465;-1.0042696;-3.72593093;0.91246641;0.20018178;0;0;0;2.49109101;9.16449642;-136.1554565;1;0;0;0;-0.00464358;-0.00302621;0.01796784;0;0;0;0
1;4.32;432;0.16013543;-0.04319591;-1.00814831;-0.49678624;-0.09546035;0.25377029;0;0;0;2.4865253;9.16343212;-136.1529236;1;0;0;0;-0.0008539;0.00039346;0.02184339;0;0;0;0
1;4.33;433;0.16408065;-0.04469962;-1.00535977;1.8973949;-0.3390606;-0.09339035;0;0;0;2.50532413;9.16008282;-136.1540222;1;0;0;0;-0.00487702;0.00167826;0.01905182;0;0;0;0
1;4.34;434;0.16098833;-0.04404607;-1.0010128;3.8038888;-0.61346209;-0.25995344;0;0;0;2.54414082;9.15825748;-136.1566162;1;0;0;0;-0.00181606;0.00051261;0.01472218;0;0;0;0
1;4.35;435;0.16512488;-0.04510554;-0.99353528;3.95983577;-0.92608917;0.11943354;0;0;0;2.58386445;9.14895058;-136.1558228;1;0;0;0;-0.00607539;0.00083274;0.00725782;0;0;0;0
1;4.36;436;0.15917443;-0.04721853;-0.99091977;2.87898731;-0.86545151;0.30836916;0;0;0;2.61308646;9.14016438;-136.1531067;1;0;0;0;-0.00026622;0.00237569;0.00464535;0;0;0;0
1;4.37;437;0.16305389;-0.04908749;-0.98840857;1.1238327;-0.38128385;-0.24191236;0;0;0;2.62390924;9.13646889;-136.1557312;1;0;0;0;-0.0042667;0.00391336;0.00212966;0;0;0;0
1;4.38;438;0.16054483;-0.04822858;-0.99046189;-1.29760528;0.5650335;-0.04362598;0;0;0;2.61090422;9.14213276;-136.1558991;1;0;0;0;-0.00168896;0.00315469;0.00418949;0;0;0;0
1;4.39;439;0.16236919;-0.0497092;-0.99300712;-2.37938643;0.37140033;-0.12016392;0;0;0;2.58848763;9.1480999;-136.156662;1;0;0;0;-0.00343794;0.00497044;0.0067317;0;0;0;0
1;4.4;440;0.15901338;-0.04760626;-0.9983654;-3.36581278;0.95956945;0.26632598;0;0;0;2.55532646;9.15756702;-136.1535339;1;0;0;0;0.00006963;0.00337989;0.01209131;0;0;0;0
1;4.41;441;0.15738894;-0.0445652;-1.00181758;-2.37752509;0.50862849;-0.17106631;0;0;0;2.53131199;9.16272449;-136.1550446;1;0;0;0;0.00181131;0.00081719;0.01554115;0;0;0;0
1;4.42;442;0.1613092;-0.04280713;-1.00250828;-0.99019438;0.56358701;-0.23989631;0;0;0;2.52106309;9.16845894;-136.1572113;1;0;0;0;-0.00200598;-0.0006626;0.01623599;0;0;0;0
1;4.43;443;0.16268028;-0.04119593;-0.99965054;1.24817789;-0.4351635;-0.08657718;0;0;0;2.53337455;9.16415119;-136.1582794;1;0;0;0;-0.00338513;-0.00234455;0.01338017;0;0;0;0
1;4.44;444;0.16049419;-0.04172495;-0.99855369;1.9295547;-0.54651272;0.13125926;0;0;0;2.54366446;9.15970039;-136.1585083;1;0;0;0;-0.00128457;-0.00207791;0.01228113;0;0;0;0
1;4.45;445;0.16111098;-0.04421183;-0.99672461;2.20108366;-0.58120733;-0.1349605;0;0;0;2.5654161;9.15395355;-136.1601257;1;0;0;0;-0.0019751;0.00017031;0.01045078;0;0;0;0
1;4.46;446;0.16367318;-0.04317507;-0.99365264;1.53771353;-0.16623682;0.12303933;0;0;0;2.58097863;9.15223598;-136.1589661;1;0;0;0;-0.00461126;-0.00120042;0.0073818;0;0;0;0
1;4.47;447;0.15991984;-0.04372075;-0.99464166;0.40297949;-0.20617892;0.13645719;0;0;0;2.58521318;9.15011692;-136.1576843;1;0;0;0;-0.00087941;-0.00079522;0.00837372;0;0;0;0
1;4.48;448;0.15738954;-0.04483804;-0.9925369;-0.51385862;-0.04354402;0.20209381;0;0;0;2.58039713;9.14958954;-136.1556397;1;0;0;0;0.00160746;0.00033455;0.00626145;0;0;0;0
1;4.49;449;0.15392201;-0.04446782;-0.99655443;-1.38904691;0.41234308;-0.07930518;0;0;0;2.56614232;9.15103245;-136.1564179;1;0;0;0;0.00512432;0.00016795;0.0102777;0;0;0;0
1;4.5;450;0.15907349;-0.04513356;-0.99660933;-1.53195298;0.44886357;-0.18212041;0;0;0;2.55056214;9.15559769;-136.1580505;1;0;0;0;0.00001858;0.00110229;0.01032797;0;0;0;0
1;4.51;451;0.15864849;-0.04196316;-0.99950755;-1.19126439;0.37631109;-0.09964993;0;0;0;2.53851557;9.15940189;-136.1588898;1;0;0;0;0.00051343;-0.00182316;0.01322652;0;0;0;0
1;4.52;452;0.16106953;-0.04236197;-1.00042391;-0.34997344;-0.00920501;-0.00949709;0;0;0;2.53499937;9.15931416;-136.1589966;1;0;0;0;-0.0018838;-0.00131513;0.01414183;0;0;0;0
1;4.53;453;0.16073614;-0.04194794;-1.00137246;0.01262765;0.31088403;0.12983166;0;0;0;2.53535652;9.16236115;-136.157547;1;0;0;0;-0.00152919;-0.00172158;0.01509348;0;0;0;0
1;4.54;454;0.16095376;-0.04186897;-0.9971137;0.78295857;-0.29207405;-0.27168676;0;0;0;2.53554821;9.15734959;-136.1615448;1;0;0;0;-0.00175813;-0.001849;0.01083514;0;0;0;0
1;4.55;455;0.16251996;-0.0419454;-0.99493635;0.88986087;-0.19321108;0.04315507;0;0;0;2.54450321;9.15540028;-136.1611939;1;0;0;0;-0.00340355;-0.00182808;0.00864746;0;0;0;0
1;4.56;456;0.15867974;-0.04202386;-0.99641377;0.85236579;-0.32963777;0.04200555;0;0;0;2.55307126;9.15208912;-136.1609039;1;0;0;0;0.00040419;-0.00188851;0.0101258;0;0;0;0
1;4.57;457;0.15868445;-0.04427001;-0.99623895;0.44065985;-0.12016541;0.03201509;0;0;0;2.55752015;9.15087414;-136.1606445;1;0;0;0;0.00035529;0.00024294;0.00994894;0;0;0;0
1;4.58;458;0.15888461;-0.04552993;-0.99664187;0.33624145;0.12146921;-0.10385133;0;0;0;2.56072378;9.15213203;-136.1616364;1;0;0;0;0.00016612;0.00144541;0.01035625;0;0;0;0
1;4.59;459;0.15853256;-0.04679503;-0.99557543;0.18589145;-0.28965533;0.15562929;0;0;0;2.55335307;9.13612366;-136.1622162;1;0;0;0;0.00042399;0.00269105;0.00927539;0;0;0;0
1;4.6;460;0.15876745;-0.04767753;-0.99692637;-0.02610862;0.03796434;0.09208991;0;0;0;2.55324268;9.13646126;-136.1612701;1;0;0;0;0.00001577;0.00369285;0.01059313;0;0;0;0
1;4.61;461;0.16104543;-0.0472278;-0.99630791;-0.34469917;0.41898954;-0.09200928;0;0;0;2.54967666;9.14068699;-136.1620178;1;0;0;0;-0.00222467;0.00327039;0.00997949;0;0;0;0
1;4.62;462;0.14772028;0.00943431;-1.09655011;9.08225441;-3.69244814;-0.43085474;0;0;0;2.63954043;9.10399342;-136.1680603;1;0;0;0;0.01092353;-0.05389959;0.11021616;0;0;0;0
1;4.63;463;0.1625758;0.28670144;-0.95079839;20.79334259;-7.60826492;-10.43738461;0;0;0;2.83028889;9.03307152;-136.2773132;1;0;0;0;-0.00521924;-0.33452162;-0.0355846;0;0;0;0
1;4.64;464;0.17636465;0.17248097;-1.01249623;14.53972244;-7.31389856;-29.64144135;0;0;0;2.91901779;8.97325516;-136.5819397;1;0;0;0;-0.0199316;-0.22221129;0.02606061;0;0;0;0
1;4.65;465;0.1354897;0.0098867;-0.97826564;18.73570442;-10.50112152;-39.96738052;0;0;0;3.04281664;8.88921833;-136.9915009;1;0;0;0;0.01953826;-0.06160844;-0.00828931;0;0;0;0
1;4.66;466;0.23388894;-0.11098043;-0.91295999;8.49082851;-7.49251461;-37.67161942;0;0;0;3.06844091;8.83454323;-137.3762665;1;0;0;0;-0.07995217;0.05808701;-0.07370393;0;0;0;0
1;4.67;467;0.22750507;-0.15852951;-0.98125798;-0.47698641;-4.92171574;-25.5971241;0;0;0;3.02362561;8.79903698;-137.6375885;1;0;0;0;-0.0743739;0.1059978;-0.00555055;0;0;0;0
1;4.68;468;0.14841391;-0.12733731;-0.99913144;-7.67841005;2.12510562;-17.09630585;0;0;0;2.92055488;8.82912922;-137.8092651;1;0;0;0;0.00477722;0.07630476;0.01225363;0;0;0;0
1;4.69;469;0.09648059;-0.10792945;-1.0324738;-5.21358395;3.75722933;-16.87974358;0;0;0;2.84902501;8.86218071;-137.9782715;1;0;0;0;0.05748355;0.05851984;0.04563358;0;0;0;0
1;4.7;470;0.0836646;-0.07661583;-1.04486942;6.45413637;-0.94040543;-19.33532524;0;0;0;2.88336444;8.86242867;-138.1741943;1;0;0;0;0.07048416;0.02729039;0.05805385;0;0;0;0
1;4.71;471;0.14568737;-0.13407025;-1.01720583;13.42726707;-6.10172749;-17.97659874;0;0;0;2.98923206;8.81068707;-138.3590546;1;0;0;0;0.00784815;0.08325665;0.0303703;0;0;0;0
1;4.72;472;0.16694158;-0.09049625;-0.96963602;12.24303532;-6.71892071;-14.3645525;0;0;0;3.08896375;8.75122356;-138.507782;1;0;0;0;-0.01446238;0.0377828;-0.01726373;0;0;0;0
1;4.73;473;0.165535;-0.07076138;-0.98950166;5.75468254;-1.07454944;-14.77856636;0;0;0;3.12371659;8.74850845;-138.6576691;1;0;0;0;-0.01347227;0.01708532;0.00258933;0;0;0;0
1;4.74;474;0.15734577;-0.04337795;-0.99081576;6.4952426;-0.91491067;-12.30086708;0;0;0;3.16633606;8.7475338;-138.7826691;1;0;0;0;-0.00520695;-0.01093234;0.00394993;0;0;0;0
1;4.75;475;0.12976067;-0.01991315;-1.00017488;8.82873344;-4.34818506;-11.5474453;0;0;0;3.23654389;8.71056843;-138.9017487;1;0;0;0;0.02196243;-0.03542563;0.01330219;0;0;0;0
1;4.76;476;0.09321653;0.11834201;-1.01901603;13.89093971;-6.70992517;-23.4491787;0;0;0;3.33911896;8.65705681;-139.1424713;1;0;0;0;0.05768383;-0.17523339;0.03210565;0;0;0;0
1;4.77;477;0.17825423;0.04100094;-0.99494481;14.86621475;-8.20411205;-33.96072769;0;0;0;3.43561316;8.59521484;-139.4902649;1;0;0;0;-0.02838919;-0.09959222;0.00797614;0;0;0;0
1;4.78;478;0.2283199;-0.46615735;-0.91913694;10.6711092;-7.88676453;-17.96390915;0;0;0;3.51457334;8.52736568;-139.6764526;1;0;0;0;-0.0796895;0.40582222;-0.06791344;0;0;0;0
1;4.79;479;0.08108199;-0.27932155;-1.00488091;2.47739697;-2.61280918;11.22965622;0;0;0;3.59105992;8.50163269;-139.561203;1;0;0;0;0.06699076;0.21834345;0.01778637;0;0;0;0
1;4.8;480;0.19350213;-0.09444068;-1.01638138;0.43918288;-2.17512989;12.46720505;0;0;0;3.61381388;8.47209549;-139.4367828;1;0;0;0;-0.04593596;0.03231231;0.02928255;0;0;0;0
1;4.81;481;0.16363062;-0.01976029;-1.01157129;11.94898605;-9.06208324;16.28744125;0;0;0;3.7565217;8.37122059;-139.2783508;1;0;0;0;-0.0173413;-0.04402193;0.02438824;0;0;0;0
1;4.82;482;0.13378347;-0.07610358;-0.98234946;8.61529732;-3.61772037;17.54737282;0;0;0;3.86798477;8.3234272;-139.1038208;1;0;0;0;0.01113762;0.00993202;-0.00487848;0;0;0;0
1;4.83;483;0.1518438;-0.0886316;-0.99489659;3.86228061;0.00464576;15.53085709;0;0;0;3.92926788;8.31292152;-138.9472199;1;0;0;0;-0.00716345;0.02127247;0.00771359;0;0;0;0
1;4.84;484;0.15718783;-0.08293003;-1.00527966;7.05588913;-2.44626141;18.40273285;0;0;0;4.0281539;8.27875519;-138.7631836;1;0;0;0;-0.01299642;0.01407918;0.01812799;0;0;0;0
1;4.85;485;0.15777193;-0.11178847;-1.01069331;10.37157917;-1.2098304;19.89915276;0;0;0;4.16057396;8.25248623;-138.5634918;1;0;0;0;-0.01408271;0.04094169;0.02360992;0;0;0;0
1;4.86;486;0.14213401;-0.07198221;-1.10628951;8.13420105;-5.73525429;23.81049347;0;0;0;4.27563381;8.17769146;-138.3278809;1;0;0;0;0.00081204;-0.00140645;0.11928394;0;0;0;0
1;4.87;487;0.1560412;-0.21447417;-0.97590947;-3.73345065;-13.51854515;30.128685;0;0;0;4.27956772;8.02043819;-138.0345764;1;0;0;0;-0.01556288;0.14071637;-0.01142281;0;0;0;0
1;4.88;488;0.20729893;-0.08659235;-1.06941247;-1.24362278;-12.36654663;46.61349106;0;0;0;4.33071995;7.86210012;-137.574646;1;0;0;0;-0.06939897;0.01206537;0.08177473;0;0;0;0
1;4.89;489;0.16055375;-0.02356581;-1.06850767;7.94876242;-9.32136536;39.55472183;0;0;0;4.46154451;7.74052906;-137.1838837;1;0;0;0;-0.02525719;-0.0524183;0.08062094;0;0;0;0
1;4.9;490;0.14967626;-0.12061929;-1.03194082;17.73672867;-4.91500282;44.71911621;0;0;0;4.69865036;7.65579796;-136.7380371;1;0;0;0;-0.01584348;0.04097731;0.04414304;0;0;0;0
1;4.91;491;0.12033419;-0.08110487;-0.98674297;14.15549755;-6.61768723;52.14501953;0;0;0;4.90881586;7.54614925;-136.2194061;1;0;0;0;0.01172924;-0.00241384;-0.00097284;0;0;0;0
1;4.92;492;0.13795696;-0.05725375;-0.99932933;12.54782486;-7.14351797;49.51612473;0;0;0;5.09832668;7.43181372;-135.7281799;1;0;0;0;-0.00787248;-0.02962899;0.01164098;0;0;0;0
1;4.93;493;0.153161;-0.0779368;-1.0063082;15.58808613;-6.03649187;46.42961121;0;0;0;5.31338072;7.32963133;-135.2674408;1;0;0;0;-0.02496053;-0.01240347;0.01868381;0;0;0;0
1;4.94;494;0.14149049;-0.09620277;-1.01549971;24.10694695;-3.89261055;41.59085083;0;0;0;5.60703039;7.25232553;-134.8537598;1;0;0;0;-0.01476713;0.00123962;0.02811885;0;0;0;0
1;4.95;495;0.15823056;-0.11344789;-1.04384387;26.1460743;-3.58194256;38.82218933;0;0;0;5.91693115;7.17772341;-134.4680328;1;0;0;0;-0.03281759;0.01317164;0.05682117;0;0;0;0
1;4.96;496;0.16349067;-0.12805916;-1.05835176;24.87831306;-0.16729729;34.95814896;0;0;0;6.20933151;7.13912773;-134.1178436;1;0;0;0;-0.03902611;0.02256741;0.07175252;0;0;0;0
1;4.97;497;0.15133376;-0.09757978;-1.08756697;17.17689705;2.90336633;28.91141129;0;0;0;6.41747808;7.13616943;-133.8250122;1;0;0;0;-0.02711481;-0.01212282;0.10139558;0;0;0;0
1;4.98;498;0.14052843;-0.09702255;-1.09248507;8.53890514;4.22296953;22.75049973;0;0;0;6.53179455;7.15245724;-133.592392;1;0;0;0;-0.01614113;-0.01522052;0.10662046;0;0;0;0
1;4.99;499;0.14421025;-0.08927617;-1.09526587;4.44386482;5.22522831;20.36255455;0;0;0;6.59758568;7.18259859;-133.3828735;1;0;0;0;-0.01940148;-0.02435389;0.10961334;0;0;0;0
1;5;500;0.13026379;-0.0822548;-1.07957828;4.44894266;4.82618666;19.01035118;0;0;0;6.66662264;7.20858431;-133.1869354;1;0;0;0;-0.00492811;-0.0324695;0.09411944;0;0;0;0
1;5.01;501;0.11628748;-0.07001533;-1.05970395;0.63271934;2.37916565;17.6807766;0;0;0;6.69552565;7.21162701;-133.0071411;1;0;0;0;0.00928983;-0.0455746;0.07437682;0;0;0;0
1;5.02;502;0.10330071;-0.07827909;-1.04190087;-3.16301656;-3.95624208;15.04517269;0;0;0;6.68216848;7.15480852;-132.8611755;1;0;0;0;0.02174262;-0.03726438;0.05650051;0;0;0;0
1;5.03;503;0.11270822;-0.11805006;-1.01386094;1.70184267;-8.99287319;14.29627895;0;0;0;6.71558046;7.04883003;-132.7286682;1;0;0;0;0.0107577;0.00230442;0.02828558;0;0;0;0
1;5.04;504;0.1241902;-0.14538705;-0.9971019;5.46484661;-9.9245491;12.78680897;0;0;0;6.78793526;6.93543005;-132.6121674;1;0;0;0;-0.00276754;0.02854912;0.01140161;0;0;0;0
1;5.05;505;0.13275839;-0.1298874;-0.98602766;4.01506662;-7.21932364;8.09417629;0;0;0;6.83677149;6.8541441;-132.5398407;1;0;0;0;-0.01291241;0.01196482;0.00026351;0;0;0;0
1;5.06;506;0.11977312;-0.13748156;-0.98366088;4.00418329;-7.97019529;5.89806175;0;0;0;6.88267183;6.76797342;-132.4904633;1;0;0;0;-0.00134147;0.01887932;-0.00219269;0;0;0;0
1;5.07;507;0.12410181;-0.17991468;-0.98397595;15.53366184;-10.84605122;10.62280464;0;0;0;7.04885769;6.64742947;-132.3975067;1;0;0;0;-0.00748911;0.05929205;-0.0018488;0;0;0;0
1;5.08;508;0.12358094;-0.17989986;-0.98143429;29.09568977;-17.16758919;17.9244175;0;0;0;7.35776043;6.4546361;-132.2401581;1;0;0;0;-0.0098487;0.05482642;-0.00417118;0;0;0;0
1;5.09;509;0.12665367;-0.14117129;-0.94993675;31.82807732;-13.56177902;19.01843262;0;0;0;7.6943202;6.29656029;-132.0682983;1;0;0;0;-0.01615215;0.01018655;-0.03526855;0;0;0;0
1;5.1;510;0.11226876;-0.09605311;-0.98553026;23.86680603;-0.98008919;10.98710632;0;0;0;7.94482327;6.2719059;-131.9601135;1;0;0;0;-0.00294217;-0.03992286;0.00086951;0;0;0;0
1;5.11;511;0.09318809;-0.12274779;-1.07873321;15.2224493;-12.28370953;9.10473728;0;0;0;8.10500622;6.13756037;-131.8867493;1;0;0;0;0.01499119;-0.01640555;0.09438945;0;0;0;0
1;5.12;512;0.08184076;-0.24174282;-1.04249978;23.34632492;-41.60945129;19.10656548;0;0;0;8.35188007;5.69840002;-131.7565002;1;0;0;0;0.02064878;0.09909927;0.05804981;0;0;0;0
1;5.13;513;0.10625538;-0.20667323;-0.98533958;52.75911713;-45.56665421;39.27891159;0;0;0;8.90997505;5.18909931;-131.4348297;1;0;0;0;-0.01245371;0.0565927;0.00113316;0;0;0;0
1;5.14;514;0.05524601;-0.12574796;-1.10699415;76.58278656;-64.61238861;34.37049866;0;0;0;9.69443417;4.49512386;-131.1993866;1;0;0;0;0.02797815;-0.03673031;0.12381235;0;0;0;0
1;5.15;515;0.06127107;-0.1192141;-0.97664523;84.28098297;-72.59825897;33.16717529;0;0;0;10.55154705;3.72217298;-130.9998627;1;0;0;0;0.00850711;-0.05804115;-0.00502712;0;0;0;0
1;5.16;516;0.0661464;-0.1305576;-0.89777172;69.99768829;-48.10539246;23.63873672;0;0;0;11.26007271;3.20511103;-130.8584137;1;0;0;0;-0.00724734;-0.06017929;-0.08209243;0;0;0;0
1;5.17;517;0.06175871;-0.16586286;-0.93786573;45.61096954;-19.87338448;12.77311516;0;0;0;11.72081089;2.98494506;-130.7726288;1;0;0;0;-0.00848475;-0.03418191;-0.04046886;0;0;0;0
1;5.18;518;0.03502286;-0.17373909;-1.06047571;31.79815865;-39.82558441;10.41456509;0;0;0;12.03975964;2.57377815;-130.7528229;1;0;0;0;0.01298879;-0.0326524;0.08318822;0;0;0;0
1;5.19;519;0.02527502;-0.18111892;-0.95686072;33.61021042;-65.74075317;16.99903107;0;0;0;12.37606621;1.89546907;-130.7257385;1;0;0;0;0.01247114;-0.03090075;-0.0196677;0;0;0;0
1;5.2;520;0.03881453;-0.17649829;-0.87064821;26.13462639;-35.51918793;13.52700996;0;0;0;12.63901234;1.51940107;-130.6704102;1;0;0;0;-0.01065814;-0.04069181;-0.10507303;0;0;0;0
1;5.21;521;0.04847099;-0.19910738;-0.94699734;21.05044174;0.22642541;1.13127935;0;0;0;12.84981918;1.51911891;-130.6588593;1;0;0;0;-0.02211872;-0.02197891;-0.02790026;0;0;0;0
1;5.22;522;0.01036084;-0.2216529;-1.20842206;32.85673904;-44.17802048;4.10309792;0;0;0;13.1770277;1.07947147;-130.7185822;1;0;0;0;0.01281638;-0.00353065;0.23438743;0;0;0;0
1;5.23;523;-0.01171495;-0.21415278;-0.95812994;47.20832062;-118.162735;21.48181534;0;0;0;13.64845085;-0.11979482;-130.783844;1;0;0;0;0.01783341;-0.01876944;-0.01432447;0;0;0;0
1;5.24;524;0.02664718;-0.1729725;-0.6845302;21.46725273;-71.87650299;18.93022728;0;0;0;13.86402225;-0.85938549;-130.7710419;1;0;0;0;-0.03838447;-0.06593271;-0.28643662;0;0;0;0
1;5.25;525;0.02751418;-0.22598213;-0.9664709;-9.29908371;18.31594849;-4.51368809;0;0;0;13.77100372;-0.67076141;-130.7711182;1;0;0;0;-0.04080852;-0.01273597;-0.00452611;0;0;0;0
1;5.26;526;-0.02510347;-0.30432919;-1.1004051;-0.67148679;-2.43798018;-1.60911965;0;0;0;13.76453018;-0.69061393;-130.792572;1;0;0;0;0.01374802;0.06657385;0.12914664;0;0;0;0
1;5.27;527;-0.02577188;-0.33251104;-1.18448353;28.9710331;-64.15183258;18.6844635;0;0;0;14.05381775;-1.35819876;-130.7652741;1;0;0;0;0.00797101;0.09240086;0.21391012;0;0;0;0
1;5.28;528;-0.0438109;-0.25507742;-0.93320024;70.10041046;-124.1135254;36.46073151;0;0;0;14.75321579;-2.65103292;-130.7204742;1;0;0;0;0.00566243;0.00511287;-0.03427653;0;0;0;0
1;5.29;529;-0.02817398;-0.21596578;-0.82733309;55.02595139;-53.98692322;21.14526939;0;0;0;15.30016994;-3.22564578;-130.6556091;1;0;0;0;-0.0257052;-0.04448926;-0.13664246;0;0;0;0
1;5.3;530;-0.03075713;-0.2433375;-0.96100634;38.17989349;14.52082729;-0.81726485;0;0;0;15.68023586;-3.08350086;-130.6245117;1;0;0;0;-0.02427909;-0.02425844;-0.0009497;0;0;0;0
1;5.31;531;-0.09037773;-0.34851298;-1.31380928;39.38642502;-35.59738159;2.89939642;0;0;0;16.07805061;-3.43377948;-130.6945648;1;0;0;0;0.03443445;0.07506774;0.35355544;0;0;0;0
1;5.32;532;-0.12243596;-0.34589684;-1.07957506;76.08152771;-146.8646393;25.93478966;0;0;0;16.85086441;-4.91579342;-130.8629456;1;0;0;0;0.04720294;0.06180249;0.1237734;0;0;0;0
1;5.33;533;-0.09276705;-0.31166267;-0.84011286;79.50121307;-128.6424408;28.90762901;0;0;0;17.6560421;-6.23016548;-130.9682617;1;0;0;0;-0.00832772;0.01473328;-0.10939339;0;0;0;0
1;5.34;534;-0.09809408;-0.31070727;-0.90248692;63.57318115;-31.67216682;5.27450705;0;0;0;18.29757881;-6.546597;-131.0154114;1;0;0;0;-0.01512112;0.0026641;-0.04211953;0;0;0;0
1;5.35;535;-0.11271387;-0.41927671;-1.2066406;76.59022522;-4.08249664;-10.7637682;0;0;0;19.07666779;-6.55074453;-131.1316376;1;0;0;0;-0.00078416;0.09967811;0.26591778;0;0;0;0
1;5.36;536;-0.1318859;-0.39632401;-1.05357146;112.7373734;-99.68609619;7.07325697;0;0;0;20.23713112;-7.51315355;-131.404007;1;0;0;0;0.00929432;0.06074294;0.1196098;0;0;0;0
1;5.37;537;-0.10178899;-0.27005124;-0.65196866;105.0461044;-112.4752426;15.88869476;0;0;0;21.32301903;-8.62122536;-131.656662;1;0;0;0;-0.04191043;-0.08382061;-0.2721929;0;0;0;0
1;5.38;538;-0.08770172;-0.21461265;-0.66958129;61.34125519;-10.58381367;-0.32927155;0;0;0;21.94276619;-8.71849155;-131.6984406;1;0;0;0;-0.06454444;-0.15134743;-0.2485071;0;0;0;0
1;5.39;539;-0.12452596;-0.28087997;-0.9006682;46.50108337;11.32448673;-8.93640995;0;0;0;22.40851402;-8.57849216;-131.7381744;1;0;0;0;-0.02507439;-0.09332027;-0.01453055;0;0;0;0
1;5.4;540;-0.13733241;-0.31425714;-1.00647676;42.77272797;-34.94182968;6.26051378;0;0;0;22.84807968;-8.92503548;-131.8161011;1;0;0;0;-0.01474964;-0.0668578;0.0945483;0;0;0;0
1;5.41;541;-0.15925144;-0.3105287;-0.86730474;45.23725891;-87.7651825;18.92444992;0;0;0;23.32849693;-9.8065691;-131.9887848;1;0;0;0;-0.00485782;-0.07728627;-0.03969091;0;0;0;0
1;5.42;542;-0.14183645;-0.30201611;-0.65060449;32.49316406;-61.46058655;23.83533478;0;0;0;23.65794182;-10.46534443;-132.0154266;1;0;0;0;-0.03654201;-0.09113937;-0.25139311;0;0;0;0
1;5.43;543;-0.1458271;-0.35976803;-0.81059265;22.72382736;0.48625132;6.8185854;0;0;0;23.87324524;-10.48836994;-131.9499054;1;0;0;0;-0.03635864;-0.03695478;-0.08908416;0;0;0;0
1;5.44;544;-0.18586366;-0.42117143;-0.923913;17.3087635;-15.73022366;11.71593857;0;0;0;24.03707695;-10.68005753;-131.9058533;1;0;0;0;0.00239013;0.02161242;0.02575488;0;0;0;0
1;5.45;545;-0.20725162;-0.3737821;-0.876311;17.10856056;-55.60780716;21.5552597;0;0;0;24.21414566;-11.27565002;-131.9370422;1;0;0;0;0.01601074;-0.02771373;-0.01935466;0;0;0;0
1;5.46;546;-0.20698853;-0.35609642;-0.80967468;8.8680048;-40.76054764;20.97370338;0;0;0;24.29792213;-11.73344135;-131.9127197;1;0;0;0;0.005979;-0.04649224;-0.08336148;0;0;0;0
1;5.47;547;-0.21323431;-0.40710419;-0.89275128;9.46380138;-3.5710218;6.9855485;0;0;0;24.38235474;-11.79475689;-131.8627167;1;0;0;0;0.00897679;0.0035551;0.00088431;0;0;0;0
1;5.48;548;-0.23609437;-0.47592914;-1.07233012;9.2296524;-25.23261452;6.48804951;0;0;0;24.48424149;-12.05131531;-131.9090271;1;0;0;0;0.02961961;0.07118566;0.18151684;0;0;0;0
1;5.49;549;-0.22962248;-0.41499895;-0.79175383;26.7696476;-78.0464325;18.19761848;0;0;0;24.7884922;-12.83815479;-132.0735169;1;0;0;0;0.01260914;0.00715624;-0.09512347;0;0;0;0
1;5.5;550;-0.18776178;-0.3194342;-0.71735072;5.69342089;-20.36252975;15.21582985;0;0;0;24.83315849;-13.08686352;-132.0194702;1;0;0;0;-0.03834642;-0.08969916;-0.16666535;0;0;0;0
1;5.51;551;-0.23645732;-0.37474841;-0.9261446;-8.32012177;6.48722124;1.7045691;0;0;0;24.74005508;-13.03512859;-131.9756317;1;0;0;0;0.0109253;-0.0335959;0.04161651;0;0;0;0
1;5.52;552;-0.23829819;-0.37673032;-0.94095141;-18.54171944;-16.09610176;6.86567831;0;0;0;24.55575562;-13.21007919;-131.9804688;1;0;0;0;0.0111536;-0.02919518;0.05572377;0;0;0;0
1;5.53;553;-0.24164814;-0.42056149;-0.90428114;-21.55964851;-49.72237396;14.95827484;0;0;0;24.35677719;-13.72464466;-132.0518799;1;0;0;0;0.0082733;0.01855152;0.01889145;0;0;0;0
1;5.54;554;-0.23523828;-0.39248154;-0.74483609;-34.90569305;-23.61440277;15.53441906;0;0;0;23.99931908;-14.00357246;-132.0066681;1;0;0;0;-0.00596642;-0.00449967;-0.14072686;0;0;0;0
1;5.55;555;-0.25007164;-0.44417417;-0.93214363;-39.35336685;2.30628681;7.40735626;0;0;0;23.58654976;-14.01239967;-131.9271088;1;0;0;0;0.00823257;0.05351158;0.04394729;0;0;0;0
1;5.56;556;-0.27000034;-0.40974581;-0.85288578;-39.15146637;-22.43593407;6.65821075;0;0;0;23.20208359;-14.24480629;-131.9558868;1;0;0;0;0.0256618;0.02544407;-0.03739849;0;0;0;0
1;5.57;557;-0.22920828;-0.3759284;-0.88861132;-46.88538361;-18.02449226;9.93722916;0;0;0;22.72783279;-14.44952297;-131.9341583;1;0;0;0;-0.01935676;-0.00086623;-0.00370915;0;0;0;0
1;5.58;558;-0.25378901;-0.38271037;-0.87786824;-53.7080307;-5.81260681;5.8424139;0;0;0;22.18253708;-14.52548504;-131.9013825;1;0;0;0;0.00339656;0.01371863;-0.01719663;0;0;0;0
1;5.59;559;-0.25798786;-0.32824114;-0.90191919;-60.52857971;-10.19410324;6.31171846;0;0;0;21.56929779;-14.64428043;-131.8793335;1;0;0;0;0.00603247;-0.03103324;0.00334713;0;0;0;0
1;5.6;560;-0.27118033;-0.35735619;-0.87023121;-67.24341583;-23.58621216;8.42341709;0;0;0;20.89865875;-14.89450264;-131.8865662;1;0;0;0;0.0156871;0.00826377;-0.03134789;0;0;0;0
1;5.61;561;-0.27324966;-0.34472761;-0.88210058;-57.22650909;-12.23120022;4.61986494;0;0;0;20.32638168;-15.02524281;-131.8865204;1;0;0;0;0.01458719;0.00584323;-0.02246787;0;0;0;0
1;5.62;562;-0.25252506;-0.33139721;-0.89604074;-55.31251526;-2.62450719;0.85988152;0;0;0;19.77350426;-15.05289841;-131.8874664;1;0;0;0;-0.00700462;0.00152297;-0.01160507;0;0;0;0
1;5.63;563;-0.26419911;-0.3039903;-0.85845715;-49.18749237;-9.80036449;-3.23699522;0;0;0;19.29869652;-15.13441181;-131.9530182;1;0;0;0;0.00362382;-0.01802364;-0.05170895;0;0;0;0
1;5.64;564;-0.25001726;-0.27048364;-0.92357689;-56.52200317;1.9132272;-4.42655897;0;0;0;18.73937607;-15.10137749;-131.9888916;1;0;0;0;-0.01079118;-0.04303044;0.01051569;0;0;0;0
1;5.65;565;-0.28109917;-0.2958411;-0.88847446;-50.38262177;-9.24268246;-9.09550858;0;0;0;18.26677704;-15.16015148;-132.1085663;1;0;0;0;0.02003795;-0.00956956;-0.02725828;0;0;0;0
1;5.66;566;-0.24912539;-0.31212381;-0.94006902;-48.49011993;3.98874187;-6.67029285;0;0;0;17.7957077;-15.10159397;-132.1615601;1;0;0;0;-0.01188698;0.0143376;0.0218147;0;0;0;0
1;5.67;567;-0.2420786;-0.30842227;-0.85947746;-42.3719101;-5.20828629;-10.38843346;0;0;0;17.40296745;-15.11980534;-132.280426;1;0;0;0;-0.01859051;0.0172643;-0.0609981;0;0;0;0
1;5.68;568;-0.23227704;-0.27463004;-0.90527445;-42.06909561;6.323246;-7.28133392;0;0;0;16.99599457;-15.03786182;-132.3331451;1;0;0;0;-0.02778026;-0.01006857;-0.0173918;0;0;0;0
1;5.69;569;-0.2584888;-0.25986227;-0.91411448;-47.4303093;-5.65128326;-8.58182812;0;0;0;16.54730415;-15.06674385;-132.4347992;1;0;0;0;-0.00114401;-0.018167;-0.01070206;0;0;0;0
1;5.7;570;-0.27782854;-0.28450793;-0.94760615;-54.47685623;-1.67700064;-9.02619743;0;0;0;16.0271492;-15.05753422;-132.52948;1;0;0;0;0.01784272;0.01479321;0.02043006;0;0;0;0
1;5.71;571;-0.28773689;-0.33242133;-0.98788273;-40.97167206;2.45398021;-8.09284592;0;0;0;15.63652802;-15.01188183;-132.6031342;1;0;0;0;0.02852868;0.07004713;0.05838399;0;0;0;0
1;5.72;572;-0.28242376;-0.29671976;-0.94898021;-27.34595871;4.39067602;-4.66696072;0;0;0;15.37198639;-14.95707798;-132.6375885;1;0;0;0;0.02385885;0.03910416;0.01797175;0;0;0;0
1;5.73;573;-0.30048791;-0.2512891;-0.97894263;-20.26118469;5.17521524;-4.79692364;0;0;0;15.17806149;-14.8945322;-132.6713562;1;0;0;0;0.04317234;-0.00276927;0.04661097;0;0;0;0
1;5.74;574;-0.29296723;-0.2630657;-0.95266283;-16.09083366;0.87570941;-2.90375209;0;0;0;15.02095032;-14.88197517;-132.6972961;1;0;0;0;0.0359726;0.01163684;0.01953004;0;0;0;0
1;5.75;575;-0.28860927;-0.24947225;-0.97006154;-9.93737698;1.03399301;-4.70961857;0;0;0;14.93294144;-14.85982227;-132.7415772;1;0;0;0;0.03211738;-0.00007117;0.0362844;0;0;0;0
1;5.76;576;-0.26796311;-0.22831319;-0.94714981;-13.40136528;1.92516208;-4.83170557;0;0;0;14.8099947;-14.82881546;-132.78479;1;0;0;0;0.0118081;-0.01958664;0.01284268;0;0;0;0
1;5.77;577;-0.28531963;-0.21144512;-0.91369247;-18.39624214;-5.25987387;-4.66278696;0;0;0;14.64153194;-14.86781216;-132.8452759;1;0;0;0;0.02900815;-0.03408879;-0.02119607;0;0;0;0
1;5.78;578;-0.27796578;-0.2285835;-0.91815919;-21.02801323;-4.67594528;-5.84863186;0;0;0;14.4494257;-14.89839268;-132.9160004;1;0;0;0;0.02103934;-0.01368381;-0.0174126;0;0;0;0
1;5.79;579;-0.26598358;-0.24932547;-0.91678125;-18.75431633;-5.59147549;-5.46727419;0;0;0;14.28408813;-14.94206142;-132.9865112;1;0;0;0;0.00849339;0.00992007;-0.01937215;0;0;0;0
1;5.8;580;-0.25146109;-0.2155104;-0.90828842;-29.3836174;-5.51576376;-1.71395802;0;0;0;13.99829769;-14.99135685;-133.0176697;1;0;0;0;-0.00690222;-0.0200065;-0.02860968;0;0;0;0
1;5.81;581;-0.26384512;-0.21965243;-0.88522959;-37.11566544;-8.783144;-0.45039892;0;0;0;13.63395023;-15.07553864;-133.0439453;1;0;0;0;0.00424001;-0.01034548;-0.05269513;0;0;0;0
1;5.82;582;-0.26380464;-0.23799171;-0.94185108;-33.14045334;-6.49324656;1.06786776;0;0;0;13.30381203;-15.14118099;-133.0488129;1;0;0;0;0.00310699;0.01397264;0.0027824;0;0;0;0
1;5.83;583;-0.25562117;-0.24871252;-0.9016279;-26.72487068;-6.571105;2.59834766;0;0;0;13.03376865;-15.21105862;-133.0381775;1;0;0;0;-0.00651783;0.02948549;-0.03817053;0;0;0;0
1;5.84;584;-0.26477203;-0.23681663;-0.93771267;-19.89495087;0.52656817;2.47593498;0;0;0;12.83300972;-15.21329212;-133.0134583;1;0;0;0;0.00242706;0.02134599;-0.00289719;0;0;0;0
1;5.85;585;-0.2633715;-0.22530915;-0.91836548;-18.25979233;-1.23654461;2.73262072;0;0;0;12.64390469;-15.23138046;-132.9886627;1;0;0;0;0.00072794;0.01290786;-0.02285884;0;0;0;0
1;5.86;586;-0.26570544;-0.211913;-0.92321736;-19.95882988;-0.61539561;2.09577131;0;0;0;12.43910885;-15.24193954;-132.9688568;1;0;0;0;0.00288722;0.00283289;-0.01870155;0;0;0;0
1;5.87;587;-0.26396188;-0.20140727;-0.9380905;-18.01465797;-1.10758543;1.34870744;0;0;0;12.25601959;-15.25564766;-132.9576569;1;0;0;0;0.00092345;-0.00449963;-0.0044658;0;0;0;0
1;5.88;588;-0.25580162;-0.18339832;-0.94446772;-20.70228577;-1.52573347;1.42917073;0;0;0;12.04606056;-15.27357483;-132.9465027;1;0;0;0;-0.00750228;-0.01931049;0.00129266;0;0;0;0
1;5.89;589;-0.26481462;-0.16636579;-0.93902415;-26.44547081;-2.55341721;2.4148047;0;0;0;11.77245903;-15.30483723;-132.9262848;1;0;0;0;0.00108796;-0.03219372;-0.00491479;0;0;0;0
1;5.9;590;-0.27049765;-0.18733412;-0.94888979;-23.58692169;-3.80652547;3.58998489;0;0;0;11.52906227;-15.34936523;-132.8977966;1;0;0;0;0.00608031;-0.00682877;0.00422956;0;0;0;0
1;5.91;591;-0.2769303;-0.19277954;-0.97973955;-16.25513458;-3.18236423;3.92758441;0;0;0;11.3576622;-15.38834286;-132.8644257;1;0;0;0;0.01180484;0.00191636;0.03460513;0;0;0;0
1;5.92;592;-0.28673697;-0.19039263;-0.99766749;-11.47820282;-1.71601987;2.78395677;0;0;0;11.23628616;-15.41062641;-132.8395996;1;0;0;0;0.02111372;0.00182858;0.05221118;0;0;0;0
1;5.93;593;-0.28149018;-0.18839246;-0.99048215;-10.55381203;-0.53171724;1.17668247;0;0;0;11.12785339;-15.41812897;-132.8286896;1;0;0;0;0.01566446;0.00164699;0.0447219;0;0;0;0
1;5.94;594;-0.28408429;-0.19262445;-0.9808237;-13.0668869;-0.4978151;0.17539138;0;0;0;10.99938011;-15.42497826;-132.8286438;1;0;0;0;0.01817063;0.00789306;0.03469262;0;0;0;0
1;5.95;595;-0.27264196;-0.19353186;-0.98540211;-12.8939352;-1.14935565;0.16559327;0;0;0;10.87059498;-15.4365778;-132.8292389;1;0;0;0;0.00654348;0.01097561;0.03890093;0;0;0;0
1;5.96;596;-0.26364765;-0.17859565;-0.96752888;-12.34566784;-1.04379225;-0.83732456;0;0;0;10.74995327;-15.44526577;-132.839798;1;0;0;0;-0.0026175;-0.00196932;0.0206926;0;0;0;0
1;5.97;597;-0.2610893;-0.17013726;-0.95925033;-16.06156158;-1.65670204;-0.76407093;0;0;0;10.59226131;-15.46012688;-132.850769;1;0;0;0;-0.00537381;-0.0080797;0.01202519;0;0;0;0
1;5.98;598;-0.25850475;-0.16460043;-0.95416927;-21.83057404;-3.73989511;-0.31553918;0;0;0;10.37669849;-15.49632454;-132.8610535;1;0;0;0;-0.00840501;-0.01040592;0.00647165;0;0;0;0
1;5.99;599;-0.27180263;-0.13571721;-0.94945168;-27.10275459;-7.49538422;1.12214732;0;0;0;10.10083675;-15.57485867;-132.8618164;1;0;0;0;0.00390336;-0.03503538;0.00125781;0;0;0;0
1;6;600;-0.27009574;-0.13506387;-0.92405146;-30.77568817;-6.91897011;2.06635499;0;0;0;9.79074192;-15.64657021;-132.8531189;1;0;0;0;0.00074151;-0.03069873;-0.02461535;0;0;0;0
1;6.01;601;-0.26906276;-0.12793703;-0.92837101;-38.69915009;-5.60562277;1.84633505;0;0;0;9.40125751;-15.70493221;-132.8438873;1;0;0;0;-0.00116542;-0.0318944;-0.02106412;0;0;0;0
1;6.02;602;-0.27117616;-0.14539154;-0.94513935;-44.38341904;-9.86095047;2.21572399;0;0;0;8.95567799;-15.80582619;-132.8374634;1;0;0;0;-0.00045715;-0.00717793;-0.00508864;0;0;0;0
1;6.03;603;-0.26693806;-0.17780511;-0.92556453;-45.91754913;-12.94814968;3.07306266;0;0;0;8.49346828;-15.93841553;-132.826416;1;0;0;0;-0.00705785;0.03276176;-0.02516332;0;0;0;0
1;6.04;604;-0.27439108;-0.17012401;-0.97066909;-45.98575592;-3.02473044;2.64841437;0;0;0;8.03023148;-15.97200871;-132.804596;1;0;0;0;-0.0006195;0.03302864;0.01905502;0;0;0;0
1;6.05;605;-0.27605051;-0.14979003;-0.94969922;-43.04478455;-5.31263924;0.71303582;0;0;0;7.59982681;-16.02562141;-132.8047485;1;0;0;0;0.00032754;0.01996168;-0.00272785;0;0;0;0
1;6.06;606;-0.28265855;-0.13604026;-0.97808319;-46.76593399;-2.0865922;-0.1658392;0;0;0;7.13341475;-16.04611015;-132.8092499;1;0;0;0;0.00635341;0.01370929;0.02483304;0;0;0;0
1;6.07;607;-0.2871061;-0.13560911;-0.97717029;-51.96537781;-3.94236064;-0.99903572;0;0;0;6.61797857;-16.08405495;-132.8244934;1;0;0;0;0.01029298;0.02160367;0.02303642;0;0;0;0
1;6.08;608;-0.28860581;-0.14504583;-0.99748957;-53.95723724;-1.56407118;-0.77162617;0;0;0;6.08111525;-16.09875488;-132.834259;1;0;0;0;0.01143229;0.03989896;0.04244372;0;0;0;0
1;6.09;609;-0.29298484;-0.1381212;-1.01349068;-52.44245529;-3.06606579;-0.91286886;0;0;0;5.56166553;-16.12743568;-132.8473663;1;0;0;0;0.01542091;0.04180074;0.05762719;0;0;0;0
1;6.1;610;-0.28824636;-0.10952537;-0.97648603;-54.70310211;-5.87896395;-1.28584409;0;0;0;5.01994562;-16.18475723;-132.8664398;1;0;0;0;0.00970821;0.02198999;0.02006185;0;0;0;0
1;6.11;611;-0.28421864;-0.05550079;-0.99666458;-63.12708664;3.51752758;-2.20940351;0;0;0;4.39422655;-16.14790726;-132.8863831;1;0;0;0;0.0058393;-0.0221304;0.03934053;0;0;0;0
1;6.12;612;-0.28830665;-0.03369725;-0.94836855;-73.87250519;-0.19587818;-3.24160814;0;0;0;3.66488743;-16.1475811;-132.9201355;1;0;0;0;0.01025885;-0.03244373;-0.00991257;0;0;0;0
1;6.13;613;-0.2682862;-0.05034732;-0.9316743;-86.34780884;-3.48882699;-3.39022446;0;0;0;2.81178355;-16.18050575;-132.9573975;1;0;0;0;-0.01013504;-0.00226247;-0.02733405;0;0;0;0
1;6.14;614;-0.27372679;-0.05279572;-0.94958329;-91.30161285;-2.32431412;-3.7183423;0;0;0;1.91189265;-16.20249176;-132.9976807;1;0;0;0;-0.005123;0.01517914;-0.01000522;0;0;0;0
1;6.15;615;-0.27105185;-0.05386903;-0.98664862;-86.33912659;-0.02621417;-4.34695959;0;0;0;1.06110609;-16.20165825;-133.0428619;1;0;0;0;-0.00788779;0.030803;0.02662522;0;0;0;0
1;6.16;616;-0.28455943;-0.04985638;-1.01413393;-78.08274078;-3.46352482;-6.15095901;0;0;0;0.29823342;-16.2355938;-133.1071777;1;0;0;0;0.00537311;0.04018203;0.05395223;0;0;0;0
1;6.17;617;-0.27717805;-0.04358405;-0.9393211;-72.20396423;-1.87343144;-5.04922152;0;0;0;-0.40901563;-16.2543354;-133.1600037;1;0;0;0;-0.00291894;0.04601315;-0.02064173;0;0;0;0
1;6.18;618;-0.28256488;-0.01402023;-0.98381394;-67.12840271;9.7524128;-4.6418004;0;0;0;-1.06644154;-16.15742683;-133.2096558;1;0;0;0;0.00367903;0.02782844;0.0235939;0;0;0;0
1;6.19;619;-0.27456924;0.03119019;-0.96321774;-66.92073822;3.78546238;-5.08217049;0;0;0;-1.72277963;-16.12075615;-133.2628021;1;0;0;0;-0.00322001;-0.00653166;0.00289725;0;0;0;0
1;6.2;620;-0.28701478;0.06465511;-0.95676494;-78.14900208;2.46514201;-5.39778519;0;0;0;-2.48841476;-16.09810066;-133.319931;1;0;0;0;0.00952901;-0.02792077;-0.00325531;0;0;0;0
1;6.21;621;-0.29372633;0.05132342;-0.99521297;-88.64885712;5.27489948;-5.56862879;0;0;0;-3.35808253;-16.04824638;-133.380661;1;0;0;0;0.01689991;-0.00064934;0.03563915;0;0;0;0
1;6.22;622;-0.28750381;0.0430788;-1.01480937;-96.41069031;6.14736032;-6.42579556;0;0;0;-4.30261135;-15.99122047;-133.4516144;1;0;0;0;0.0116769;0.02307609;0.05589166;0;0;0;0
1;6.23;623;-0.29100081;0.08021004;-1.00798917;-100.2446594;5.78140974;-7.10064793;0;0;0;-5.28346205;-15.93956184;-133.5301514;1;0;0;0;0.01613034;0.00208567;0.05004764;0;0;0;0
1;6.24;624;-0.29510811;0.09159486;-1.01174939;-93.94996643;1.41931617;-10.44896317;0;0;0;-6.19182444;-15.93705845;-133.6399231;1;0;0;0;0.02073451;0.00673142;0.05517551;0;0;0;0
1;6.25;625;-0.30440834;0.08832329;-0.98194242;-76.14640045;-10.34178638;-8.07566071;0;0;0;-6.93364668;-16.04894829;-133.7111969;1;0;0;0;0.02848785;0.02306915;0.02724494;0;0;0;0
1;6.26;626;-0.28586382;0.13428459;-0.94484425;-75.8214035;-3.00507855;-4.423316;0;0;0;-7.68026781;-16.08435059;-133.7530518;1;0;0;0;0.00882693;-0.01068512;-0.00802571;0;0;0;0
1;6.27;627;-0.27590421;0.14874747;-0.95637882;-87.92023468;5.61070013;-3.68368006;0;0;0;-8.54669189;-16.03401756;-133.7992554;1;0;0;0;-0.00062981;-0.01139395;0.00524999;0;0;0;0
1;6.28;628;-0.28051752;0.15585884;-0.94961923;-85.35507965;-1.42731464;-5.67045975;0;0;0;-9.38481903;-16.05698204;-133.855072;1;0;0;0;0.0042231;-0.00420128;0.00059545;0;0;0;0
1;6.29;629;-0.2905398;0.17652345;-0.96229756;-67.29399109;-6.78147268;-6.89959764;0;0;0;-10.04213238;-16.13563156;-133.9136505;1;0;0;0;0.01325076;-0.01298666;0.01553605;0;0;0;0
1;6.3;630;-0.27041888;0.19338094;-0.90004075;-70.04859924;-0.25916454;-4.37410498;0;0;0;-10.73021507;-16.14605522;-133.9582062;1;0;0;0;-0.00794148;-0.01889525;-0.04444829;0;0;0;0
1;6.31;631;-0.28730235;0.2154979;-0.98596853;-73.63826752;6.96450329;-4.9099741;0;0;0;-11.44884872;-16.08717155;-134.0221863;1;0;0;0;0.00999315;-0.02919922;0.04342891;0;0;0;0
1;6.32;632;-0.30811462;0.22232985;-0.93243164;-77.48857117;-14.65337849;-8.26755714;0;0;0;-12.20903683;-16.24751091;-134.0750275;1;0;0;0;0.02953193;-0.02404156;-0.0072808;0;0;0;0
1;6.33;633;-0.30209666;0.21599294;-0.9809075;-84.32316589;-6.34387922;-3.90364194;0;0;0;-13.04519749;-16.31791115;-134.1002502;1;0;0;0;0.02157918;-0.00449616;0.04465784;0;0;0;0
1;6.34;634;-0.29991454;0.22322877;-0.95661354;-91.87097931;-4.00763321;-2.17379451;0;0;0;-13.95999146;-16.36180687;-134.1128235;1;0;0;0;0.01832896;0.00252053;0.02402157;0;0;0;0
1;6.35;635;-0.30048668;0.22528513;-0.98757613;-99.2040863;1.98438275;-2.24088669;0;0;0;-14.94422531;-16.34818268;-134.1405487;1;0;0;0;0.01897404;0.01618141;0.05890872;0;0;0;0
1;6.36;636;-0.29287022;0.2161157;-0.95111567;-97.51454163;-8.93284893;-3.52771831;0;0;0;-15.91640186;-16.44367409;-134.151062;1;0;0;0;0.01051984;0.04125264;0.02698414;0;0;0;0
1;6.37;637;-0.27969924;0.24778999;-0.95770514;-89.40556335;-14.4917326;-3.02753711;0;0;0;-16.81394768;-16.59125328;-134.138794;1;0;0;0;-0.00492274;0.02402201;0.03841744;0;0;0;0
1;6.38;638;-0.2721006;0.276696;-0.91931587;-102.2872772;0.50286323;-1.32815909;0;0;0;-17.83249664;-16.59046364;-134.1539154;1;0;0;0;-0.01372053;0.01045147;0.00507933;0;0;0;0
1;6.39;639;-0.31837812;0.32338846;-0.96353644;-94.36653137;-1.55634487;-1.88686132;0;0;0;-18.77178383;-16.61159134;-134.1674652;1;0;0;0;0.03285128;-0.0203606;0.05434436;0;0;0;0
1;6.4;640;-0.29806682;0.31658873;-0.89043784;-88.45476532;-9.20862293;-1.97943807;0;0;0;-19.65976524;-16.70507622;-134.1554871;1;0;0;0;0.01106077;0.00046377;-0.01349138;0;0;0;0
1;6.41;641;-0.30755126;0.34459683;-0.92290539;-99.52158356;-6.65695715;-1.28892708;0;0;0;-20.65827942;-16.77199554;-134.1440277;1;0;0;0;0.01954054;-0.01286969;0.02458268;0;0;0;0
1;6.42;642;-0.29549733;0.32919005;-0.89752042;-103.3424072;-3.9478116;-1.59520388;0;0;0;-21.69148254;-16.81459236;-134.1447907;1;0;0;0;0.0063725;0.01862872;0.00566529;0;0;0;0
1;6.43;643;-0.28848153;0.34097698;-0.89755291;-100.2680435;-1.47631669;-2.26866341;0;0;0;-22.68949509;-16.83683777;-134.1609192;1;0;0;0;-0.00101782;0.02249757;0.0120842;0;0;0;0
1;6.44;644;-0.2948361;0.35815108;-0.85329229;-105.2878952;-7.37744999;-4.23669815;0;0;0;-23.73951912;-16.92225647;-134.1711578;1;0;0;0;0.00432609;0.02102585;-0.02523164;0;0;0;0
1;6.45;645;-0.28514391;0.40414035;-0.83661103;-109.2024078;0.23669736;-4.04652262;0;0;0;-24.81997299;-16.93681335;-134.2108917;1;0;0;0;-0.00619357;-0.0088605;-0.03450914;0;0;0;0
1;6.46;646;-0.30681321;0.44302052;-0.86035675;-113.0691986;-0.17108534;-7.81881666;0;0;0;-25.92945862;-16.97179031;-134.2836762;1;0;0;0;0.01538602;-0.03112398;-0.00299974;0;0;0;0
1;6.47;647;-0.29924792;0.43049902;-0.77851182;-119.4262314;1.17743778;-8.00509739;0;0;0;-27.10003853;-16.99713135;-134.3645935;1;0;0;0;0.00666692;-0.00143091;-0.0760449;0;0;0;0
1;6.48;648;-0.30075976;0.4603903;-0.81867731;-112.4992447;0.20406245;-6.35144234;0;0;0;-28.20764351;-17.02463913;-134.424118;1;0;0;0;0.00840188;-0.01449804;-0.02730164;0;0;0;0
1;6.49;649;-0.32556805;0.50483835;-0.86654502;-106.1003494;-1.39569867;-4.82120085;0;0;0;-29.25795937;-17.06007767;-134.4612579;1;0;0;0;0.0324122;-0.04312216;0.02937423;0;0;0;0
1;6.5;650;-0.32606485;0.50824231;-0.82603562;-100.1403275;-18.83385086;-6.569664;0;0;0;-30.27075005;-17.25602722;-134.4226837;1;0;0;0;0.03102808;-0.03216388;-0.00238356;0;0;0;0
1;6.51;651;-0.25953847;0.46734309;-0.76864547;-115.8398895;-1.2691431;-2.07562733;0;0;0;-31.42534828;-17.27788353;-134.4354248;1;0;0;0;-0.03802932;0.02389601;-0.04995507;0;0;0;0
1;6.52;652;-0.28418162;0.50201702;-0.96242565;-131.2891998;11.37490749;-2.47243166;0;0;0;-32.71318436;-17.19441414;-134.5200501;1;0;0;0;-0.01156869;0.00753962;0.15443556;0;0;0;0
1;6.53;653;-0.31328148;0.50313127;-0.81114602;-121.6975937;4.28519344;-2.70841169;0;0;0;-33.91580963;-17.17356491;-134.5686035;1;0;0;0;0.01772086;0.02385454;0.01434067;0;0;0;0
1;6.54;654;-0.32869974;0.53026611;-0.83560163;-99.03503418;-11.45621777;1.41340375;0;0;0;-34.92961884;-17.26218033;-134.4885254;1;0;0;0;0.03270876;0.01151258;0.04893582;0;0;0;0
1;6.55;655;-0.31891847;0.55605334;-0.70256543;-104.3918686;-11.63106728;10.27898312;0;0;0;-36.02049637;-17.29743958;-134.330658;1;0;0;0;0.02139568;-0.00043118;-0.073796;0;0;0;0
1;6.56;656;-0.31973007;0.60866612;-0.80209726;-104.790535;9.74205494;13.28320694;0;0;0;-37.08349228;-17.13999939;-134.2796326;1;0;0;0;0.02414481;-0.03763241;0.03624664;0;0;0;0
1;6.57;657;-0.32144353;0.56230986;-0.82265633;-107.4896851;5.45284319;14.08813667;0;0;0;-38.18246841;-17.01046944;-134.197403;1;0;0;0;0.02840403;0.02344118;0.06701277;0;0;0;0
1;6.58;658;-0.26768476;0.54980594;-0.72633266;-90.53398132;-21.09474564;16.68247414;0;0;0;-39.16813278;-17.07089043;-133.9233093;1;0;0;0;-0.02550229;0.04931341;-0.01870185;0;0;0;0
1;6.59;659;-0.26914233;0.5575341;-0.67983431;-72.75775909;-8.978055;16.6602459;0;0;0;-39.95622635;-17.03510094;-133.7281342;1;0;0;0;-0.02418414;0.05295628;-0.05586183;0;0;0;0
1;6.6;660;-0.24429891;0.56398904;-0.71480876;-68.79439545;23.15826416;17.77806091;0;0;0;-40.63985062;-16.74350739;-133.7430115;1;0;0;0;-0.04570382;0.05604558;-0.01419186;0;0;0;0
1;6.61;661;-0.27369261;0.5831157;-0.74342579;-57.37176132;-16.23000336;16.54392242;0;0;0;-41.28318405;-16.75742722;-133.5011597;1;0;0;0;-0.01411352;0.04572083;0.02112189;0;0;0;0
1;6.62;662;-0.26207131;0.59851408;-0.69776207;-49.17084503;-17.44065666;18.44167519;0;0;0;-41.85131836;-16.76557732;-133.2362824;1;0;0;0;-0.02647899;0.03767423;-0.01777691;0;0;0;0
1;6.63;663;-0.29521534;0.63002926;-0.63593864;-46.73881912;-12.99338818;17.46688652;0;0;0;-42.38395691;-16.74484062;-133.0099945;1;0;0;0;0.00693844;0.01309265;-0.07348697;0;0;0;0
1;6.64;664;-0.27448317;0.64300585;-0.69668722;-57.97593307;13.70419502;18.6016407;0;0;0;-42.97730637;-16.51187897;-132.9638825;1;0;0;0;-0.01115131;0.00758474;-0.00697147;0;0;0;0
1;6.65;665;-0.28233954;0.66030496;-0.7244159;-59.07748413;-19.75179672;10.36357784;0;0;0;-43.63073349;-16.58441734;-132.7436066;1;0;0;0;-0.00221054;-0.00178243;0.02773128;0;0;0;0
1;6.66;666;-0.28519282;0.66846353;-0.72402072;-53.60870361;-20.34683037;7.45476294;0;0;0;-44.22502136;-16.67926979;-132.540329;1;0;0;0;-0.00136921;-0.00289705;0.03489381;0;0;0;0
1;6.67;667;-0.33451813;0.73243368;-0.67581958;-50.66107941;-14.61290836;9.42869091;0;0;0;-44.78252792;-16.71743774;-132.3632355;1;0;0;0;0.04701291;-0.06017102;-0.00638059;0;0;0;0
1;6.68;668;-0.3404457;0.69193941;-0.57842612;-50.98000336;17.14252663;12.16935635;0;0;0;-45.28179932;-16.51040077;-132.4002991;1;0;0;0;0.0543389;-0.01346889;-0.09819293;0;0;0;0
1;6.69;669;-0.30280024;0.76940113;-0.76242959;-64.80532837;13.71897984;16.93548775;0;0;0;-45.93576813;-16.29304504;-132.3786163;1;0;0;0;0.02142549;-0.08289088;0.09196629;0;0;0;0
1;6.7;670;-0.30514997;0.70711154;-0.68426251;-69.27853394;-20.28787994;11.12958241;0;0;0;-46.69404602;-16.35265541;-132.1456146;1;0;0;0;0.02400187;-0.0120561;0.022567;0;0;0;0
1;6.71;671;-0.28627586;0.68698531;-0.66868693;-77.94397736;-1.70539784;10.22978115;0;0;0;-47.49751282;-16.28977013;-132.0603485;1;0;0;0;0.00500833;0.01709338;0.01665381;0;0;0;0
1;6.72;672;-0.24750572;0.75674587;-0.73674321;-65.990448;27.6375351;12.58180428;0;0;0;-48.12259674;-16.01051712;-132.1851502;1;0;0;0;-0.02947563;-0.04402559;0.09230489;0;0;0;0
1;6.73;673;-0.27027518;0.69176668;-0.65191418;-63.1870842;-17.52836609;-0.89936227;0;0;0;-48.79052734;-16.13359833;-132.0548554;1;0;0;0;-0.00688135;0.02836269;0.01584177;0;0;0;0
1;6.74;674;-0.27452973;0.70535964;-0.70329994;-58.58443832;-6.77364969;3.98336172;0;0;0;-49.3955574;-16.14736938;-131.9753723;1;0;0;0;-0.00349969;0.02149376;0.07530646;0;0;0;0
1;6.75;675;-0.27751341;0.72561526;-0.61374569;-48.18209457;-9.16945648;5.87519646;0;0;0;-49.90863037;-16.16195869;-131.8630219;1;0;0;0;-0.00079486;0.00719868;-0.00715916;0;0;0;0
1;6.76;676;-0.29407403;0.71099186;-0.59367681;-38.79558182;-1.06760013;7.30825567;0;0;0;-50.31251907;-16.11277962;-131.8057556;1;0;0;0;0.01611982;0.02672157;-0.02156056;0;0;0;0
1;6.77;677;-0.27240264;0.75268674;-0.52381295;-48.94762039;18.77853394;12.44375515;0;0;0;-50.78310394;-15.89737701;-131.8742981;1;0;0;0;-0.00305456;-0.01014334;-0.08671561;0;0;0;0
1;6.78;678;-0.26902622;0.80236226;-0.58665097;-56.73737335;-5.10371447;2.49301362;0;0;0;-51.36629868;-15.90998554;-131.8165283;1;0;0;0;-0.0046667;-0.0534765;-0.01688397;0;0;0;0
1;6.79;679;-0.28196007;0.72504622;-0.58205074;-61.81629562;-9.06006813;-0.85130268;0;0;0;-52.00164413;-15.97425175;-131.7486572;1;0;0;0;0.00707456;0.03016552;-0.01299925;0;0;0;0
1;6.8;680;-0.36685646;0.75640011;-0.60719371;-70.28057098;-3.67001247;2.85067129;0;0;0;-52.71772766;-15.97415161;-131.7004395;1;0;0;0;0.09151597;0.0056359;0.02112477;0;0;0;0
1;6.81;681;-0.24689308;0.80069315;-0.63569254;-54.90648651;11.93822861;9.40869236;0;0;0;-53.25575638;-15.82684612;-131.740448;1;0;0;0;-0.02647381;-0.03210866;0.05729775;0;0;0;0
1;6.82;682;-0.26904082;0.76379484;-0.57884049;-45.8074913;-9.64638424;2.81315589;0;0;0;-53.74057388;-15.86166;-131.6424408;1;0;0;0;-0.00404795;0.01009259;0.00742508;0;0;0;0
1;6.83;683;-0.30480188;0.77830291;-0.57670116;-49.81618881;-2.69449735;2.5591979;0;0;0;-54.24918747;-15.85684299;-131.6042023;1;0;0;0;0.03144553;0.0005105;0.01214786;0;0;0;0
1;6.84;684;-0.29506138;0.79318243;-0.53474951;-49.91848373;35.97172165;10.90841961;0;0;0;-54.68136978;-15.55237484;-131.8432922;1;0;0;0;0.02439323;-0.00922276;-0.02394404;0;0;0;0
1;6.85;685;-0.26834634;0.84884149;-0.61927187;-58.18658447;10.05494499;9.53163338;0;0;0;-55.25566483;-15.41642857;-131.8715363;1;0;0;0;0.00233806;-0.0588685;0.06684637;0;0;0;0
1;6.86;686;-0.242746;0.75208956;-0.60438883;-45.58292007;-5.05821419;-4.08266544;0;0;0;-55.71660614;-15.47874737;-131.8523254;1;0;0;0;-0.02384942;0.04269999;0.05919895;0;0;0;0
1;6.87;687;-0.28253159;0.81548578;-0.56677216;-40.12622833;-3.08995843;1.33348715;0;0;0;-56.12702942;-15.48500061;-131.8180237;1;0;0;0;0.01558019;-0.01677619;0.02751695;0;0;0;0
1;6.88;688;-0.3055214;0.84900624;-0.51297927;-40.53733826;0.03247948;0.65786523;0;0;0;-56.53333282;-15.47939587;-131.8145294;1;0;0;0;0.03854847;-0.04650293;-0.02060308;0;0;0;0
1;6.89;689;-0.29014337;0.77195865;-0.37081727;-45.67697525;15.65948486;3.24989223;0;0;0;-56.9835434;-15.37042236;-131.9250336;1;0;0;0;0.02410756;0.03466149;-0.15699328;0;0;0;0
1;6.9;690;-0.28520769;0.87473118;-0.60740441;-64.47206879;40.96646118;12.02039337;0;0;0;-57.55221176;-15.04791927;-132.21492;1;0;0;0;0.02365089;-0.06188309;0.08696456;0;0;0;0
1;6.91;691;-0.2567738;0.84179133;-0.65701938;-57.76913071;39.58531189;11.60708427;0;0;0;-58.05726242;-14.73882294;-132.4975891;1;0;0;0;0.00054251;-0.02306479;0.14318576;0;0;0;0
