/**
 * General Information:
 * 	UI version: 1.0
 * Device information:
 * 	Id: Mitch_1
 * 	Hardware Version: 2.0
 * 	Firmware Version: 5.3.0
 * Acquisition Information:
 * 	Mode: MIMU + Pressure Insole + Distance Sensors
 * 	Sampling frequency: 100Hz
 * 	Axl_FS: 16g
 * 	Gyro_FS: 2000dps
 * 	Magn_FS: 50Gauss
 * 	DS1_FS: 0mm
 * 	DS1_Offset: 0mm
 * 	DS2_FS: 0mm
 * 	DS2_Offset: 0mm
 */
Timestamp	Acc.X	Acc.Y	Acc.Z	Gyro.X	Gyro.Y	Gyro.Z	Magn.X	Magn.Y	Magn.Z	Distance.1	Distance.2	P.0	P.1	P.2	P.3	P.4	P.5	P.6	P.7	P.8	P.9	P.10	P.11	P.12	P.13	P.14	P.15
(ms)	(mG)	(mG)	(mG)	(dps)	(dps)	(dps)	(mGauss)	(mGauss)	(mGauss)	(mm)	(mm)	(V)	(V)	(V)	(V)	(V)	(V)	(V)	(V)	(V)	(V)	(V)	(V)	(V)	(V)	(V)	(V)
1639578714336	-42.944	-98.576	1005.768	2.38	0	0	76.5	120	-828	0	0	2.778809	2.780176	2.780176	2.780176	2.778809	2.780859	2.78291	2.78291	2.780176	2.778809	2.780859	2.777441	2.778125	2.778125	2.778809	2.780176
1639578714345	-48.8	-95.16	1001.864	-62.79	9.03	-40.95	-151.5	-24	-763.5	0	0	2.780176	2.78291	2.777441	2.780176	2.778809	2.777441	2.777441	2.780176	2.780859	2.780859	2.778125	2.780859	2.778809	2.777441	2.777441	2.777441
1639578714355	-43.92	-95.648	1001.376	10.99	-5.25	3.57	-148.5	-27	-760.5	0	0	2.777441	2.78291	2.782227	2.780176	2.780859	2.780176	2.778809	2.777441	2.778809	2.778125	2.778125	2.781543	2.780176	2.780859	2.782227	2.778809
1639578714365	-50.264	-96.624	999.912	10.08	-5.11	5.11	-148.5	-25.5	-759	0	0	2.780176	2.780176	2.777441	2.780859	2.777441	2.780859	2.782227	2.780859	2.777441	2.778809	2.778809	2.777441	2.778125	2.780859	2.777441	2.778125
1639578714375	-47.824	-95.648	1006.256	2.24	-1.12	1.05	-153	-27	-757.5	0	0	2.780859	2.780176	2.780176	2.780176	2.780859	2.782227	2.780859	2.780859	2.778809	2.782227	2.777441	2.778125	2.780859	2.777441	2.780176	2.777441
1639578714384	-47.336	-92.232	1001.864	-0.07	0.07	-0.56	-153	-27	-759	0	0	2.777441	2.780176	2.780176	2.780176	2.780176	2.782227	2.78291	2.780176	2.777441	2.780176	2.778125	2.776758	2.780859	2.777441	2.780176	2.778809
1639578714394	-45.872	-92.72	999.424	0.49	-0.21	-0.42	-151.5	-24	-759	0	0	2.780859	2.778125	2.778809	2.780859	2.777441	2.780176	2.780176	2.780176	2.778809	2.777441	2.776758	2.778809	2.778125	2.780859	2.778125	2.778809
1639578714404	-50.264	-93.696	1006.744	0.28	-0.07	-0.56	-151.5	-24	-759	0	0	2.78291	2.781543	2.780859	2.78291	2.780176	2.778809	2.778809	2.780859	2.776758	2.778125	2.778125	2.778809	2.780859	2.780859	2.777441	2.777441
1639578714414	-44.408	-94.184	1006.256	0.28	0	-0.49	-150	-22.5	-756	0	0	2.780176	2.782227	2.777441	2.780859	2.782227	2.778809	2.780176	2.777441	2.777441	2.776758	2.777441	2.782227	2.778125	2.778125	2.777441	2.782227
1639578714423	-51.24	-97.6	1001.864	0.21	-0.21	-0.56	-148.5	-15	-759	0	0	2.778809	2.777441	2.782227	2.778809	2.780859	2.778125	2.778125	2.781543	2.777441	2.778809	2.780859	2.777441	2.778125	2.781543	2.780859	2.778125
1639578714433	-47.336	-99.552	1006.744	0.42	-0.07	-0.56	-151.5	-19.5	-759	0	0	2.780176	2.78291	2.780176	2.777441	2.777441	2.782227	2.780176	2.777441	2.779492	2.777441	2.776758	2.780859	2.778125	2.780859	2.778809	2.769238
1639578714443	-43.432	-95.16	1007.232	0.28	-0.14	-0.49	-151.5	-27	-756	0	0	2.780859	2.782227	2.780859	2.78291	2.780176	2.780176	2.778125	2.780176	2.777441	2.780859	2.780859	2.780176	2.780859	2.780176	2.782227	2.782227
1639578714453	-44.408	-100.528	1002.84	0.07	-0.07	-0.56	-144	-27	-759	0	0	2.778809	2.778809	2.780176	2.780859	2.782227	2.780176	2.780859	2.78291	2.777441	2.778809	2.780859	2.777441	2.780859	2.780859	2.777441	2.778125
1639578714462	-46.36	-97.112	1006.744	0.42	-0.14	-0.49	-141	-27	-756	0	0	2.782227	2.778809	2.780859	2.780176	2.780176	2.778125	2.780176	2.782227	2.777441	2.780859	2.777441	2.782227	2.778125	2.778809	2.776758	2.780859
1639578714472	-48.312	-92.232	1007.72	0.07	0	-0.49	-147	-22.5	-750	0	0	2.778809	2.778809	2.777441	2.778125	2.780176	2.780176	2.780859	2.78291	2.777441	2.778125	2.777441	2.780859	2.778125	2.780176	2.776758	2.776758
1639578714482	-44.408	-99.552	1006.256	0.49	-0.14	-0.49	-151.5	-19.5	-759	0	0	2.777441	2.780859	2.778809	2.782227	2.780176	2.78291	2.780176	2.782227	2.777441	2.778809	2.777441	2.778125	2.778809	2.778809	2.778809	2.777441
1639578714492	-49.776	-91.744	1009.184	0.42	-0.14	-0.42	-154.5	-19.5	-760.5	0	0	2.777441	2.780176	2.780176	2.780176	2.78291	2.777441	2.778809	2.780859	2.777441	2.778125	2.778125	2.780176	2.777441	2.778125	2.780859	2.780859
1639578714502	-51.24	-94.184	1006.256	0.35	-0.07	-0.42	-148.5	-21	-750	0	0	2.780859	2.780176	2.777441	2.78291	2.778125	2.778809	2.780176	2.78291	2.780859	2.778125	2.777441	2.778125	2.778125	2.780859	2.777441	2.778809
1639578714511	-46.36	-92.232	1006.744	0.21	-0.07	-0.56	-147	-27	-751.5	0	0	2.780176	2.780176	2.78291	2.782227	2.780176	2.777441	2.78291	2.782227	2.777441	2.780859	2.780859	2.782227	2.780176	2.778809	2.778125	2.780176
1639578714521	-46.36	-99.064	1005.768	0.35	-0.14	-0.49	-151.5	-27	-757.5	0	0	2.777441	2.78291	2.780176	2.777441	2.778809	2.780176	2.777441	2.780176	2.780859	2.777441	2.777441	2.776074	2.777441	2.780859	2.780859	2.777441
1639578714531	-41.968	-96.136	1000.888	0.28	-0.14	-0.56	-151.5	-27	-759	0	0	2.778125	2.780176	2.777441	2.778809	2.777441	2.78291	2.778809	2.78291	2.778125	2.777441	2.777441	2.780859	2.778125	2.777441	2.777441	2.778809
1639578714541	-49.288	-88.328	1005.28	0.21	-0.14	-0.42	-151.5	-28.5	-751.5	0	0	2.780859	2.778809	2.780176	2.780176	2.778809	2.780859	2.780859	2.780176	2.778125	2.777441	2.778125	2.778809	2.780859	2.778125	2.777441	2.780859
1639578714550	-45.384	-98.576	1001.864	0.14	0	-0.49	-148.5	-25.5	-756	0	0	2.780176	2.777441	2.780859	2.780859	2.777441	2.777441	2.780176	2.778125	2.777441	2.778125	2.780176	2.778809	2.778125	2.777441	2.780176	2.777441
1639578714560	-45.384	-96.136	1005.28	0.49	-0.14	-0.49	-144	-25.5	-756	0	0	2.778809	2.778809	2.777441	2.780859	2.778125	2.778809	2.777441	2.780176	2.778809	2.778125	2.776758	2.777441	2.778125	2.777441	2.782227	2.778125
1639578714570	-43.432	-98.576	1005.28	0.21	-0.07	-0.56	-147	-24	-751.5	0	0	2.78291	2.778809	2.777441	2.777441	2.782227	2.78291	2.777441	2.78291	2.780176	2.777441	2.777441	2.777441	2.780859	2.778125	2.780859	2.778125
1639578714580	-45.872	-94.184	1007.72	0.35	-0.07	-0.49	-148.5	-27	-754.5	0	0	2.780859	2.778809	2.78291	2.782227	2.780859	2.780176	2.782227	2.777441	2.780859	2.777441	2.778809	2.777441	2.780859	2.777441	2.777441	2.777441
1639578714589	-49.288	-96.136	1008.696	0.35	-0.07	-0.49	-150	-27	-754.5	0	0	2.780176	2.780176	2.780176	2.780176	2.778809	2.780859	2.780859	2.778125	2.780859	2.782227	2.778125	2.780859	2.778125	2.777441	2.777441	2.777441
1639578714599	-47.824	-98.088	1011.136	0.35	-0.07	-0.49	-156	-24	-756	0	0	2.782227	2.778809	2.780859	2.782227	2.778125	2.778125	2.780176	2.777441	2.780176	2.780859	2.777441	2.776758	2.777441	2.780859	2.777441	2.778809
1639578714609	-44.896	-93.208	1006.256	0.42	-0.07	-0.56	-157.5	-22.5	-756	0	0	2.780859	2.781543	2.780859	2.778809	2.780176	2.778125	2.778809	2.780859	2.777441	2.780176	2.780176	2.782227	2.777441	2.780859	2.778809	2.780859
1639578714619	-48.312	-95.16	1004.792	0.21	-0.21	-0.49	-153	-24	-754.5	0	0	2.78291	2.782227	2.777441	2.778125	2.780176	2.777441	2.778809	2.780176	2.780859	2.780859	2.777441	2.780859	2.777441	2.777441	2.778125	2.780176
1639578714628	-50.264	-97.6	1008.208	0.28	-0.14	-0.42	-151.5	-27	-759	0	0	2.780859	2.780176	2.780176	2.778125	2.778809	2.782227	2.780176	2.778125	2.782227	2.778125	2.776758	2.778125	2.778809	2.778809	2.778125	2.780176
1639578714638	-50.264	-100.04	1009.184	0.35	-0.07	-0.49	-153	-25.5	-760.5	0	0	2.780859	2.780176	2.782227	2.780859	2.780176	2.777441	2.778809	2.782227	2.780176	2.778809	2.777441	2.780859	2.780176	2.780176	2.777441	2.778809
1639578714648	-45.872	-97.6	1008.208	0.21	-0.14	-0.7	-154.5	-22.5	-756	0	0	2.780176	2.777441	2.780859	2.782227	2.778809	2.778125	2.780176	2.780859	2.780176	2.778809	2.778809	2.778809	2.781543	2.778809	2.778809	2.776074
1639578714658	-52.704	-90.28	1010.16	0.28	-0.07	-0.49	-150	-25.5	-756	0	0	2.780859	2.777441	2.778809	2.778809	2.780176	2.780176	2.780176	2.782227	2.778809	2.780176	2.777441	2.781543	2.780859	2.778809	2.780859	2.777441
1639578714668	-49.288	-93.696	1009.672	0.42	-0.14	-0.49	-148.5	-30	-754.5	0	0	2.782227	2.782227	2.782227	2.777441	2.780859	2.780859	2.780176	2.78291	2.778809	2.778125	2.782227	2.778809	2.780176	2.777441	2.777441	2.777441
1639578714677	-47.824	-93.208	1007.232	0.14	-0.21	-0.56	-151.5	-27	-753	0	0	2.780859	2.778809	2.780859	2.780859	2.78291	2.778809	2.780859	2.780859	2.776758	2.777441	2.777441	2.780859	2.780859	2.777441	2.778809	2.778125
1639578714687	-38.064	-95.16	1002.84	0.35	0	-0.56	-157.5	-24	-759	0	0	2.782227	2.780176	2.778809	2.78291	2.777441	2.778809	2.782227	2.780176	2.777441	2.778125	2.780176	2.780176	2.780176	2.778809	2.778809	2.778809
1639578714697	-48.312	-97.6	1008.696	0.56	0.07	-0.49	-157.5	-24	-756	0	0	2.780176	2.780176	2.778125	2.778125	2.780176	2.780176	2.778125	2.778809	2.778809	2.778809	2.778125	2.780859	2.778809	2.780176	2.780859	2.777441
1639578714707	-47.336	-99.552	1006.256	0.28	0	-0.49	-156	-24	-756	0	0	2.782227	2.777441	2.780176	2.777441	2.78291	2.780859	2.78291	2.780859	2.778809	2.780859	2.776758	2.782227	2.780859	2.781543	2.777441	2.780176
1639578714716	-44.896	-100.04	1000.888	0.35	-0.21	-0.49	-156	-24	-760.5	0	0	2.780176	2.777441	2.777441	2.78291	2.778125	2.780859	2.777441	2.780176	2.780859	2.780859	2.778809	2.780176	2.780176	2.780859	2.778809	2.780859
1639578714726	-51.24	-96.136	1004.792	0.42	-0.21	-0.49	-153	-27	-754.5	0	0	2.78291	2.778125	2.777441	2.780176	2.780176	2.782227	2.777441	2.783594	2.777441	2.777441	2.777441	2.780859	2.778809	2.778809	2.776758	2.778125
1639578714736	-47.824	-99.552	1011.136	0.21	0	-0.56	-151.5	-30	-751.5	0	0	2.780859	2.778809	2.782227	2.777441	2.777441	2.78291	2.780176	2.782227	2.778809	2.778809	2.780859	2.780176	2.778809	2.778809	2.778809	2.777441
1639578714746	-49.288	-95.648	1004.792	0.35	0	-0.42	-157.5	-24	-754.5	0	0	2.780859	2.777441	2.778809	2.777441	2.78291	2.78291	2.780176	2.780859	2.780859	2.778809	2.780176	2.782227	2.782227	2.778809	2.780176	2.780859
1639578714755	-50.752	-88.816	1001.376	0.42	-0.07	-0.49	-157.5	-22.5	-753	0	0	2.777441	2.778125	2.780859	2.780176	2.776074	2.780176	2.778809	2.783594	2.780176	2.777441	2.778809	2.777441	2.776074	2.778809	2.776758	2.777441
1639578714765	-52.216	-93.208	1006.744	0.21	-0.14	-0.56	-151.5	-25.5	-759	0	0	2.780176	2.778809	2.78291	2.778125	2.778809	2.778809	2.780859	2.778809	2.778809	2.778809	2.780176	2.777441	2.778125	2.778809	2.778125	2.777441
1639578714775	-47.336	-97.6	1009.672	0.42	-0.21	-0.49	-159	-21	-759	0	0	2.778809	2.777441	2.778809	2.780176	2.780176	2.780176	2.778809	2.778809	2.780859	2.780859	2.780859	2.780176	2.776758	2.781543	2.777441	2.778809
1639578714785	-50.264	-96.624	1003.816	0.42	-0.21	-0.42	-162	-21	-759	0	0	2.777441	2.780859	2.776758	2.780176	2.781543	2.78291	2.780859	2.780176	2.780859	2.777441	2.777441	2.780176	2.780859	2.778125	2.780859	2.777441
1639578714794	-47.336	-104.432	1002.352	0.14	-0.07	-0.56	-162	-21	-759	0	0	2.78291	2.78291	2.778125	2.780859	2.777441	2.782227	2.780176	2.782227	2.777441	2.777441	2.781543	2.780176	2.778809	2.778809	2.780859	2.780176
1639578714804	-45.872	-91.744	1007.232	0.35	-0.07	-0.49	-156	-21	-762	0	0	2.782227	2.778809	2.78291	2.780176	2.780176	2.780176	2.782227	2.78291	2.780859	2.780176	2.777441	2.779492	2.780859	2.778809	2.780859	2.780859
1639578714814	-45.872	-101.016	1012.6	0.42	-0.07	-0.49	-156	-24	-756	0	0	2.778125	2.780859	2.780176	2.782227	2.778809	2.78291	2.780176	2.780176	2.778125	2.778125	2.779492	2.778809	2.777441	2.778125	2.780859	2.777441
1639578714824	-43.432	-92.232	1007.72	0.14	0	-0.49	-156	-28.5	-753	0	0	2.781543	2.78291	2.780176	2.782227	2.782227	2.778809	2.782227	2.777441	2.780176	2.780176	2.778809	2.780859	2.778125	2.778125	2.776758	2.778809
1639578714834	-47.336	-100.528	1007.232	0.42	-0.07	-0.56	-145.5	-24	-757.5	0	0	2.778125	2.777441	2.777441	2.78291	2.780176	2.778125	2.78291	2.778809	2.780859	2.777441	2.780859	2.778125	2.777441	2.778809	2.777441	2.777441
1639578714843	-48.8	-89.792	1009.672	0.42	-0.07	-0.49	-144	-22.5	-757.5	0	0	2.777441	2.777441	2.780176	2.778125	2.780859	2.778125	2.782227	2.780176	2.780859	2.776758	2.777441	2.778125	2.777441	2.778125	2.778125	2.780176
1639578714853	-45.872	-90.768	1000.888	0.28	-0.07	-0.56	-151.5	-28.5	-748.5	0	0	2.780859	2.780859	2.780176	2.782227	2.778125	2.782227	2.778809	2.78291	2.778809	2.780176	2.780176	2.777441	2.782227	2.780859	2.782227	2.780176
1639578714863	-47.336	-96.136	1004.304	0.21	0	-0.49	-151.5	-28.5	-747	0	0	2.778809	2.780859	2.778125	2.777441	2.780859	2.780176	2.777441	2.783594	2.778809	2.780176	2.778125	2.778125	2.777441	2.777441	2.776758	2.778809
1639578714873	-54.656	-96.136	1009.672	0.42	-0.14	-0.56	-148.5	-27	-756	0	0	2.780176	2.780176	2.778125	2.780859	2.778809	2.782227	2.781543	2.782227	2.778125	2.780176	2.778125	2.781543	2.777441	2.778809	2.777441	2.780176
1639578714882	-46.36	-93.208	1005.28	0.21	-0.07	-0.49	-147	-27	-754.5	0	0	2.780176	2.780859	2.778125	2.777441	2.780859	2.78291	2.782227	2.78291	2.777441	2.779492	2.778125	2.778125	2.778125	2.778809	2.780859	2.782227
1639578714892	-49.288	-95.16	1001.864	0.28	-0.14	-0.56	-145.5	-28.5	-756	0	0	2.780176	2.777441	2.780176	2.778125	2.78291	2.778809	2.780859	2.777441	2.781543	2.778125	2.778809	2.780859	2.778125	2.778125	2.776758	2.778809
1639578714902	-53.192	-93.208	1008.696	0.42	0	-0.49	-145.5	-28.5	-754.5	0	0	2.782227	2.78291	2.780859	2.778125	2.778809	2.778809	2.780859	2.777441	2.777441	2.778125	2.778125	2.777441	2.777441	2.777441	2.778125	2.782227
1639578714912	-44.896	-96.136	1012.112	0.21	0	-0.56	-148.5	-25.5	-751.5	0	0	2.782227	2.780859	2.780859	2.78291	2.777441	2.78291	2.782227	2.778125	2.780176	2.778125	2.780859	2.777441	2.778809	2.778809	2.777441	2.778125
1639578714921	-41.968	-95.16	1003.328	0.21	-0.14	-0.56	-153	-21	-757.5	0	0	2.778125	2.780176	2.778809	2.780176	2.780176	2.780859	2.778125	2.78291	2.778125	2.777441	2.780859	2.780176	2.780859	2.778809	2.780176	2.778809
1639578714931	-43.92	-100.04	1005.768	0.42	-0.14	-0.49	-151.5	-19.5	-763.5	0	0	2.78291	2.780859	2.778125	2.777441	2.780176	2.780859	2.782227	2.776758	2.778125	2.781543	2.778809	2.782227	2.777441	2.781543	2.778809	2.777441
1639578714941	-44.896	-88.816	1006.744	0.56	-0.07	-0.42	-153	-22.5	-756	0	0	2.782227	2.780859	2.780859	2.78291	2.777441	2.780859	2.781543	2.782227	2.777441	2.778125	2.778125	2.778809	2.776758	2.778125	2.778809	2.780859
1639578714951	-48.312	-93.696	1006.256	0.28	-0.07	-0.49	-153	-21	-747	0	0	2.780859	2.777441	2.780859	2.78291	2.78291	2.78291	2.778809	2.777441	2.778809	2.778125	2.777441	2.782227	2.777441	2.777441	2.780859	2.778809
1639578714961	-41.48	-88.328	999.424	0.56	-0.07	-0.49	-151.5	-27	-748.5	0	0	2.780859	2.780176	2.780176	2.780859	2.778809	2.778809	2.778125	2.780859	2.782227	2.777441	2.778809	2.777441	2.777441	2.780859	2.782227	2.778125
1639578714970	-45.384	-98.088	1006.744	0.07	-0.14	-0.49	-151.5	-25.5	-748.5	0	0	2.782227	2.780859	2.780176	2.780859	2.782227	2.782227	2.778809	2.776758	2.778125	2.777441	2.778125	2.781543	2.777441	2.782227	2.778809	2.776758
1639578714980	-45.872	-99.552	1004.304	0.42	-0.21	-0.42	-150	-22.5	-744	0	0	2.780176	2.780176	2.78291	2.780859	2.780176	2.782227	2.778125	2.782227	2.778809	2.778125	2.781543	2.777441	2.776758	2.782227	2.777441	2.780859
1639578714990	-43.92	-93.208	1008.208	0.21	-0.07	-0.42	-151.5	-24	-750	0	0	2.778809	2.780176	2.777441	2.777441	2.782227	2.782227	2.780859	2.78291	2.778809	2.780859	2.780859	2.780859	2.777441	2.777441	2.777441	2.777441
1639578715000	-45.872	-102.968	1009.672	0.21	-0.07	-0.49	-148.5	-25.5	-750	0	0	2.78291	2.777441	2.780176	2.777441	2.782227	2.780859	2.780176	2.777441	2.780176	2.778125	2.778125	2.778809	2.778809	2.778125	2.780176	2.781543
1639578715009	-46.848	-98.088	1004.304	0.49	-0.07	-0.49	-150	-24	-750	0	0	2.782227	2.778809	2.780859	2.78291	2.780176	2.780176	2.780176	2.780176	2.780859	2.778125	2.777441	2.782227	2.780859	2.778125	2.776758	2.776758
1639578715019	-48.312	-97.6	1013.576	0.35	-0.07	-0.56	-151.5	-27	-757.5	0	0	2.780176	2.780176	2.782227	2.780176	2.777441	2.782227	2.777441	2.780859	2.782227	2.780859	2.782227	2.777441	2.780859	2.778809	2.777441	2.777441
1639578715029	-45.384	-94.184	1007.72	0.14	-0.14	-0.56	-150	-27	-756	0	0	2.782227	2.777441	2.780176	2.780176	2.780176	2.777441	2.778809	2.78291	2.782227	2.776758	2.777441	2.780859	2.778125	2.778809	2.777441	2.782227
1639578715039	-47.824	-95.648	1008.208	0.56	-0.07	-0.56	-144	-27	-753	0	0	2.778125	2.782227	2.780859	2.780859	2.780859	2.780176	2.776758	2.780176	2.780859	2.780859	2.780176	2.778809	2.780859	2.778809	2.778809	2.778809
1639578715048	-45.384	-98.088	1004.304	0.49	0	-0.42	-148.5	-30	-756	0	0	2.780176	2.782227	2.78291	2.780176	2.776758	2.780859	2.782227	2.780859	2.778125	2.778809	2.780859	2.777441	2.778809	2.780176	2.777441	2.780176
1639578715058	-47.824	-95.16	1003.816	0.28	-0.07	-0.42	-156	-28.5	-763.5	0	0	2.777441	2.780176	2.777441	2.780176	2.777441	2.782227	2.778809	2.780176	2.778125	2.778809	2.778125	2.778809	2.776758	2.782227	2.780859	2.780859
1639578715068	-50.264	-95.648	996.008	0.21	-0.14	-0.49	-151.5	-25.5	-762	0	0	2.778125	2.780176	2.780176	2.780176	2.782227	2.780176	2.780176	2.778125	2.778125	2.778125	2.777441	2.776758	2.778125	2.780859	2.778125	2.777441
1639578715078	-44.896	-96.624	1005.28	0.42	-0.07	-0.49	-153	-24	-762	0	0	2.777441	2.782227	2.777441	2.782227	2.780176	2.778809	2.777441	2.780859	2.777441	2.777441	2.776758	2.778125	2.780176	2.779492	2.778809	2.777441
1639578715087	-49.288	-96.136	1007.72	0.35	-0.14	-0.49	-153	-28.5	-756	0	0	2.783594	2.780176	2.777441	2.778125	2.775391	2.772656	2.778809	2.771289	2.778125	2.777441	2.777441	2.774707	2.768555	2.777441	2.777441	2.777441
1639578715097	-45.384	-93.696	1006.744	0.21	-0.14	-0.56	-153	-31.5	-756	0	0	2.780176	2.777441	2.780176	2.780859	2.777441	2.778125	2.778125	2.780859	2.778809	2.778809	2.780859	2.777441	2.778125	2.778809	2.781543	2.778125
1639578715107	-44.408	-97.6	1010.16	0.42	-0.28	-0.49	-148.5	-30	-760.5	0	0	2.780859	2.778809	2.777441	2.778809	2.78291	2.782227	2.780859	2.777441	2.778125	2.777441	2.776758	2.780176	2.780859	2.777441	2.780859	2.780176
1639578715117	-48.312	-99.064	1007.232	0.28	-0.07	-0.49	-147	-21	-754.5	0	0	2.777441	2.782227	2.780176	2.780859	2.777441	2.780859	2.778125	2.780176	2.780859	2.780859	2.777441	2.777441	2.780859	2.777441	2.778809	2.778809
1639578715127	-46.36	-92.72	1001.864	0.21	-0.07	-0.56	-148.5	-16.5	-753	0	0	2.783594	2.780176	2.782227	2.783594	2.777441	2.778809	2.778125	2.78291	2.782227	2.776758	2.780176	2.777441	2.780176	2.778125	2.778809	2.777441
1639578715136	-49.776	-92.232	1009.184	0.56	0	-0.56	-147	-24	-754.5	0	0	2.777441	2.780176	2.777441	2.777441	2.778125	2.778809	2.780176	2.778125	2.780859	2.776758	2.776758	2.777441	2.777441	2.777441	2.777441	2.781543
1639578715146	-51.24	-95.648	1008.696	0.28	-0.07	-0.49	-148.5	-21	-756	0	0	2.78291	2.780176	2.778809	2.780859	2.780859	2.777441	2.780176	2.778809	2.78291	2.782227	2.776758	2.777441	2.780859	2.778809	2.782227	2.778809
1639578715156	-47.336	-91.744	997.96	0.28	-0.14	-0.56	-148.5	-21	-756	0	0	2.780176	2.780176	2.778125	2.780859	2.780859	2.780859	2.780859	2.78291	2.777441	2.777441	2.777441	2.778809	2.780176	2.782227	2.777441	2.778809
1639578715166	-46.36	-94.184	1003.816	0.21	0	-0.49	-154.5	-21	-756	0	0	2.780176	2.782227	2.778809	2.777441	2.778809	2.782227	2.780176	2.778809	2.780176	2.776758	2.780176	2.776758	2.781543	2.777441	2.778125	2.777441
1639578715175	-45.872	-92.232	1004.304	0.35	0	-0.56	-156	-24	-756	0	0	2.78291	2.782227	2.780859	2.782227	2.780859	2.777441	2.780176	2.777441	2.778125	2.778125	2.778809	2.780859	2.780176	2.777441	2.777441	2.778809
1639578715185	-48.312	-93.696	1007.232	0.35	-0.07	-0.49	-156	-24	-756	0	0	2.782227	2.778125	2.778809	2.780859	2.782227	2.782227	2.780176	2.780859	2.777441	2.780176	2.777441	2.778809	2.780859	2.777441	2.778125	2.778809
1639578715195	-47.824	-96.624	1008.696	0.28	-0.21	-0.56	-153	-25.5	-754.5	0	0	2.78291	2.778809	2.778809	2.777441	2.780859	2.778809	2.778125	2.782227	2.777441	2.780176	2.780859	2.777441	2.777441	2.780859	2.777441	2.778809
1639578715205	-44.408	-94.672	1004.304	0.28	-0.21	-0.49	-154.5	-28.5	-754.5	0	0	2.780176	2.780176	2.778809	2.782227	2.777441	2.78291	2.781543	2.777441	2.780859	2.780859	2.776758	2.776758	2.780176	2.781543	2.777441	2.780176
1639578715214	-44.896	-98.576	1006.256	0.28	0	-0.49	-148.5	-30	-756	0	0	2.780176	2.78291	2.780176	2.778809	2.780176	2.78291	2.777441	2.777441	2.777441	2.779492	2.777441	2.777441	2.777441	2.778125	2.778809	2.778125
1639578715224	-45.384	-94.184	1006.744	0.21	0.07	-0.49	-145.5	-24	-757.5	0	0	2.780176	2.78291	2.782227	2.78291	2.78291	2.78291	2.778809	2.780859	2.777441	2.778125	2.778125	2.782227	2.777441	2.777441	2.778809	2.778809
1639578715234	-45.872	-98.576	1006.744	0.35	0	-0.49	-150	-22.5	-759	0	0	2.782227	2.778809	2.780176	2.780859	2.781543	2.780176	2.782227	2.78291	2.782227	2.778125	2.777441	2.778809	2.780176	2.778125	2.780859	2.780859
1639578715244	-47.336	-94.184	1011.624	0.35	-0.21	-0.42	-150	-25.5	-756	0	0	2.778125	2.780176	2.782227	2.780176	2.780859	2.780176	2.777441	2.780859	2.777441	2.777441	2.778125	2.780859	2.778125	2.778809	2.780859	2.778125
1639578715253	-46.36	-94.184	1005.28	0.35	-0.07	-0.56	-150	-28.5	-759	0	0	2.782227	2.780859	2.778125	2.780859	2.777441	2.780859	2.778809	2.780176	2.780859	2.778809	2.777441	2.778125	2.780859	2.780176	2.778809	2.780859
1639578715263	-44.896	-94.184	1003.816	0.21	-0.07	-0.49	-145.5	-27	-759	0	0	2.778809	2.780859	2.782227	2.780176	2.782227	2.777441	2.78291	2.78291	2.780176	2.778809	2.780859	2.780859	2.778809	2.778125	2.780859	2.780859
1639578715273	-51.24	-96.624	1005.768	0.35	0	-0.56	-148.5	-27	-759	0	0	2.780176	2.777441	2.778809	2.780176	2.778125	2.778809	2.777441	2.780859	2.777441	2.778125	2.780176	2.782227	2.782227	2.780176	2.782227	2.778125
1639578715283	-47.336	-92.72	1007.232	0.21	-0.14	-0.56	-153	-27	-759	0	0	2.777441	2.78291	2.780176	2.780176	2.778125	2.778125	2.782227	2.780176	2.777441	2.780859	2.780176	2.780859	2.780859	2.777441	2.780176	2.780176
1639578715293	-44.408	-100.04	1003.328	0.28	-0.14	-0.49	-148.5	-24	-754.5	0	0	2.778125	2.780176	2.778125	2.780176	2.778125	2.780176	2.777441	2.780176	2.780176	2.777441	2.781543	2.778125	2.776758	2.778809	2.780859	2.780176
1639578715302	-46.36	-99.552	1009.184	0.42	-0.21	-0.56	-148.5	-21	-753	0	0	2.780859	2.780859	2.782227	2.782227	2.777441	2.78291	2.777441	2.780176	2.777441	2.780176	2.778125	2.777441	2.778809	2.780859	2.778125	2.777441
1639578715312	-44.896	-94.184	1006.744	0.14	-0.07	-0.56	-151.5	-24	-751.5	0	0	2.778125	2.778125	2.783594	2.778809	2.778125	2.78291	2.780176	2.78291	2.777441	2.777441	2.782227	2.778809	2.776758	2.778125	2.780176	2.780859
1639578715322	-46.848	-95.16	1008.208	0.21	-0.07	-0.49	-154.5	-27	-756	0	0	2.778809	2.78291	2.780176	2.778125	2.778125	2.778809	2.782227	2.782227	2.777441	2.777441	2.780859	2.777441	2.777441	2.780859	2.776758	2.777441
1639578715332	-45.872	-96.136	1002.84	0.28	-0.14	-0.56	-160.5	-25.5	-756	0	0	2.777441	2.780176	2.78291	2.777441	2.778809	2.778809	2.777441	2.780859	2.777441	2.777441	2.777441	2.780176	2.778809	2.780176	2.778125	2.778125
1639578715341	-46.848	-90.28	1010.16	0.42	-0.07	-0.49	-153	-27	-753	0	0	2.783594	2.780859	2.780176	2.78291	2.778125	2.782227	2.778809	2.782227	2.777441	2.777441	2.777441	2.777441	2.778809	2.782227	2.777441	2.778125
1639578715351	-40.504	-95.648	1008.696	0.42	-0.07	-0.49	-142.5	-24	-756	0	0	2.778809	2.778125	2.780859	2.780176	2.779492	2.778125	2.782227	2.777441	2.778809	2.777441	2.776758	2.780176	2.777441	2.777441	2.780859	2.782227
1639578715361	-50.752	-91.256	1002.352	0.14	-0.07	-0.49	-148.5	-24	-756	0	0	2.780176	2.78291	2.781543	2.778125	2.780176	2.780859	2.783594	2.782227	2.777441	2.777441	2.782227	2.780859	2.780859	2.780176	2.778125	2.777441
1639578715371	-51.24	-93.208	1003.328	0.35	-0.14	-0.42	-148.5	-24	-759	0	0	2.778809	2.780176	2.78291	2.777441	2.780859	2.780176	2.778809	2.782227	2.777441	2.776758	2.777441	2.778809	2.778809	2.778125	2.780176	2.778125
1639578715380	-44.408	-93.208	1004.304	0.35	-0.14	-0.56	-148.5	-22.5	-759	0	0	2.783594	2.780176	2.777441	2.780176	2.778809	2.778809	2.780176	2.782227	2.780176	2.776758	2.777441	2.778125	2.779492	2.780859	2.777441	2.780859
1639578715390	-49.288	-100.04	1009.672	0.21	-0.07	-0.56	-154.5	-25.5	-750	0	0	2.780176	2.780859	2.780176	2.780176	2.778125	2.782227	2.780176	2.777441	2.78291	2.776758	2.776758	2.777441	2.777441	2.777441	2.776758	2.778809
1639578715400	-47.824	-94.184	1010.16	0.35	-0.07	-0.42	-147	-28.5	-753	0	0	2.777441	2.777441	2.78291	2.778809	2.780176	2.780176	2.782227	2.782227	2.778125	2.778125	2.777441	2.777441	2.778809	2.777441	2.778809	2.777441
1639578715410	-46.848	-92.72	1011.136	0.35	-0.07	-0.56	-150	-27	-751.5	0	0	2.780176	2.782227	2.778809	2.778809	2.782227	2.780859	2.780176	2.769238	2.778809	2.780859	2.780859	2.777441	2.778809	2.777441	2.778125	2.771973
1639578715419	-45.384	-95.16	1009.672	0.21	-0.07	-0.56	-156	-27	-754.5	0	0	2.777441	2.780176	2.780176	2.780859	2.777441	2.777441	2.780176	2.782227	2.777441	2.778809	2.777441	2.778125	2.778809	2.777441	2.778125	2.780859
1639578715429	-48.312	-96.624	1000.888	0.28	-0.07	-0.7	-148.5	-25.5	-757.5	0	0	2.78291	2.78291	2.777441	2.780176	2.778809	2.778809	2.78291	2.778809	2.780859	2.778125	2.778809	2.780859	2.778809	2.778125	2.780176	2.777441
1639578715439	-41.48	-98.088	1007.72	0.42	-0.14	-0.42	-144	-22.5	-757.5	0	0	2.782227	2.780176	2.78291	2.782227	2.782227	2.782227	2.778809	2.78291	2.777441	2.778125	2.780859	2.780859	2.778809	2.778809	2.776758	2.778809
1639578715449	-48.8	-95.648	1006.256	0.49	-0.21	-0.42	-148.5	-22.5	-753	0	0	2.779492	2.782227	2.780176	2.782227	2.780176	2.780176	2.782227	2.781543	2.778809	2.780859	2.781543	2.779492	2.782227	2.777441	2.777441	2.778125
1639578715459	-44.896	-90.28	1007.232	0.28	-0.14	-0.49	-150	-19.5	-754.5	0	0	2.778125	2.782227	2.783594	2.780176	2.781543	2.778809	2.778809	2.780176	2.780859	2.776758	2.776758	2.776758	2.777441	2.778125	2.778809	2.777441
1639578715468	-50.264	-101.504	1009.672	0.35	-0.07	-0.56	-150	-25.5	-753	0	0	2.778125	2.777441	2.778809	2.78291	2.780859	2.780859	2.776758	2.780176	2.778125	2.782227	2.778125	2.778125	2.777441	2.778809	2.776758	2.778809
1639578715478	-44.408	-89.792	1007.232	0.49	-0.14	-0.56	-148.5	-31.5	-754.5	0	0	2.780176	2.778125	2.780859	2.777441	2.780859	2.780176	2.777441	2.78291	2.778809	2.778809	2.780859	2.777441	2.778125	2.778809	2.780859	2.776758
1639578715488	-47.336	-96.624	1007.232	0.28	-0.14	-0.49	-147	-27	-756	0	0	2.780176	2.776758	2.780176	2.778809	2.782227	2.777441	2.78291	2.778809	2.777441	2.778125	2.780176	2.777441	2.780859	2.780859	2.778809	2.778125
1639578715498	-47.336	-100.04	1001.864	0.28	-0.07	-0.56	-151.5	-19.5	-757.5	0	0	2.778809	2.780176	2.780859	2.777441	2.780176	2.78291	2.778809	2.781543	2.778809	2.778125	2.777441	2.776758	2.778125	2.780859	2.777441	2.777441
1639578715507	-38.552	-94.184	1008.696	0.42	-0.07	-0.42	-153	-21	-756	0	0	2.780859	2.778809	2.777441	2.782227	2.78291	2.780176	2.780176	2.782227	2.777441	2.777441	2.777441	2.777441	2.778809	2.778809	2.780859	2.777441
1639578715517	-45.872	-98.576	1004.792	0.21	-0.07	-0.42	-154.5	-24	-753	0	0	2.782227	2.780859	2.780859	2.78291	2.780859	2.78291	2.778125	2.780176	2.778125	2.780176	2.780859	2.780859	2.780176	2.782227	2.780859	2.778809
1639578715527	-46.848	-93.696	1011.624	0.28	-0.07	-0.56	-153	-25.5	-753	0	0	2.778125	2.780176	2.780176	2.780176	2.781543	2.777441	2.778809	2.780176	2.777441	2.780859	2.780859	2.782227	2.778809	2.780859	2.780859	2.780176
1639578715537	-40.504	-91.744	1012.112	0.28	-0.07	-0.56	-150	-24	-748.5	0	0	2.78291	2.777441	2.778809	2.778809	2.777441	2.780859	2.782227	2.777441	2.778809	2.778125	2.776758	2.778125	2.778809	2.780176	2.778809	2.780859
1639578715546	-47.824	-93.208	1014.064	0.49	-0.07	-0.56	-153	-19.5	-751.5	0	0	2.780859	2.778809	2.78291	2.78291	2.782227	2.778809	2.778125	2.780176	2.777441	2.778809	2.778125	2.780176	2.778125	2.777441	2.778125	2.776758
1639578715556	-41.968	-86.864	1003.816	0	-0.14	-0.49	-156	-21	-759	0	0	2.780176	2.777441	2.780176	2.780176	2.778125	2.780176	2.782227	2.78291	2.780176	2.780859	2.780176	2.776758	2.777441	2.777441	2.778125	2.777441
1639578715566	-41.48	-97.112	1001.864	0.49	0	-0.42	-151.5	-25.5	-756	0	0	2.778809	2.780176	2.780176	2.782227	2.78291	2.780176	2.777441	2.780859	2.777441	2.780859	2.778809	2.778125	2.782227	2.777441	2.778125	2.777441
1639578715576	-46.848	-98.576	1003.328	0.49	-0.07	-0.49	-154.5	-27	-756	0	0	2.778125	2.778809	2.78291	2.778809	2.780176	2.780859	2.780859	2.778809	2.777441	2.778125	2.778125	2.780859	2.778809	2.777441	2.780176	2.778809
1639578715586	-50.264	-100.04	1006.744	0	-0.14	-0.49	-154.5	-27	-756	0	0	2.780176	2.778809	2.780859	2.78291	2.780176	2.780176	2.780176	2.778125	2.780859	2.777441	2.778809	2.780859	2.780859	2.780176	2.781543	2.777441
1639578715595	-46.36	-90.768	1005.28	0.28	-0.14	-0.42	-157.5	-27	-754.5	0	0	2.780859	2.777441	2.780176	2.780859	2.78291	2.780859	2.780859	2.778125	2.778125	2.780176	2.780859	2.778809	2.780859	2.778125	2.777441	2.777441
1639578715605	-50.752	-93.696	1009.672	0.35	-0.14	-0.42	-154.5	-24	-748.5	0	0	2.780859	2.778809	2.782227	2.777441	2.778809	2.778125	2.780176	2.778809	2.780859	2.777441	2.778125	2.778125	2.777441	2.777441	2.778809	2.779492
1639578715615	-48.312	-96.136	1011.624	0.35	-0.21	-0.56	-153	-21	-751.5	0	0	2.778125	2.780176	2.780176	2.782227	2.782227	2.780859	2.778125	2.777441	2.778809	2.780859	2.778809	2.777441	2.777441	2.776758	2.777441	2.780176
1639578715625	-43.92	-93.208	1011.136	0.07	-0.14	-0.56	-148.5	-22.5	-754.5	0	0	2.782227	2.780176	2.780859	2.777441	2.780176	2.78291	2.781543	2.778125	2.780859	2.776758	2.777441	2.778809	2.778809	2.780859	2.778125	2.778125
1639578715634	-43.432	-97.112	1005.768	0.14	-0.07	-0.49	-153	-24	-754.5	0	0	2.78291	2.780859	2.778809	2.780176	2.777441	2.778809	2.777441	2.780176	2.781543	2.782227	2.778809	2.780176	2.778125	2.778125	2.777441	2.780859
1639578715644	-49.776	-95.648	1006.256	0.63	-0.07	-0.49	-157.5	-21	-756	0	0	2.777441	2.781543	2.778809	2.782227	2.780176	2.780176	2.780176	2.780859	2.777441	2.777441	2.778125	2.776758	2.781543	2.777441	2.780859	2.780859
1639578715654	-41.48	-91.256	1011.624	0.21	-0.07	-0.56	-154.5	-19.5	-756	0	0	2.78291	2.781543	2.778125	2.780176	2.780176	2.782227	2.780859	2.778125	2.782227	2.778809	2.777441	2.777441	2.778125	2.778809	2.777441	2.780176
1639578715664	-44.408	-94.184	1005.28	0.21	-0.07	-0.56	-151.5	-21	-756	0	0	2.778809	2.782227	2.780859	2.78291	2.781543	2.782227	2.778809	2.78291	2.780859	2.777441	2.780176	2.776758	2.778125	2.779492	2.777441	2.778809
1639578715673	-41.48	-96.136	1003.816	0.63	0	-0.56	-145.5	-25.5	-757.5	0	0	2.778809	2.777441	2.780176	2.780176	2.778125	2.780859	2.782227	2.778125	2.777441	2.777441	2.780859	2.780859	2.780859	2.777441	2.778125	2.778125
1639578715683	-48.312	-90.768	1006.744	0.14	-0.07	-0.63	-144	-27	-759	0	0	2.777441	2.778125	2.778125	2.782227	2.778809	2.778809	2.778125	2.780176	2.780859	2.781543	2.777441	2.778809	2.780176	2.780859	2.776758	2.777441
1639578715693	-50.752	-99.064	1006.744	0.14	-0.21	-0.42	-150	-24	-763.5	0	0	2.780176	2.781543	2.78291	2.778809	2.780176	2.780176	2.780859	2.782227	2.778809	2.778809	2.780176	2.780176	2.776758	2.780859	2.777441	2.777441
1639578715703	-40.992	-95.16	1008.696	0.49	-0.07	-0.49	-153	-24	-757.5	0	0	2.780176	2.780859	2.778809	2.780176	2.782227	2.780176	2.78291	2.778125	2.778125	2.777441	2.778809	2.777441	2.778125	2.777441	2.777441	2.780859
1639578715712	-50.264	-101.992	1010.16	0.28	-0.14	-0.49	-148.5	-25.5	-756	0	0	2.778809	2.780176	2.776758	2.78291	2.777441	2.780859	2.780176	2.780859	2.777441	2.781543	2.781543	2.778125	2.780176	2.781543	2.780859	2.777441
1639578715722	-53.68	-93.208	1001.864	0	-0.07	-0.49	-144	-25.5	-766.5	0	0	2.782227	2.780176	2.780176	2.777441	2.777441	2.78291	2.778809	2.778125	2.780859	2.778125	2.780859	2.780176	2.778125	2.777441	2.780859	2.780859
1639578715732	-40.992	-98.576	1002.84	0.28	-0.14	-0.49	-147	-22.5	-765	0	0	2.776758	2.780176	2.778809	2.777441	2.780859	2.777441	2.782227	2.78291	2.780859	2.780859	2.778809	2.777441	2.776758	2.780176	2.777441	2.778125
1639578715742	-36.112	-82.96	1038.464	0.28	-0.28	-0.49	-156	-25.5	-754.5	0	0	2.777441	2.777441	2.777441	2.783594	2.778809	2.777441	2.777441	2.782227	2.781543	2.780859	2.776074	2.780176	2.777441	2.778809	2.778809	2.78291
1639578715752	-34.16	-75.152	1011.136	0.84	0	-0.49	-153	-27	-748.5	0	0	2.780859	2.780859	2.780859	2.782227	2.780859	2.778809	2.780176	2.780176	2.778809	2.778809	2.778125	2.780176	2.778125	2.777441	2.778809	2.777441
1639578715761	-38.064	-86.376	1006.256	0.07	0.14	-0.49	-147	-25.5	-750	0	0	2.780859	2.778809	2.782227	2.778809	2.777441	2.780859	2.781543	2.778809	2.777441	2.777441	2.778125	2.780176	2.778809	2.780176	2.778125	2.776758
1639578715771	-44.896	-102.48	1008.208	0.28	0	-0.49	-148.5	-25.5	-753	0	0	2.782227	2.780176	2.778125	2.778809	2.777441	2.782227	2.778809	2.78291	2.777441	2.778809	2.777441	2.780176	2.778809	2.780859	2.778809	2.778125
1639578715781	-48.8	-93.696	1017.968	1.12	0.07	-0.49	-142.5	-27	-753	0	0	2.777441	2.782227	2.780859	2.782227	2.777441	2.780859	2.780859	2.780859	2.780859	2.778125	2.777441	2.778125	2.778809	2.777441	2.778125	2.780859
1639578715791	-42.456	-97.6	1012.112	-0.21	0.07	-0.56	-145.5	-25.5	-754.5	0	0	2.780859	2.777441	2.78291	2.78291	2.778809	2.78291	2.778809	2.780176	2.778809	2.777441	2.780859	2.778809	2.778125	2.778809	2.778809	2.778809
1639578715800	-40.504	-94.672	1004.792	0.42	0.07	-0.63	-156	-22.5	-753	0	0	2.778809	2.777441	2.78291	2.782227	2.782227	2.78291	2.780859	2.780859	2.778809	2.780176	2.780859	2.778125	2.777441	2.780859	2.778125	2.781543
1639578715810	-47.336	-85.888	1017.968	1.26	0.14	-0.42	-159	-21	-751.5	0	0	2.780859	2.780859	2.78291	2.78291	2.778125	2.78291	2.780176	2.778809	2.777441	2.780859	2.780859	2.780859	2.780859	2.780859	2.777441	2.777441
1639578715820	-45.384	-88.816	1008.696	-0.14	0	-0.56	-151.5	-28.5	-747	0	0	2.782227	2.782227	2.782227	2.780859	2.78291	2.778809	2.778809	2.780176	2.778809	2.778809	2.782227	2.780859	2.777441	2.780859	2.776758	2.778125
1639578715830	-43.432	-96.136	1004.304	0.42	0.07	-0.49	-150	-28.5	-753	0	0	2.782227	2.782227	2.782227	2.78291	2.78291	2.780859	2.780176	2.778809	2.777441	2.780859	2.780859	2.778809	2.778809	2.780859	2.778809	2.776074
1639578715839	-49.288	-89.792	1011.136	0.98	0.07	-0.49	-150	-27	-757.5	0	0	2.782227	2.777441	2.782227	2.778809	2.780176	2.780176	2.780859	2.782227	2.780859	2.778125	2.778125	2.776758	2.777441	2.778809	2.777441	2.777441
1639578715849	-46.36	-100.04	1003.328	-0.14	0.14	-0.56	-150	-30	-753	0	0	2.777441	2.778809	2.782227	2.777441	2.78291	2.78291	2.780176	2.780176	2.777441	2.778809	2.778809	2.777441	2.780859	2.777441	2.778809	2.781543
1639578715859	-49.288	-97.112	1007.232	0.77	0.14	-0.49	-148.5	-30	-753	0	0	2.782227	2.78291	2.778809	2.777441	2.782227	2.780176	2.778809	2.780176	2.778125	2.778125	2.777441	2.780176	2.778809	2.778809	2.778809	2.778125
1639578715869	-52.704	-102.968	1004.792	0.63	0.14	-0.49	-148.5	-27	-748.5	0	0	2.780176	2.778809	2.780176	2.780176	2.780859	2.780176	2.778125	2.778125	2.780176	2.780176	2.777441	2.777441	2.778125	2.778125	2.777441	2.780859
1639578715878	-53.68	-99.064	1007.72	0.42	0.28	-0.49	-153	-27	-750	0	0	2.780176	2.782227	2.780176	2.778809	2.780176	2.778809	2.778809	2.777441	2.777441	2.777441	2.778809	2.780859	2.780859	2.780859	2.778809	2.780859
1639578715888	-54.168	-91.256	998.936	-0.21	0.28	-0.21	-154.5	-24	-748.5	0	0	2.782227	2.782227	2.777441	2.777441	2.780176	2.782227	2.777441	2.777441	2.780859	2.780859	2.777441	2.779492	2.780176	2.777441	2.778809	2.780176
1639578715898	-44.896	-104.432	996.496	0.49	0.07	-0.56	-153	-18	-751.5	0	0	2.782227	2.782227	2.780859	2.777441	2.780176	2.780176	2.780176	2.783594	2.778809	2.780859	2.782227	2.777441	2.778809	2.780859	2.780859	2.778809
1639578715908	-63.44	-86.376	1015.528	1.96	0	-0.42	-150	-18	-760.5	0	0	2.780176	2.780176	2.78291	2.780176	2.780176	2.778125	2.782227	2.780176	2.782227	2.778125	2.778809	2.777441	2.780859	2.780859	2.777441	2.780859
1639578715918	-55.632	-71.248	1003.816	-0.21	0.14	-0.49	-150	-22.5	-756	0	0	2.782227	2.777441	2.778809	2.778809	2.778809	2.777441	2.780859	2.780859	2.778809	2.776758	2.776758	2.776758	2.777441	2.777441	2.777441	2.780859
1639578715927	-48.312	-96.624	979.904	-0.7	0.21	-0.49	-150	-24	-754.5	0	0	2.778809	2.778809	2.778809	2.777441	2.778809	2.777441	2.780176	2.777441	2.781543	2.782227	2.778809	2.778125	2.778809	2.777441	2.778125	2.780176
1639578715937	-38.064	-90.28	1001.864	1.96	-0.07	-0.28	-151.5	-27	-760.5	0	0	2.780859	2.778125	2.782227	2.777441	2.782227	2.780176	2.780859	2.778809	2.778809	2.780859	2.780859	2.780859	2.780859	2.778809	2.780859	2.780859
1639578715947	-39.04	-95.648	1022.36	1.61	-0.21	-0.56	-150	-25.5	-750	0	0	2.780176	2.780176	2.782227	2.776758	2.78291	2.778125	2.780859	2.777441	2.778809	2.778809	2.778809	2.776758	2.776758	2.778125	2.778125	2.777441
1639578715957	-23.912	-99.064	1019.92	-0.7	-0.07	-0.63	-147	-22.5	-748.5	0	0	2.782227	2.782227	2.780176	2.777441	2.780176	2.778125	2.780176	2.780176	2.780176	2.778809	2.780859	2.778809	2.777441	2.779492	2.780176	2.780859
1639578715966	-40.504	-98.576	1015.528	0.84	0	-0.49	-147	-27	-757.5	0	0	2.782227	2.780176	2.78291	2.777441	2.777441	2.780176	2.780176	2.777441	2.782227	2.780859	2.777441	2.778125	2.778809	2.779492	2.780176	2.776758
1639578715976	-48.312	-86.864	1006.744	0.35	0.21	-0.42	-147	-27	-757.5	0	0	2.780176	2.780176	2.777441	2.780176	2.780859	2.780176	2.778125	2.778125	2.780176	2.778809	2.777441	2.778809	2.777441	2.780859	2.778125	2.780859
1639578715986	-51.728	-104.92	988.2	-0.84	0.21	-0.63	-150	-28.5	-762	0	0	2.78291	2.780859	2.777441	2.777441	2.780176	2.778125	2.778125	2.780176	2.778809	2.780859	2.778809	2.777441	2.778809	2.781543	2.780859	2.777441
1639578715996	-54.656	-102.968	998.936	1.4	0	-0.28	-150	-28.5	-760.5	0	0	2.777441	2.782227	2.778809	2.780176	2.777441	2.778809	2.780859	2.778809	2.778125	2.778125	2.780859	2.778809	2.780859	2.777441	2.778125	2.778809
1639578716005	-47.824	-89.792	1015.04	1.05	0.07	-0.35	-150	-27	-756	0	0	2.778125	2.777441	2.780859	2.782227	2.780859	2.780176	2.78291	2.780176	2.778125	2.778125	2.778809	2.778125	2.777441	2.778809	2.778125	2.778809
1639578716015	-43.432	-101.504	1008.696	-0.49	0.07	-0.49	-156	-25.5	-757.5	0	0	2.780176	2.780859	2.780859	2.778809	2.777441	2.780176	2.780176	2.778125	2.778809	2.778125	2.777441	2.777441	2.778809	2.780859	2.777441	2.778809
1639578716025	-57.096	-100.528	1002.84	0.63	0.14	-0.42	-153	-24	-753	0	0	2.778809	2.777441	2.777441	2.782227	2.778125	2.782227	2.780859	2.78291	2.778809	2.776758	2.776758	2.780859	2.782227	2.778125	2.777441	2.778125
1639578716035	-50.752	-95.648	1008.696	0.42	0.14	-0.63	-147	-18	-748.5	0	0	2.780176	2.782227	2.780176	2.78291	2.777441	2.780176	2.780176	2.777441	2.778125	2.777441	2.781543	2.779492	2.780859	2.777441	2.776758	2.777441
1639578716044	-54.168	-99.064	1003.816	0.49	0.07	-0.49	-144	-21	-756	0	0	2.777441	2.780859	2.777441	2.778809	2.780176	2.780176	2.78291	2.782227	2.777441	2.777441	2.782227	2.777441	2.778809	2.777441	2.778809	2.780176
1639578716054	-49.776	-99.064	1013.576	0.91	0.07	-0.42	-150	-30	-762	0	0	2.780859	2.780176	2.777441	2.782227	2.777441	2.780176	2.78291	2.782227	2.778125	2.778809	2.777441	2.778125	2.776758	2.777441	2.780176	2.777441
1639578716064	-45.384	-87.84	1007.232	0.35	0.07	-0.35	-156	-30	-757.5	0	0	2.778125	2.780859	2.780176	2.780859	2.777441	2.778125	2.769922	2.775391	2.778125	2.777441	2.780176	2.780176	2.777441	2.770605	2.777441	2.775391
1639578716074	-43.432	-91.256	999.912	-0.14	0.07	-0.49	-156	-30	-757.5	0	0	2.777441	2.780176	2.778809	2.780176	2.778809	2.782227	2.778809	2.778809	2.780859	2.778809	2.777441	2.780859	2.778125	2.778809	2.777441	2.777441
1639578716084	-48.312	-94.672	995.52	0.56	-0.07	-0.56	-157.5	-30	-757.5	0	0	2.780176	2.780859	2.778809	2.778809	2.777441	2.78291	2.780176	2.782227	2.777441	2.777441	2.777441	2.778125	2.777441	2.778809	2.778809	2.778809
1639578716093	-50.752	-85.888	999.912	1.26	-0.14	-0.42	-153	-27	-751.5	0	0	2.781543	2.780859	2.777441	2.78291	2.777441	2.778809	2.780176	2.777441	2.778125	2.780859	2.777441	2.780176	2.778125	2.777441	2.777441	2.780859
1639578716103	-44.896	-83.936	1009.184	0.14	-0.14	-0.56	-151.5	-24	-747	0	0	2.782227	2.780176	2.778125	2.778125	2.777441	2.780176	2.780859	2.78291	2.782227	2.778125	2.780176	2.780859	2.777441	2.778125	2.782227	2.777441
1639578716113	-42.456	-91.256	1000.888	-0.49	-0.07	-0.56	-156	-18	-750	0	0	2.777441	2.777441	2.777441	2.777441	2.778125	2.782227	2.778125	2.780176	2.780859	2.777441	2.777441	2.780859	2.778809	2.780176	2.777441	2.778809
1639578716123	-37.088	-90.28	1007.232	0.63	-0.14	-0.56	-153	-16.5	-753	0	0	2.780859	2.780176	2.780859	2.78291	2.777441	2.780176	2.780859	2.777441	2.777441	2.777441	2.777441	2.777441	2.778125	2.778125	2.780176	2.782227
1639578716132	-32.208	-105.408	1012.112	0.14	-0.28	-0.63	-151.5	-24	-757.5	0	0	2.782227	2.782227	2.780176	2.778809	2.782227	2.782227	2.782227	2.783594	2.778125	2.780176	2.777441	2.780176	2.782227	2.777441	2.781543	2.780859
1639578716142	-43.432	-101.016	1016.992	0.77	-0.14	-0.49	-157.5	-28.5	-760.5	0	0	2.780859	2.782227	2.78291	2.78291	2.78291	2.782227	2.780859	2.780176	2.782227	2.780176	2.778125	2.777441	2.778809	2.777441	2.778809	2.778125
1639578716152	-43.432	-95.648	1019.432	0.56	0	-0.35	-154.5	-28.5	-760.5	0	0	2.78291	2.778809	2.777441	2.78291	2.783594	2.780176	2.778125	2.782227	2.782227	2.777441	2.778125	2.780859	2.780859	2.780859	2.780859	2.780859
1639578716162	-48.312	-87.352	995.52	-0.84	0.14	-0.56	-150	-22.5	-757.5	0	0	2.778809	2.780176	2.78291	2.780859	2.780176	2.778125	2.780176	2.777441	2.776758	2.777441	2.778809	2.778125	2.777441	2.777441	2.781543	2.782227
1639578716171	-51.728	-95.16	985.76	0.56	-0.14	-0.56	-150	-22.5	-754.5	0	0	2.78291	2.78291	2.780176	2.780176	2.780176	2.776758	2.778809	2.780176	2.782227	2.778125	2.780859	2.777441	2.780176	2.781543	2.780859	2.778125
1639578716181	-57.096	-87.352	1007.72	1.12	-0.28	-0.56	-147	-30	-756	0	0	2.777441	2.782227	2.778125	2.777441	2.782227	2.778809	2.778809	2.777441	2.778809	2.780859	2.780176	2.778809	2.777441	2.776758	2.782227	2.778125
1639578716191	-52.704	-97.6	1015.528	0.07	-0.21	-0.56	-151.5	-31.5	-760.5	0	0	2.782227	2.778125	2.782227	2.777441	2.780859	2.777441	2.78291	2.777441	2.777441	2.778809	2.780859	2.778125	2.777441	2.776758	2.781543	2.778125
1639578716201	-42.944	-97.6	1014.552	0.28	-0.14	-0.49	-157.5	-28.5	-756	0	0	2.780176	2.780859	2.778809	2.777441	2.778125	2.78291	2.780859	2.780176	2.778125	2.782227	2.782227	2.778809	2.777441	2.777441	2.778809	2.777441
1639578716211	-36.6	-104.92	1010.648	-0.28	-0.14	-0.56	-156	-24	-753	0	0	2.777441	2.780859	2.780176	2.777441	2.780859	2.778809	2.780176	2.780176	2.777441	2.777441	2.778125	2.776758	2.777441	2.778125	2.780859	2.780859
1639578716220	-42.456	-99.552	1011.136	0.63	-0.14	-0.56	-150	-22.5	-751.5	0	0	2.780859	2.783594	2.78291	2.782227	2.777441	2.780176	2.780859	2.778809	2.778125	2.778125	2.780859	2.780176	2.777441	2.780859	2.778809	2.778809
1639578716230	-46.848	-93.208	1010.16	0.56	-0.07	-0.49	-151.5	-21	-756	0	0	2.780859	2.780859	2.776758	2.780176	2.782227	2.780176	2.778125	2.777441	2.776758	2.778809	2.777441	2.776758	2.778809	2.780859	2.782227	2.778125
1639578716240	-44.408	-90.28	1008.696	0.28	0.07	-0.56	-159	-21	-763.5	0	0	2.781543	2.780859	2.777441	2.780176	2.78291	2.782227	2.780176	2.778809	2.777441	2.778809	2.778809	2.778809	2.782227	2.777441	2.778125	2.778125
1639578716250	-45.872	-89.304	1004.304	0.42	0.07	-0.56	-163.5	-21	-765	0	0	2.780176	2.78291	2.777441	2.782227	2.78291	2.780859	2.782227	2.780176	2.780859	2.778809	2.778809	2.780859	2.777441	2.777441	2.778809	2.777441
1639578716259	-45.872	-88.816	1001.376	0.21	-0.14	-0.56	-162	-19.5	-760.5	0	0	2.778809	2.780176	2.78291	2.778809	2.777441	2.780859	2.780859	2.776758	2.780859	2.778125	2.777441	2.778809	2.777441	2.778125	2.778125	2.778125
1639578716269	-45.384	-95.648	993.568	0.14	-0.21	-0.56	-156	-28.5	-756	0	0	2.780176	2.780176	2.780176	2.780176	2.777441	2.782227	2.780859	2.78291	2.777441	2.778809	2.777441	2.780176	2.778809	2.778125	2.780176	2.778125
1639578716279	-46.848	-92.72	1007.232	1.12	-0.07	-0.49	-154.5	-28.5	-757.5	0	0	2.778125	2.78291	2.778809	2.777441	2.780859	2.780176	2.777441	2.778809	2.780859	2.777441	2.778809	2.776074	2.780859	2.777441	2.778809	2.780176
1639578716289	-53.192	-88.816	1012.6	0.42	0	-0.49	-154.5	-25.5	-754.5	0	0	2.782227	2.780176	2.778809	2.780859	2.780859	2.777441	2.777441	2.782227	2.777441	2.778125	2.778809	2.778125	2.778809	2.776758	2.778125	2.780859
1639578716298	-41.968	-101.016	1011.136	-0.28	0	-0.63	-153	-27	-757.5	0	0	2.782227	2.780176	2.78291	2.780859	2.78291	2.782227	2.780859	2.778809	2.778809	2.777441	2.780176	2.777441	2.780859	2.780859	2.782227	2.777441
1639578716308	-47.824	-97.112	1007.72	0.21	-0.21	-0.49	-154.5	-24	-756	0	0	2.780176	2.777441	2.782227	2.782227	2.780176	2.781543	2.78291	2.778809	2.776758	2.778809	2.780859	2.780859	2.777441	2.776758	2.778809	2.777441
1639578716318	-42.944	-92.232	1004.792	0.49	-0.35	-0.49	-150	-25.5	-750	0	0	2.78291	2.782227	2.777441	2.778125	2.780859	2.777441	2.782227	2.782227	2.780859	2.782227	2.778809	2.780859	2.780859	2.780176	2.777441	2.777441
1639578716328	-49.288	-97.112	1009.184	0.35	-0.28	-0.49	-153	-21	-754.5	0	0	2.780176	2.78291	2.780176	2.782227	2.782227	2.780859	2.780176	2.781543	2.778125	2.777441	2.778125	2.777441	2.778809	2.780859	2.780176	2.776758
1639578716337	-51.24	-95.16	1013.088	0.56	0	-0.42	-157.5	-24	-757.5	0	0	2.780859	2.782227	2.782227	2.780859	2.780176	2.782227	2.778125	2.777441	2.778809	2.777441	2.778809	2.780176	2.777441	2.778809	2.778809	2.780859
1639578716347	-46.848	-94.672	1005.768	-0.28	0	-0.56	-154.5	-31.5	-751.5	0	0	2.780859	2.780176	2.777441	2.782227	2.782227	2.780176	2.780859	2.782227	2.778125	2.778809	2.778125	2.777441	2.778125	2.777441	2.778809	2.780859
1639578716357	-49.288	-93.696	997.472	0.07	-0.21	-0.56	-156	-25.5	-748.5	0	0	2.780859	2.780176	2.778125	2.778809	2.780859	2.780176	2.780176	2.782227	2.778125	2.780176	2.780859	2.782227	2.776758	2.778809	2.778809	2.777441
1639578716367	-45.384	-89.792	1007.232	0.98	-0.21	-0.42	-156	-25.5	-748.5	0	0	2.780859	2.778809	2.780176	2.780176	2.776758	2.778809	2.778125	2.778809	2.778809	2.778809	2.777441	2.780859	2.780176	2.778125	2.778125	2.778809
1639578716377	-51.728	-88.328	1012.6	0.49	-0.21	-0.42	-156	-19.5	-754.5	0	0	2.780859	2.78291	2.780176	2.777441	2.778125	2.778809	2.780859	2.778125	2.778125	2.780176	2.778125	2.776758	2.777441	2.780176	2.778125	2.778125
1639578716386	-41.48	-96.136	1007.72	0.07	-0.07	-0.63	-147	-19.5	-757.5	0	0	2.776758	2.778125	2.778809	2.780859	2.780859	2.778125	2.776758	2.780176	2.769238	2.768555	2.777441	2.776074	2.778125	2.778125	2.782227	2.779492
1639578716396	-43.432	-94.184	1010.16	0.21	0	-0.56	-148.5	-24	-754.5	0	0	2.782227	2.782227	2.780176	2.780176	2.778809	2.78291	2.780176	2.780859	2.781543	2.780859	2.782227	2.778125	2.776758	2.777441	2.780176	2.777441
1639578716406	-42.456	-99.064	1003.816	0.35	-0.14	-0.56	-159	-27	-754.5	0	0	2.776758	2.778809	2.780176	2.778125	2.780176	2.780859	2.78291	2.782227	2.782227	2.778809	2.778809	2.777441	2.777441	2.778125	2.780859	2.778809
1639578716416	-41.48	-91.744	1014.064	0.84	-0.07	-0.56	-160.5	-28.5	-753	0	0	2.778809	2.780859	2.780859	2.777441	2.78291	2.78291	2.780176	2.78291	2.777441	2.778125	2.780859	2.777441	2.778125	2.780859	2.781543	2.782227
1639578716425	-47.336	-96.136	1012.112	0.42	0	-0.49	-162	-24	-756	0	0	2.78291	2.778125	2.780859	2.777441	2.778125	2.780859	2.780859	2.780859	2.780859	2.780176	2.782227	2.780859	2.780859	2.778809	2.777441	2.777441
1639578716435	-55.632	-89.792	1005.28	-0.07	0.07	-0.49	-162	-25.5	-756	0	0	2.780176	2.782227	2.777441	2.778125	2.780176	2.780859	2.782227	2.782227	2.780859	2.777441	2.777441	2.780176	2.779492	2.778809	2.780859	2.778125
1639578716445	-55.144	-93.208	1002.352	0.14	0.07	-0.49	-154.5	-27	-753	0	0	2.78291	2.776758	2.782227	2.778809	2.78291	2.780176	2.778809	2.778809	2.777441	2.778809	2.778125	2.777441	2.778125	2.778125	2.777441	2.780859
1639578716455	-50.264	-94.672	995.52	0.56	-0.14	-0.49	-148.5	-25.5	-759	0	0	2.780859	2.780176	2.782227	2.780176	2.780859	2.782227	2.782227	2.777441	2.778125	2.778125	2.780859	2.780176	2.782227	2.778125	2.778809	2.779492
1639578716464	-46.848	-95.16	1011.136	0.63	-0.14	-0.42	-150	-25.5	-768	0	0	2.778125	2.78291	2.780859	2.781543	2.782227	2.777441	2.777441	2.777441	2.778809	2.782227	2.777441	2.778125	2.778125	2.781543	2.782227	2.780859
1639578716474	-42.944	-94.672	1014.064	0.35	-0.14	-0.56	-153	-25.5	-760.5	0	0	2.780176	2.777441	2.778125	2.780859	2.780859	2.777441	2.780176	2.781543	2.778125	2.777441	2.778125	2.777441	2.777441	2.778125	2.780176	2.780859
1639578716484	-49.288	-98.088	1011.624	0	-0.07	-0.49	-148.5	-21	-756	0	0	2.780176	2.778125	2.780859	2.778809	2.782227	2.78291	2.780859	2.780859	2.780859	2.780859	2.778125	2.780859	2.777441	2.778809	2.778809	2.777441
1639578716494	-50.264	-95.648	1000.4	0.21	-0.07	-0.42	-148.5	-21	-756	0	0	2.782227	2.778125	2.780176	2.778809	2.780176	2.78291	2.780859	2.780176	2.778809	2.778809	2.777441	2.780176	2.778809	2.780859	2.777441	2.778125
1639578716503	-42.944	-89.304	1005.28	0.56	-0.14	-0.56	-153	-28.5	-753	0	0	2.780859	2.777441	2.778125	2.777441	2.777441	2.777441	2.781543	2.780176	2.777441	2.777441	2.777441	2.778125	2.777441	2.777441	2.781543	2.782227
1639578716513	-47.824	-90.28	1014.552	0.63	-0.14	-0.49	-151.5	-27	-757.5	0	0	2.780176	2.782227	2.78291	2.778125	2.78291	2.78291	2.777441	2.780176	2.776074	2.778809	2.778125	2.778809	2.782227	2.780859	2.777441	2.777441
1639578716523	-43.432	-92.232	1008.208	0.07	-0.14	-0.49	-145.5	-19.5	-757.5	0	0	2.778125	2.777441	2.780176	2.778809	2.782227	2.780859	2.782227	2.777441	2.780859	2.778125	2.778809	2.778809	2.777441	2.782227	2.780176	2.776758
1639578716533	-43.92	-89.304	1007.232	0.07	0	-0.49	-142.5	-21	-759	0	0	2.780859	2.78291	2.777441	2.778125	2.780176	2.78291	2.780859	2.778809	2.780859	2.778125	2.780859	2.778809	2.780859	2.776758	2.776758	2.780859
1639578716543	-44.408	-98.576	1008.208	0.21	-0.07	-0.63	-142.5	-21	-756	0	0	2.780176	2.777441	2.778809	2.778125	2.780176	2.777441	2.777441	2.782227	2.780859	2.780859	2.780859	2.778125	2.776074	2.776758	2.778809	2.777441
1639578716552	-51.728	-91.744	1006.744	0.84	-0.14	-0.42	-145.5	-30	-747	0	0	2.780176	2.777441	2.780176	2.782227	2.78291	2.782227	2.78291	2.778809	2.778809	2.776758	2.778809	2.780859	2.778809	2.778125	2.780859	2.778125
1639578716562	-44.408	-92.232	1004.792	-0.07	-0.21	-0.49	-147	-33	-756	0	0	2.78291	2.780859	2.780859	2.782227	2.78291	2.777441	2.777441	2.780859	2.778125	2.780859	2.780859	2.782227	2.777441	2.778125	2.778125	2.777441
1639578716572	-51.728	-99.552	1008.696	-0.35	-0.07	-0.56	-151.5	-22.5	-765	0	0	2.777441	2.780859	2.778125	2.778125	2.778125	2.780859	2.777441	2.783594	2.778809	2.777441	2.777441	2.777441	2.780859	2.778809	2.778809	2.776758
1639578716582	-56.608	-90.28	1002.352	0.7	0.07	-0.49	-154.5	-25.5	-756	0	0	2.780176	2.780859	2.778809	2.780176	2.780176	2.780176	2.780176	2.777441	2.780176	2.780859	2.778125	2.776074	2.780176	2.778809	2.777441	2.780859
1639578716591	-47.336	-96.624	1008.208	0.21	0	-0.56	-154.5	-27	-753	0	0	2.780176	2.777441	2.780859	2.778809	2.78291	2.778809	2.777441	2.777441	2.778125	2.777441	2.778809	2.778809	2.780176	2.777441	2.777441	2.777441
1639578716601	-43.432	-101.504	998.448	0.07	-0.14	-0.56	-153	-22.5	-756	0	0	2.777441	2.78291	2.782227	2.782227	2.777441	2.778125	2.778809	2.780176	2.777441	2.780859	2.780859	2.777441	2.780859	2.777441	2.778809	2.778809
1639578716611	-45.872	-95.648	1011.624	1.12	-0.07	-0.42	-150	-27	-754.5	0	0	2.778809	2.777441	2.781543	2.778125	2.780859	2.780859	2.780176	2.780176	2.777441	2.777441	2.780859	2.782227	2.778125	2.780176	2.778809	2.777441
1639578716621	-51.728	-88.328	1012.112	0	0	-0.49	-150	-27	-751.5	0	0	2.782227	2.780176	2.777441	2.778809	2.777441	2.781543	2.778809	2.777441	2.780859	2.780859	2.778809	2.778125	2.777441	2.780859	2.777441	2.777441
1639578716630	-46.36	-95.16	1000.888	-0.21	0	-0.49	-151.5	-24	-753	0	0	2.780176	2.777441	2.777441	2.780859	2.777441	2.778809	2.780176	2.777441	2.780859	2.778809	2.776758	2.776758	2.780859	2.777441	2.780859	2.777441
1639578716640	-50.752	-96.624	997.472	0.49	-0.14	-0.49	-154.5	-30	-751.5	0	0	2.778125	2.782227	2.780176	2.782227	2.78291	2.780176	2.777441	2.777441	2.780859	2.780859	2.778809	2.780859	2.777441	2.777441	2.776758	2.780859
1639578716650	-37.576	-98.088	1002.84	0.49	-0.07	-0.49	-151.5	-28.5	-751.5	0	0	2.782227	2.780176	2.78291	2.780176	2.782227	2.780859	2.780859	2.780176	2.780176	2.779492	2.778125	2.780859	2.778125	2.778125	2.780176	2.776758
1639578716660	-28.304	-95.16	1018.456	0.91	0	-0.63	-151.5	-27	-762	0	0	2.780176	2.777441	2.783594	2.780859	2.780859	2.780859	2.780859	2.777441	2.778809	2.778809	2.778809	2.780859	2.778809	2.778125	2.776758	2.781543
1639578716669	-41.968	-104.432	986.248	-2.1	0	-0.42	-147	-25.5	-763.5	0	0	2.782227	2.780176	2.782227	2.780176	2.782227	2.780176	2.780859	2.778809	2.777441	2.780176	2.780859	2.778809	2.777441	2.780859	2.778809	2.778809
1639578716679	-35.136	-106.872	990.152	1.75	0.21	-1.05	-145.5	-21	-762	0	0	2.780176	2.778125	2.782227	2.777441	2.780176	2.777441	2.780859	2.780176	2.780859	2.778809	2.778125	2.777441	2.777441	2.780859	2.780176	2.778809
1639578716689	-55.632	-81.984	1023.824	0.77	-0.28	-0.07	-151.5	-21	-759	0	0	2.782227	2.783594	2.780176	2.782227	2.782227	2.778809	2.778125	2.780176	2.780859	2.778125	2.778809	2.777441	2.776758	2.778809	2.777441	2.780859
1639578716699	-50.264	-94.184	1003.328	-1.75	-0.07	-0.98	-153	-21	-754.5	0	0	2.778809	2.778809	2.780859	2.777441	2.777441	2.778125	2.782227	2.777441	2.778125	2.780859	2.778809	2.778125	2.777441	2.777441	2.778125	2.778809
1639578716709	-50.752	-94.184	998.936	0.98	-0.35	-0.28	-150	-25.5	-757.5	0	0	2.777441	2.778809	2.780176	2.782227	2.782227	2.782227	2.777441	2.783594	2.777441	2.777441	2.779492	2.780859	2.769238	2.779492	2.778809	2.778125
1639578716718	-53.68	-92.72	1028.216	0.63	-0.14	-0.42	-142.5	-28.5	-757.5	0	0	2.780859	2.780859	2.778125	2.778809	2.780859	2.780176	2.778809	2.782227	2.778125	2.780859	2.780176	2.777441	2.780859	2.778809	2.777441	2.776758
1639578716728	-46.36	-110.776	1003.328	-1.82	-0.07	-0.91	-144	-27	-756	0	0	2.780859	2.780176	2.780859	2.780859	2.780859	2.782227	2.778125	2.780859	2.780176	2.778809	2.777441	2.776758	2.776758	2.778125	2.781543	2.777441
1639578716738	-40.504	-109.8	998.448	0.63	-0.14	-0.42	-150	-25.5	-759	0	0	2.778125	2.78291	2.78291	2.777441	2.78291	2.778809	2.778809	2.780859	2.781543	2.778809	2.778809	2.776758	2.780176	2.778809	2.778809	2.778125
1639578716748	-46.36	-99.064	1020.408	1.4	-0.07	-0.42	-148.5	-24	-757.5	0	0	2.782227	2.780176	2.782227	2.778809	2.777441	2.777441	2.778809	2.777441	2.777441	2.779492	2.777441	2.777441	2.778125	2.777441	2.776758	2.780176
1639578716757	-53.68	-90.768	1011.136	-1.54	0	-0.56	-148.5	-24	-757.5	0	0	2.778809	2.780859	2.782227	2.780176	2.777441	2.778809	2.778809	2.78291	2.778125	2.780859	2.781543	2.778125	2.777441	2.780859	2.777441	2.778125
1639578716767	-43.432	-102.48	994.056	0.14	-0.07	-0.35	-154.5	-24	-757.5	0	0	2.780859	2.780176	2.778809	2.777441	2.780176	2.778125	2.780859	2.782227	2.780176	2.778809	2.780859	2.778809	2.778125	2.778809	2.780176	2.780859
1639578716777	-55.144	-86.376	1008.696	1.19	-0.14	-0.56	-150	-28.5	-757.5	0	0	2.778809	2.78291	2.780176	2.782227	2.780176	2.78291	2.780176	2.780176	2.781543	2.781543	2.780176	2.777441	2.777441	2.782227	2.778809	2.778809
1639578716787	-43.432	-90.768	1010.648	-0.42	0.07	-0.84	-145.5	-22.5	-756	0	0	2.778809	2.781543	2.777441	2.780176	2.778809	2.778809	2.780859	2.778809	2.778125	2.778125	2.777441	2.777441	2.778125	2.776074	2.778125	2.776758
1639578716796	-53.192	-94.184	1004.304	0.56	0.07	-0.49	-153	-24	-759	0	0	2.777441	2.780176	2.777441	2.778809	2.780859	2.777441	2.78291	2.778125	2.776758	2.778809	2.778809	2.777441	2.780859	2.780859	2.778809	2.777441
1639578716806	-41.968	-97.6	1009.672	0.63	-0.07	-0.49	-153	-33	-759	0	0	2.778125	2.780176	2.782227	2.782227	2.778125	2.778125	2.78291	2.780859	2.778809	2.778809	2.777441	2.780176	2.780176	2.778809	2.780859	2.778125
1639578716816	-39.04	-102.48	1001.864	-0.7	-0.28	-0.7	-153	-28.5	-759	0	0	2.780176	2.78291	2.777441	2.778809	2.777441	2.780176	2.780176	2.780176	2.777441	2.778809	2.778809	2.780859	2.777441	2.777441	2.780176	2.778809
1639578716826	-39.04	-103.456	1001.864	-0.63	-0.21	-0.63	-154.5	-22.5	-754.5	0	0	2.777441	2.778125	2.78291	2.780176	2.780176	2.780176	2.780176	2.780859	2.777441	2.778125	2.782227	2.780859	2.780176	2.777441	2.780176	2.778809
1639578716836	-24.888	-99.552	1018.944	0.84	-0.21	-0.49	-147	-21	-753	0	0	2.776758	2.780176	2.777441	2.778125	2.778125	2.782227	2.778125	2.778125	2.777441	2.777441	2.780859	2.780859	2.777441	2.777441	2.777441	2.777441
1639578716845	-41.968	-82.96	1009.184	-0.21	-0.14	-0.14	-144	-21	-756	0	0	2.78291	2.778809	2.782227	2.78291	2.778809	2.780859	2.782227	2.780859	2.777441	2.778125	2.776758	2.780859	2.778809	2.780859	2.780859	2.777441
1639578716855	-47.336	-103.456	997.472	-1.89	-0.14	-0.42	-150	-19.5	-753	0	0	2.780176	2.778125	2.777441	2.778125	2.777441	2.78291	2.78291	2.780176	2.777441	2.777441	2.778809	2.778125	2.780859	2.778125	2.777441	2.776758
1639578716865	-37.088	-99.064	1000.888	0.49	-0.42	0	-150	-21	-753	0	0	2.780859	2.780176	2.781543	2.78291	2.780176	2.778809	2.78291	2.780859	2.777441	2.780176	2.778125	2.777441	2.777441	2.777441	2.778809	2.778125
1639578716875	5.368	-78.568	1021.872	2.73	-1.96	3.92	-148.5	-25.5	-754.5	0	0	2.78291	2.780859	2.781543	2.777441	2.777441	2.777441	2.78291	2.780176	2.780176	2.778809	2.780859	2.780176	2.780859	2.780859	2.778809	2.776758
1639578716884	-33.184	-101.992	977.952	5.04	-1.05	10.78	-148.5	-28.5	-751.5	0	0	2.780859	2.777441	2.777441	2.782227	2.78291	2.777441	2.783594	2.778809	2.778809	2.777441	2.777441	2.778125	2.778809	2.782227	2.780859	2.778809
1639578716894	-85.4	-124.44	1019.92	11.34	-0.91	9.73	-147	-27	-753	0	0	2.778125	2.778125	2.780176	2.778125	2.780176	2.780859	2.778809	2.782227	2.778125	2.778809	2.780176	2.777441	2.778809	2.778809	2.780859	2.776758
1639578716904	-44.896	-86.376	1050.176	7.14	-0.21	2.24	-145.5	-22.5	-760.5	0	0	2.777441	2.780176	2.78291	2.780859	2.778809	2.777441	2.780176	2.777441	2.778809	2.778809	2.777441	2.780859	2.777441	2.780859	2.780859	2.777441
1639578716914	-44.896	-98.088	1003.816	-0.98	-0.07	-0.77	-151.5	-21	-756	0	0	2.778125	2.78291	2.780859	2.778809	2.777441	2.78291	2.778809	2.778809	2.780176	2.778125	2.776074	2.776758	2.778125	2.779492	2.778125	2.780859
1639578716923	-35.136	-113.704	987.224	2.24	1.47	-1.54	-157.5	-27	-748.5	0	0	2.782227	2.780859	2.777441	2.778125	2.782227	2.777441	2.78291	2.783594	2.780176	2.780176	2.777441	2.780176	2.777441	2.778125	2.776074	2.780176
1639578716933	-46.848	-93.208	1025.776	5.95	3.43	-0.56	-156	-27	-751.5	0	0	2.778809	2.778809	2.777441	2.778809	2.780176	2.780176	2.778125	2.777441	2.778809	2.777441	2.781543	2.781543	2.780176	2.782227	2.778125	2.778125
1639578716943	-42.456	-86.376	1022.848	0.91	0.07	-0.35	-154.5	-21	-751.5	0	0	2.780176	2.780176	2.780859	2.780859	2.778125	2.777441	2.777441	2.782227	2.780176	2.780859	2.780176	2.777441	2.780859	2.781543	2.780859	2.778809
1639578716953	-52.216	-86.376	1002.352	-1.12	0	-0.35	-157.5	-22.5	-754.5	0	0	2.780859	2.782227	2.780176	2.780176	2.777441	2.782227	2.778809	2.777441	2.778125	2.780176	2.780176	2.778809	2.780859	2.780859	2.780176	2.778809
1639578716962	-51.24	-86.376	992.592	1.05	0.21	-0.7	-153	-21	-757.5	0	0	2.78291	2.78291	2.778125	2.782227	2.780859	2.778809	2.776758	2.780859	2.781543	2.777441	2.777441	2.777441	2.777441	2.780859	2.782227	2.778125
1639578716972	-50.752	-80.52	1007.72	0.98	-0.21	-0.49	-151.5	-24	-754.5	0	0	2.780176	2.780859	2.781543	2.78291	2.780176	2.777441	2.777441	2.780176	2.777441	2.778809	2.780176	2.778125	2.778125	2.778125	2.780859	2.778809
1639578716982	-52.704	-87.352	1002.352	-0.63	-0.28	-0.49	-150	-34.5	-753	0	0	2.780859	2.778809	2.777441	2.783594	2.780176	2.778125	2.78291	2.777441	2.780859	2.777441	2.777441	2.778809	2.781543	2.777441	2.777441	2.78291
1639578716992	-43.92	-96.136	1006.256	-0.28	-0.21	-0.63	-151.5	-27	-759	0	0	2.782227	2.780176	2.782227	2.780176	2.777441	2.778809	2.780176	2.780176	2.778125	2.778125	2.777441	2.780859	2.778125	2.778809	2.778809	2.777441
1639578717002	-38.552	-99.064	1010.16	0.28	-0.14	-0.49	-153	-22.5	-754.5	0	0	2.782227	2.780176	2.780176	2.778125	2.780859	2.78291	2.780859	2.780859	2.778809	2.778125	2.778125	2.777441	2.776758	2.777441	2.778125	2.778125
1639578717011	-49.776	-92.72	1006.256	-0.35	-0.21	-0.49	-151.5	-28.5	-757.5	0	0	2.777441	2.780859	2.777441	2.780859	2.778809	2.778809	2.78291	2.780859	2.777441	2.782227	2.780176	2.778125	2.778125	2.778125	2.780859	2.778809
1639578717021	-45.872	-101.992	1000.888	0.42	-0.07	-0.49	-157.5	-30	-751.5	0	0	2.778125	2.780859	2.780859	2.780176	2.780859	2.780176	2.782227	2.777441	2.778125	2.780859	2.780859	2.778125	2.780859	2.777441	2.780859	2.778809
1639578717031	-48.8	-87.352	1008.208	2.24	0.14	-0.63	-153	-28.5	-747	0	0	2.78291	2.776758	2.780859	2.780859	2.778125	2.780176	2.780176	2.780176	2.779492	2.778809	2.777441	2.781543	2.778125	2.777441	2.778809	2.780859
1639578717041	-50.264	-87.352	1019.92	0.63	0.07	-0.56	-147	-27	-751.5	0	0	2.780176	2.780859	2.780176	2.781543	2.778809	2.780859	2.782227	2.782227	2.780176	2.780859	2.780859	2.778809	2.778809	2.777441	2.777441	2.780859
1639578717050	-44.408	-88.328	995.032	-0.63	0	-0.56	-150	-25.5	-753	0	0	2.777441	2.782227	2.780859	2.780859	2.780176	2.778809	2.777441	2.78291	2.778125	2.780859	2.780176	2.780176	2.780859	2.777441	2.780859	2.778809
1639578717060	-48.8	-98.088	998.448	0.91	-0.07	-0.49	-151.5	-25.5	-753	0	0	2.780176	2.78291	2.780859	2.780859	2.780176	2.780859	2.780859	2.780176	2.778809	2.778125	2.780859	2.780176	2.780176	2.780176	2.780859	2.782227
1639578717070	-47.336	-86.864	1017.48	1.33	-0.28	-0.42	-151.5	-27	-756	0	0	2.780176	2.780859	2.777441	2.782227	2.777441	2.777441	2.778809	2.780176	2.777441	2.781543	2.778125	2.780176	2.778809	2.778809	2.777441	2.777441
1639578717080	-47.336	-95.648	1010.648	-0.98	-0.14	-0.56	-156	-27	-759	0	0	2.780859	2.782227	2.777441	2.777441	2.780859	2.780859	2.780176	2.778809	2.780859	2.780859	2.778809	2.780859	2.778809	2.780859	2.782227	2.777441
1639578717089	-45.384	-95.648	1000.4	-0.28	-0.07	-0.56	-151.5	-30	-760.5	0	0	2.780176	2.780176	2.780176	2.780176	2.78291	2.782227	2.777441	2.777441	2.778125	2.780859	2.779492	2.778809	2.780859	2.778125	2.781543	2.780859
1639578717099	-45.872	-91.744	1004.792	0.77	-0.07	-0.42	-150	-28.5	-762	0	0	2.782227	2.778125	2.780176	2.780859	2.780859	2.780176	2.78291	2.777441	2.777441	2.780859	2.777441	2.778809	2.777441	2.778125	2.780176	2.778125
1639578717109	-42.944	-95.16	1001.376	0.14	-0.07	-0.56	-151.5	-22.5	-756	0	0	2.782227	2.780176	2.782227	2.780176	2.780176	2.783594	2.780859	2.780176	2.778809	2.782227	2.777441	2.780859	2.778125	2.776074	2.777441	2.780176
1639578717119	-44.896	-94.672	1008.696	0.42	0	-0.56	-148.5	-30	-754.5	0	0	2.780176	2.777441	2.778809	2.778809	2.780176	2.780176	2.778125	2.78291	2.778809	2.777441	2.780859	2.777441	2.777441	2.779492	2.777441	2.778125
1639578717128	-53.68	-86.864	1008.696	0.56	0.07	-0.56	-151.5	-28.5	-751.5	0	0	2.78291	2.782227	2.778809	2.780176	2.778809	2.778125	2.780176	2.777441	2.778125	2.779492	2.780859	2.780859	2.778125	2.777441	2.780176	2.780859
1639578717138	-51.728	-89.792	1011.136	0.63	0.07	-0.49	-151.5	-27	-750	0	0	2.78291	2.778809	2.78291	2.78291	2.782227	2.780176	2.780176	2.780176	2.778125	2.778809	2.780859	2.780859	2.776758	2.778809	2.780176	2.780176
1639578717148	-44.896	-88.816	1000.888	0	-0.07	-0.63	-151.5	-27	-751.5	0	0	2.78291	2.777441	2.778809	2.780176	2.776074	2.780176	2.782227	2.780176	2.780176	2.777441	2.778125	2.780176	2.778809	2.778809	2.778125	2.778125
1639578717158	-48.312	-93.208	1005.28	0.91	-0.14	-0.49	-153	-27	-751.5	0	0	2.777441	2.780859	2.78291	2.777441	2.778125	2.778125	2.781543	2.777441	2.778809	2.777441	2.780859	2.780176	2.778809	2.778125	2.780859	2.778125
1639578717168	-46.848	-89.792	1015.04	0.56	-0.07	-0.49	-156	-28.5	-753	0	0	2.777441	2.782227	2.78291	2.780176	2.78291	2.780176	2.780859	2.776758	2.776758	2.778125	2.776758	2.778809	2.777441	2.780859	2.777441	2.778125
1639578717177	-40.504	-96.624	1009.672	-0.49	-0.14	-0.7	-154.5	-31.5	-753	0	0	2.780176	2.782227	2.780859	2.777441	2.782227	2.777441	2.782227	2.780176	2.777441	2.778125	2.778125	2.777441	2.780859	2.777441	2.780176	2.778809
1639578717187	-42.944	-102.968	1008.696	0.21	-0.14	-0.56	-154.5	-27	-757.5	0	0	2.778809	2.777441	2.782227	2.782227	2.782227	2.780176	2.782227	2.777441	2.778809	2.778809	2.780859	2.778125	2.778809	2.780859	2.777441	2.781543
1639578717197	-42.456	-98.576	1012.112	0.42	-0.07	-0.49	-154.5	-21	-757.5	0	0	2.780176	2.779492	2.777441	2.78291	2.777441	2.778809	2.780859	2.778125	2.778125	2.777441	2.777441	2.778809	2.778125	2.778125	2.780176	2.777441
1639578717207	-40.992	-87.352	1014.064	0.42	-0.14	-0.42	-153	-24	-757.5	0	0	2.782227	2.78291	2.778809	2.780859	2.778809	2.78291	2.782227	2.780859	2.777441	2.778809	2.778809	2.777441	2.777441	2.777441	2.777441	2.776758
1639578717216	-42.456	-93.208	1007.72	0.14	-0.07	-0.63	-154.5	-30	-757.5	0	0	2.778809	2.780176	2.778809	2.780176	2.780859	2.778809	2.781543	2.778125	2.777441	2.781543	2.777441	2.780859	2.777441	2.778809	2.780859	2.778125
1639578717226	-56.12	-81.496	1003.328	0.7	0	-0.42	-150	-27	-754.5	0	0	2.78291	2.780859	2.777441	2.781543	2.778125	2.780176	2.780176	2.780859	2.778125	2.776758	2.777441	2.777441	2.782227	2.780176	2.778125	2.780859
1639578717236	-46.848	-87.84	1006.256	0.21	0	-0.42	-151.5	-27	-754.5	0	0	2.778125	2.782227	2.780176	2.778809	2.78291	2.780859	2.778809	2.782227	2.780176	2.777441	2.780859	2.778809	2.777441	2.778809	2.778125	2.778809
1639578717246	-48.312	-91.256	1001.376	0.42	-0.07	-0.49	-159	-33	-760.5	0	0	2.780859	2.78291	2.778125	2.777441	2.780859	2.778125	2.782227	2.782227	2.782227	2.778809	2.782227	2.780859	2.778809	2.777441	2.778809	2.778125
1639578717255	-47.824	-92.72	1013.088	0.56	-0.21	-0.56	-153	-31.5	-760.5	0	0	2.780176	2.777441	2.780176	2.778809	2.780859	2.782227	2.780176	2.777441	2.778809	2.777441	2.780859	2.777441	2.778809	2.778125	2.778125	2.778125
1639578717265	-41.968	-89.792	1010.648	0.49	0	-0.56	-151.5	-30	-760.5	0	0	2.782227	2.782227	2.782227	2.780859	2.778809	2.780176	2.782227	2.780859	2.778125	2.778809	2.780859	2.777441	2.777441	2.777441	2.778125	2.778125
1639578717275	-44.896	-92.232	1008.696	0.21	-0.14	-0.49	-153	-33	-762	0	0	2.780176	2.778809	2.777441	2.780176	2.778809	2.780859	2.780176	2.777441	2.781543	2.777441	2.780176	2.780859	2.777441	2.778125	2.780859	2.777441
1639578717285	-43.92	-94.672	1015.04	0	-0.07	-0.49	-153	-30	-757.5	0	0	2.777441	2.780176	2.780176	2.78291	2.777441	2.777441	2.780176	2.777441	2.780176	2.778809	2.777441	2.779492	2.777441	2.777441	2.778125	2.780859
1639578717294	-51.24	-90.28	1002.84	0.35	-0.07	-0.49	-154.5	-27	-754.5	0	0	2.782227	2.782227	2.778125	2.778125	2.780176	2.778809	2.78291	2.780859	2.777441	2.776758	2.777441	2.780176	2.777441	2.777441	2.777441	2.777441
1639578717304	-51.728	-91.256	1008.208	0.49	-0.14	-0.42	-153	-28.5	-757.5	0	0	2.782227	2.780176	2.782227	2.780859	2.782227	2.777441	2.777441	2.777441	2.778809	2.782227	2.780859	2.777441	2.778125	2.780176	2.777441	2.780176
1639578717314	-48.312	-90.768	1011.624	0.21	-0.07	-0.56	-153	-27	-754.5	0	0	2.78291	2.782227	2.777441	2.780859	2.782227	2.778809	2.777441	2.782227	2.777441	2.780859	2.780859	2.777441	2.780176	2.778125	2.778809	2.778809
1639578717324	-46.848	-92.232	1009.672	0.49	-0.07	-0.49	-148.5	-27	-753	0	0	2.780176	2.783594	2.782227	2.778809	2.780859	2.778809	2.778125	2.778809	2.782227	2.778809	2.778809	2.778125	2.780859	2.778809	2.777441	2.778125
1639578717334	-43.92	-98.576	1011.624	0.21	-0.21	-0.42	-145.5	-25.5	-753	0	0	2.777441	2.780176	2.780176	2.780859	2.777441	2.780859	2.778809	2.782227	2.780176	2.778809	2.778809	2.780859	2.778125	2.777441	2.777441	2.777441
1639578717343	-48.8	-95.16	1003.328	0.49	-0.14	-0.56	-148.5	-27	-750	0	0	2.78291	2.778125	2.780176	2.782227	2.78291	2.780176	2.78291	2.777441	2.778809	2.778125	2.777441	2.777441	2.778125	2.782227	2.780176	2.777441
1639578717353	-52.216	-88.328	1013.088	0.49	-0.21	-0.49	-151.5	-31.5	-748.5	0	0	2.777441	2.780176	2.78291	2.781543	2.78291	2.780176	2.777441	2.780176	2.778809	2.778125	2.777441	2.777441	2.777441	2.776758	2.777441	2.778809
1639578717363	-48.8	-84.912	1009.672	0.56	0.07	-0.35	-151.5	-24	-750	0	0	2.780176	2.78291	2.778809	2.777441	2.777441	2.780176	2.780859	2.778809	2.778809	2.780859	2.778125	2.777441	2.768555	2.771289	2.777441	2.777441
1639578717373	-45.872	-95.648	1010.16	-0.28	-0.14	-0.56	-151.5	-21	-751.5	0	0	2.780176	2.78291	2.781543	2.780176	2.782227	2.780859	2.780859	2.78291	2.778809	2.777441	2.778809	2.777441	2.777441	2.778125	2.776758	2.778125
1639578717382	-39.04	-81.984	1006.256	0.7	-0.07	-0.42	-150	-24	-753	0	0	2.780176	2.777441	2.780176	2.779492	2.778809	2.778125	2.778809	2.780176	2.778125	2.780859	2.778809	2.778809	2.777441	2.780859	2.778809	2.778809
1639578717392	-45.384	-91.744	1010.16	-0.49	-0.21	-0.56	-150	-27	-751.5	0	0	2.778809	2.782227	2.78291	2.780859	2.780176	2.777441	2.780859	2.777441	2.778125	2.778809	2.780859	2.778125	2.780859	2.778809	2.778809	2.777441
1639578717402	-49.288	-96.624	1003.328	0.56	-0.14	-0.42	-148.5	-27	-754.5	0	0	2.780176	2.780176	2.778809	2.78291	2.780859	2.778125	2.777441	2.78291	2.778809	2.777441	2.777441	2.780859	2.780176	2.778809	2.776758	2.780859
1639578717412	-47.824	-94.672	1013.088	0.42	-0.21	-0.56	-148.5	-28.5	-757.5	0	0	2.778125	2.778809	2.778809	2.780176	2.778809	2.780859	2.780859	2.78291	2.777441	2.780176	2.778809	2.778125	2.780176	2.778809	2.778125	2.778809
1639578717421	-49.288	-88.816	1003.328	-0.42	-0.14	-0.63	-156	-30	-759	0	0	2.782227	2.777441	2.777441	2.777441	2.778125	2.782227	2.78291	2.780176	2.781543	2.778125	2.777441	2.778125	2.777441	2.778809	2.778809	2.782227
1639578717431	-49.288	-95.16	1002.84	0.42	-0.14	-0.49	-153	-27	-759	0	0	2.780176	2.778125	2.777441	2.78291	2.780176	2.780176	2.780859	2.78291	2.778809	2.778809	2.781543	2.776758	2.778809	2.778809	2.778125	2.780176
1639578717441	-44.896	-100.04	1015.528	0.91	-0.14	-0.42	-151.5	-25.5	-753	0	0	2.777441	2.780859	2.777441	2.780859	2.78291	2.78291	2.780176	2.78291	2.782227	2.782227	2.777441	2.776758	2.781543	2.778125	2.782227	2.777441
1639578717451	-44.408	-104.432	1018.456	0.28	-0.14	-0.49	-154.5	-25.5	-759	0	0	2.78291	2.778809	2.780859	2.780859	2.78291	2.78291	2.777441	2.777441	2.778125	2.781543	2.780176	2.777441	2.778125	2.777441	2.777441	2.780176
1639578717461	-45.384	-92.72	1010.648	0.28	-0.07	-0.49	-157.5	-27	-757.5	0	0	2.778125	2.780176	2.778125	2.78291	2.777441	2.776758	2.778809	2.780176	2.780859	2.778125	2.778125	2.780859	2.780176	2.778809	2.778809	2.778809
1639578717470	-49.288	-89.792	1001.376	0.07	0.07	-0.56	-153	-27	-753	0	0	2.780176	2.780176	2.780176	2.778809	2.780176	2.778809	2.777441	2.780859	2.778809	2.778809	2.778809	2.777441	2.780859	2.777441	2.780859	2.778125
1639578717480	-41.968	-81.496	997.96	0.42	-0.21	-0.49	-153	-24	-751.5	0	0	2.78291	2.778809	2.778809	2.780859	2.778125	2.778125	2.778809	2.778809	2.777441	2.778125	2.776758	2.778809	2.780859	2.778125	2.780859	2.780176
1639578717490	-40.504	-87.84	1016.504	0	-0.49	-0.42	-154.5	-28.5	-748.5	0	0	2.78291	2.777441	2.780176	2.780859	2.781543	2.777441	2.782227	2.777441	2.780859	2.778125	2.780176	2.782227	2.779492	2.777441	2.780859	2.777441
1639578717500	-44.896	-79.544	995.032	0.21	-0.28	-0.49	-153	-31.5	-754.5	0	0	2.782227	2.777441	2.777441	2.78291	2.780176	2.776758	2.780859	2.777441	2.780859	2.777441	2.778809	2.778125	2.777441	2.780859	2.780859	2.780176
1639578717509	-52.216	-84.424	1019.432	-0.28	-0.28	-0.42	-151.5	-31.5	-760.5	0	0	2.780859	2.78291	2.78291	2.776758	2.780859	2.780176	2.780176	2.780176	2.780176	2.778809	2.777441	2.782227	2.781543	2.778125	2.780859	2.778125
1639578717519	-45.872	-97.6	1029.68	0	-0.42	-0.56	-148.5	-30	-759	0	0	2.778809	2.778809	2.782227	2.777441	2.780859	2.78291	2.780176	2.780859	2.780859	2.778809	2.778809	2.780859	2.778125	2.778809	2.778809	2.777441
1639578717529	-45.384	-99.552	1023.336	0.14	-0.42	-0.77	-153	-27	-756	0	0	2.782227	2.778125	2.780859	2.780176	2.778809	2.780176	2.777441	2.782227	2.778809	2.779492	2.777441	2.782227	2.776758	2.782227	2.780859	2.777441
1639578717539	-46.848	-104.92	1008.696	-0.14	-0.28	-0.35	-159	-24	-757.5	0	0	2.778809	2.778809	2.78291	2.78291	2.777441	2.778809	2.780176	2.780176	2.780859	2.777441	2.778809	2.777441	2.777441	2.776758	2.778809	2.778809
1639578717548	-44.896	-103.456	1012.112	0.49	-0.07	-0.84	-159	-24	-757.5	0	0	2.777441	2.780859	2.777441	2.782227	2.780176	2.778809	2.78291	2.777441	2.777441	2.778809	2.777441	2.780859	2.780176	2.777441	2.780176	2.777441
1639578717558	-53.192	-83.448	1021.384	0.77	-0.21	-0.14	-154.5	-19.5	-756	0	0	2.778809	2.780859	2.78291	2.780176	2.780176	2.78291	2.780176	2.777441	2.778125	2.777441	2.780859	2.778809	2.778125	2.777441	2.777441	2.780859
1639578717568	-59.048	-88.328	1003.328	0.42	0.21	-0.56	-150	-25.5	-756	0	0	2.777441	2.778125	2.780176	2.78291	2.780859	2.777441	2.782227	2.777441	2.778809	2.780176	2.777441	2.780176	2.780176	2.780859	2.777441	2.776758
1639578717578	-51.24	-93.208	1008.696	0.35	-0.21	-0.42	-150	-28.5	-756	0	0	2.782227	2.778809	2.780176	2.776758	2.782227	2.778809	2.778809	2.78291	2.780859	2.780859	2.778125	2.778809	2.778809	2.780859	2.780859	2.777441
1639578717587	-50.264	-94.672	1006.744	0.21	-0.21	-0.49	-150	-25.5	-754.5	0	0	2.780176	2.780176	2.780176	2.778809	2.778125	2.782227	2.782227	2.778809	2.778125	2.778125	2.780859	2.776758	2.777441	2.777441	2.777441	2.780859
1639578717597	-37.088	-90.768	1005.28	0.49	-0.21	-0.56	-153	-24	-750	0	0	2.782227	2.780859	2.78291	2.777441	2.780176	2.782227	2.778809	2.778809	2.780859	2.778125	2.777441	2.777441	2.778125	2.780859	2.778809	2.776758
1639578717607	-41.48	-94.672	1024.312	0.07	-0.28	-0.35	-156	-22.5	-747	0	0	2.777441	2.778809	2.777441	2.778809	2.778809	2.778809	2.780859	2.78291	2.778809	2.778125	2.778125	2.778809	2.780859	2.776758	2.778125	2.778809
1639578717617	-49.776	-99.064	1004.304	0.21	-0.07	-0.7	-156	-21	-754.5	0	0	2.780859	2.780859	2.777441	2.780859	2.780859	2.780859	2.778125	2.777441	2.777441	2.780859	2.777441	2.778125	2.780176	2.777441	2.777441	2.778125
1639578717627	-44.896	-81.496	1014.552	0.42	-0.21	-0.42	-153	-21	-762	0	0	2.777441	2.777441	2.778809	2.778809	2.78291	2.778809	2.78291	2.780176	2.777441	2.778125	2.776758	2.777441	2.781543	2.777441	2.777441	2.778809
1639578717636	-49.776	-88.816	1018.456	0.28	0.14	-0.42	-145.5	-24	-756	0	0	2.778809	2.780176	2.777441	2.777441	2.782227	2.777441	2.782227	2.780859	2.781543	2.778125	2.777441	2.777441	2.778809	2.781543	2.778809	2.778809
1639578717646	-50.752	-90.28	1016.016	0.21	-0.28	-0.42	-142.5	-27	-757.5	0	0	2.780176	2.780176	2.778125	2.782227	2.777441	2.780176	2.777441	2.78291	2.778809	2.778125	2.778809	2.777441	2.777441	2.777441	2.778125	2.778809
1639578717656	-52.704	-80.52	1008.208	0.56	-0.07	-0.56	-151.5	-24	-756	0	0	2.778125	2.777441	2.78291	2.78291	2.781543	2.777441	2.780176	2.777441	2.777441	2.777441	2.778809	2.777441	2.778125	2.777441	2.777441	2.780859
1639578717666	-38.552	-89.792	1013.088	0.35	-0.21	-0.49	-157.5	-27	-751.5	0	0	2.78291	2.78291	2.778809	2.78291	2.778809	2.780176	2.780859	2.780859	2.780859	2.781543	2.777441	2.778125	2.780859	2.777441	2.780859	2.778125
1639578717675	-53.68	-78.568	1031.144	0.7	0	-0.49	-156	-33	-750	0	0	2.780176	2.780176	2.778809	2.780176	2.780176	2.780176	2.78291	2.777441	2.778809	2.777441	2.778125	2.777441	2.777441	2.778809	2.777441	2.780176
1639578717685	-46.848	-78.568	1006.744	0.21	-0.21	-0.42	-153	-24	-751.5	0	0	2.780176	2.780176	2.772656	2.779492	2.777441	2.780176	2.778809	2.771973	2.777441	2.777441	2.778125	2.780859	2.777441	2.780859	2.771973	2.766504
1639578717695	-51.728	-84.912	1008.208	0.14	-0.21	-0.56	-150	-21	-762	0	0	2.778809	2.777441	2.780176	2.780176	2.780176	2.777441	2.780859	2.778809	2.781543	2.780176	2.778809	2.776758	2.778125	2.780859	2.777441	2.778125
1639578717705	-34.16	-93.696	982.344	0.35	-0.07	-0.42	-151.5	-24	-759	0	0	2.777441	2.782227	2.780176	2.778125	2.782227	2.78291	2.777441	2.780176	2.780859	2.780859	2.782227	2.778125	2.781543	2.777441	2.776758	2.778809
1639578717714	-37.088	-92.72	1003.816	-0.21	-0.07	-0.49	-153	-25.5	-756	0	0	2.780859	2.780176	2.778125	2.782227	2.780176	2.780176	2.777441	2.780859	2.777441	2.776758	2.777441	2.777441	2.780176	2.780859	2.779492	2.780176
1639578717724	-37.088	-97.112	996.008	0.91	0.21	-0.49	-151.5	-28.5	-754.5	0	0	2.78291	2.780176	2.783594	2.776758	2.780859	2.782227	2.781543	2.780859	2.776758	2.777441	2.778809	2.776758	2.777441	2.778809	2.782227	2.778809
1639578717734	-39.528	-98.088	1009.672	0.56	-0.14	-0.28	-153	-27	-750	0	0	2.78291	2.777441	2.778809	2.780859	2.778125	2.780176	2.780859	2.778125	2.778125	2.778125	2.777441	2.778809	2.780859	2.776074	2.780859	2.778125
1639578717744	-55.632	-86.376	1008.696	0.35	-0.07	-0.56	-153	-24	-745.5	0	0	2.78291	2.78291	2.782227	2.778125	2.778809	2.78291	2.778809	2.780859	2.780859	2.778125	2.780859	2.777441	2.776758	2.777441	2.778809	2.778809
1639578717753	-57.584	-89.304	1001.864	0.77	0	-0.42	-148.5	-24	-747	0	0	2.778809	2.778809	2.778125	2.778809	2.783594	2.778809	2.777441	2.778125	2.778125	2.780859	2.777441	2.779492	2.780176	2.778809	2.777441	2.777441
1639578717763	-59.048	-78.08	995.52	0.21	-0.07	-0.42	-145.5	-31.5	-750	0	0	2.778809	2.778809	2.778809	2.780176	2.78291	2.777441	2.782227	2.78291	2.778809	2.778809	2.777441	2.778809	2.778125	2.780859	2.780859	2.780859
1639578717773	-42.456	-102.48	1014.064	0.07	-0.14	-0.56	-151.5	-36	-753	0	0	2.78291	2.778809	2.780859	2.776758	2.777441	2.782227	2.778809	2.778809	2.780859	2.777441	2.780859	2.776758	2.780176	2.778125	2.778125	2.777441
1639578717783	-34.16	-99.064	1021.872	0.7	-0.28	-0.56	-151.5	-27	-756	0	0	2.78291	2.780859	2.780176	2.78291	2.777441	2.782227	2.778809	2.780176	2.778809	2.778809	2.780859	2.778809	2.780859	2.777441	2.778809	2.778125
1639578717793	-43.432	-90.28	1024.312	-0.07	-0.14	-0.56	-150	-25.5	-756	0	0	2.778809	2.778809	2.780176	2.780176	2.780176	2.777441	2.780859	2.778125	2.776758	2.778809	2.778809	2.780859	2.778809	2.780859	2.778809	2.780859
1639578717802	-25.376	-90.768	1026.752	0.28	0.21	-0.56	-151.5	-24	-757.5	0	0	2.778809	2.780176	2.778809	2.778809	2.780176	2.777441	2.778809	2.782227	2.778125	2.776758	2.780859	2.780859	2.778809	2.780859	2.780859	2.778125
1639578717812	-38.552	-103.944	1015.04	0.49	-0.14	-0.56	-150	-24	-762	0	0	2.780176	2.78291	2.780176	2.78291	2.78291	2.782227	2.776758	2.777441	2.778809	2.782227	2.776758	2.777441	2.778809	2.778809	2.778809	2.780176
1639578717822	-48.312	-86.376	985.272	1.19	0.21	-0.49	-150	-30	-757.5	0	0	2.777441	2.78291	2.778125	2.776758	2.777441	2.778809	2.777441	2.78291	2.776074	2.778125	2.778125	2.777441	2.778809	2.778809	2.777441	2.780176
1639578717832	-43.432	-92.72	1000.4	0.14	-0.21	-0.42	-153	-30	-751.5	0	0	2.777441	2.782227	2.780176	2.778809	2.783594	2.778125	2.778809	2.778809	2.777441	2.780176	2.780859	2.778809	2.778125	2.778809	2.780859	2.780176
1639578717841	-55.632	-104.92	1025.288	0.49	-0.28	-0.49	-154.5	-31.5	-750	0	0	2.778125	2.778809	2.776758	2.778809	2.780859	2.782227	2.78291	2.780176	2.780176	2.778125	2.779492	2.778809	2.778809	2.777441	2.778809	2.778809
1639578717851	-46.36	-72.712	1001.376	0.49	-0.07	-0.42	-151.5	-27	-748.5	0	0	2.780859	2.782227	2.78291	2.777441	2.780176	2.779492	2.776758	2.776758	2.777441	2.776758	2.780176	2.778125	2.780859	2.780859	2.780859	2.778809
1639578717861	-39.528	-85.888	1006.256	-0.07	0.14	-0.56	-148.5	-19.5	-756	0	0	2.777441	2.782227	2.778125	2.78291	2.777441	2.782227	2.777441	2.780859	2.778809	2.778809	2.780859	2.777441	2.777441	2.778809	2.777441	2.777441
1639578717871	-55.632	-92.72	1005.768	0.21	0.07	-0.7	-147	-21	-759	0	0	2.782227	2.782227	2.782227	2.777441	2.780176	2.78291	2.780176	2.778125	2.777441	2.778809	2.780859	2.780859	2.777441	2.781543	2.777441	2.782227
1639578717880	-60.512	-94.184	993.08	1.05	0.14	-0.63	-151.5	-27	-763.5	0	0	2.778809	2.777441	2.78291	2.782227	2.78291	2.780859	2.780176	2.78291	2.780176	2.778809	2.778809	2.779492	2.78291	2.777441	2.778125	2.778809
1639578717890	-36.112	-97.112	999.424	0.14	-0.28	-0.56	-153	-27	-760.5	0	0	2.777441	2.782227	2.778125	2.782227	2.782227	2.778809	2.780859	2.780859	2.777441	2.778809	2.778809	2.778125	2.777441	2.778809	2.780176	2.778809
1639578717900	-36.6	-94.184	984.784	0.35	-0.07	-0.49	-150	-24	-754.5	0	0	2.780176	2.780176	2.777441	2.780176	2.776758	2.780859	2.78291	2.780859	2.777441	2.778809	2.778125	2.778809	2.776758	2.780176	2.781543	2.778809
1639578717910	-46.848	-96.136	1007.232	1.12	0.35	-0.49	-153	-27	-754.5	0	0	2.777441	2.780859	2.782227	2.780859	2.78291	2.778809	2.780176	2.780859	2.777441	2.778809	2.778125	2.778809	2.777441	2.777441	2.777441	2.778809
1639578717919	-54.168	-92.72	1017.968	0.63	0.21	-0.49	-154.5	-25.5	-751.5	0	0	2.781543	2.778125	2.782227	2.780176	2.778809	2.778809	2.780859	2.780176	2.780859	2.778809	2.778125	2.780176	2.782227	2.782227	2.780176	2.778809
1639578717929	-50.264	-90.768	1005.28	0.14	0.21	-0.42	-153	-27	-754.5	0	0	2.782227	2.780176	2.778125	2.78291	2.780859	2.780176	2.780859	2.778125	2.777441	2.777441	2.778125	2.778125	2.776758	2.782227	2.778125	2.778809
1639578717939	-49.288	-80.032	1007.72	0.84	-0.14	-0.49	-153	-27	-754.5	0	0	2.780859	2.777441	2.780859	2.777441	2.78291	2.782227	2.780176	2.778809	2.776758	2.777441	2.777441	2.778809	2.777441	2.777441	2.782227	2.780859
1639578717949	-46.848	-81.008	1001.864	0.28	-0.14	-0.42	-153	-34.5	-760.5	0	0	2.777441	2.780859	2.780859	2.780859	2.778125	2.780859	2.783594	2.778809	2.778125	2.778125	2.777441	2.778809	2.780176	2.777441	2.780859	2.777441
1639578717959	-49.288	-95.16	997.96	-0.28	-0.07	-0.42	-156	-31.5	-759	0	0	2.780176	2.778125	2.778125	2.779492	2.780859	2.778809	2.780859	2.778809	2.778809	2.777441	2.782227	2.780176	2.778809	2.778809	2.778809	2.780859
1639578717968	-42.944	-97.6	1000.888	0.7	-0.14	-0.63	-153	-27	-754.5	0	0	2.783594	2.778809	2.777441	2.778809	2.783594	2.78291	2.778809	2.78291	2.780859	2.778809	2.778125	2.780176	2.776074	2.780859	2.780176	2.778125
1639578717978	-55.632	-94.672	1016.504	0.42	-0.14	-0.63	-147	-24	-756	0	0	2.778809	2.777441	2.780176	2.778809	2.778125	2.777441	2.781543	2.777441	2.780176	2.777441	2.778125	2.778809	2.777441	2.780859	2.780859	2.777441
1639578717988	-47.824	-98.576	1001.376	-0.07	-0.21	-0.63	-148.5	-27	-753	0	0	2.780176	2.777441	2.778809	2.78291	2.778809	2.778809	2.777441	2.777441	2.778125	2.777441	2.778809	2.776758	2.781543	2.778809	2.778125	2.778809
1639578717998	-50.752	-92.72	996.008	0.98	-0.14	-0.49	-148.5	-31.5	-748.5	0	0	2.778125	2.780859	2.777441	2.782227	2.778809	2.778809	2.777441	2.780176	2.780859	2.781543	2.781543	2.778125	2.778809	2.780859	2.778809	2.777441
1639578718007	-39.04	-85.4	1011.624	0.49	-0.07	-0.49	-150	-33	-756	0	0	2.780176	2.774707	2.780176	2.778125	2.780859	2.780176	2.778809	2.780859	2.778809	2.774707	2.780859	2.778125	2.780859	2.777441	2.780859	2.777441
1639578718017	-46.36	-90.28	1014.552	-0.07	0.07	-0.7	-150	-27	-756	0	0	2.778809	2.78291	2.778809	2.777441	2.782227	2.781543	2.780176	2.780176	2.780859	2.777441	2.778809	2.780859	2.780176	2.776758	2.778125	2.777441
1639578718027	-46.36	-86.864	999.912	0.77	-0.07	-0.56	-151.5	-25.5	-751.5	0	0	2.780176	2.780176	2.782227	2.778809	2.778809	2.778125	2.780176	2.776758	2.777441	2.781543	2.780176	2.780859	2.777441	2.778125	2.778809	2.778809
1639578718037	-40.016	-82.472	1016.992	0.35	-0.42	-0.56	-156	-27	-754.5	0	0	2.777441	2.782227	2.778809	2.782227	2.780859	2.780859	2.780859	2.777441	2.776758	2.777441	2.780859	2.777441	2.780859	2.777441	2.778125	2.777441
1639578718046	-43.92	-85.888	1011.624	0.07	-0.07	-0.49	-162	-24	-757.5	0	0	2.777441	2.780859	2.780176	2.780859	2.780176	2.780176	2.780859	2.780859	2.778809	2.778125	2.778809	2.780859	2.780859	2.781543	2.778125	2.777441
1639578718056	-43.92	-87.352	1005.28	0.56	-0.07	-0.49	-157.5	-27	-753	0	0	2.780176	2.782227	2.777441	2.782227	2.781543	2.781543	2.780859	2.780859	2.777441	2.777441	2.777441	2.781543	2.778125	2.780859	2.776758	2.778125
1639578718066	-43.432	-92.232	1024.312	0.42	-0.14	-0.42	-151.5	-30	-748.5	0	0	2.782227	2.780859	2.777441	2.778125	2.782227	2.777441	2.780859	2.778125	2.777441	2.778125	2.778125	2.780859	2.778809	2.778809	2.777441	2.778809
1639578718076	-36.6	-99.552	1014.064	-0.07	-0.21	-0.49	-154.5	-28.5	-751.5	0	0	2.780859	2.780859	2.78291	2.780859	2.783594	2.78291	2.778125	2.780176	2.780176	2.776758	2.778809	2.777441	2.778809	2.779492	2.780176	2.777441
1639578718086	-44.408	-94.184	1005.28	0.56	-0.07	-0.56	-151.5	-34.5	-754.5	0	0	2.780176	2.780859	2.780176	2.778809	2.778809	2.778809	2.780176	2.778125	2.781543	2.777441	2.778809	2.777441	2.777441	2.778125	2.777441	2.778809
1639578718095	-48.312	-87.352	1011.624	0.21	-0.07	-0.42	-150	-31.5	-757.5	0	0	2.78291	2.778809	2.78291	2.778809	2.780176	2.780176	2.778809	2.778809	2.782227	2.780176	2.781543	2.780176	2.780859	2.777441	2.776758	2.778125
1639578718105	-55.632	-85.4	1002.84	0.77	0	-0.42	-153	-27	-762	0	0	2.777441	2.778809	2.777441	2.780859	2.780859	2.777441	2.78291	2.778125	2.778809	2.777441	2.777441	2.777441	2.780859	2.777441	2.778809	2.778125
1639578718115	-54.168	-87.352	996.008	-0.07	-0.07	-0.56	-153	-25.5	-756	0	0	2.780176	2.780176	2.780859	2.782227	2.777441	2.78291	2.78291	2.778809	2.780859	2.780859	2.777441	2.778125	2.778125	2.778125	2.780859	2.781543
1639578718125	-52.704	-92.72	994.056	-0.07	-0.28	-0.42	-151.5	-18	-751.5	0	0	2.78291	2.780859	2.776758	2.782227	2.777441	2.780859	2.780859	2.778809	2.778809	2.780176	2.777441	2.780859	2.777441	2.780859	2.778809	2.778809
1639578718134	-48.312	-91.744	1005.768	0.77	-0.28	-0.49	-150	-22.5	-756	0	0	2.782227	2.782227	2.782227	2.778809	2.780176	2.780176	2.780176	2.780176	2.778125	2.778809	2.778125	2.777441	2.777441	2.778809	2.777441	2.780859
1639578718144	-44.408	-94.184	1026.264	0.56	-0.28	-0.49	-150	-28.5	-753	0	0	2.778809	2.778809	2.780176	2.777441	2.780176	2.780176	2.782227	2.782227	2.778809	2.777441	2.780859	2.778125	2.778809	2.778809	2.780859	2.777441
1639578718154	-39.528	-100.04	1007.232	-0.35	-0.14	-0.63	-148.5	-27	-756	0	0	2.780176	2.782227	2.777441	2.780859	2.780859	2.780176	2.782227	2.78291	2.780176	2.777441	2.778809	2.777441	2.780859	2.780859	2.777441	2.780859
1639578718164	-46.36	-95.648	1015.04	0.63	-0.14	-0.56	-147	-27	-756	0	0	2.777441	2.78291	2.777441	2.780176	2.780176	2.781543	2.777441	2.780176	2.777441	2.780859	2.780176	2.777441	2.777441	2.782227	2.778125	2.777441
1639578718173	-46.848	-90.28	1021.872	0.35	-0.07	-0.49	-154.5	-31.5	-751.5	0	0	2.777441	2.780176	2.780859	2.781543	2.777441	2.780176	2.780859	2.777441	2.778125	2.780859	2.778125	2.777441	2.777441	2.778809	2.778809	2.776758
1639578718183	-44.896	-90.28	999.912	0	-0.07	-0.49	-159	-28.5	-751.5	0	0	2.778809	2.778809	2.782227	2.778125	2.778809	2.777441	2.78291	2.780859	2.780176	2.777441	2.778125	2.778809	2.778809	2.780859	2.780859	2.780859
1639578718193	-49.288	-93.208	993.568	0.84	-0.07	-0.35	-153	-24	-759	0	0	2.778809	2.780859	2.782227	2.780176	2.78291	2.780176	2.78291	2.777441	2.778809	2.780176	2.780176	2.778125	2.777441	2.777441	2.780176	2.778125
1639578718203	-47.336	-88.328	1005.768	0.14	-0.28	-0.49	-153	-24	-757.5	0	0	2.778125	2.778809	2.780176	2.782227	2.778809	2.780859	2.780176	2.777441	2.780859	2.780176	2.778125	2.778125	2.777441	2.776758	2.777441	2.777441
1639578718212	-46.848	-81.984	998.936	0.21	-0.21	-0.49	-151.5	-25.5	-756	0	0	2.780859	2.78291	2.780859	2.778809	2.780176	2.780176	2.781543	2.782227	2.777441	2.780859	2.778125	2.778125	2.778809	2.780859	2.778125	2.780859
1639578718222	-46.848	-81.984	999.424	0.35	-0.14	-0.49	-151.5	-27	-754.5	0	0	2.780176	2.777441	2.78291	2.777441	2.777441	2.777441	2.781543	2.78291	2.776758	2.780176	2.780176	2.778809	2.777441	2.777441	2.778125	2.778125
1639578718232	-46.848	-92.72	1012.6	-0.07	-0.21	-0.7	-151.5	-24	-753	0	0	2.782227	2.78291	2.778809	2.778809	2.777441	2.778125	2.780859	2.777441	2.777441	2.778809	2.780859	2.778809	2.778125	2.777441	2.780176	2.780176
1639578718242	-42.944	-96.136	1014.552	0.63	-0.14	-0.56	-153	-21	-759	0	0	2.782227	2.778125	2.777441	2.780176	2.778809	2.777441	2.780176	2.780176	2.778125	2.777441	2.780176	2.777441	2.778809	2.777441	2.776758	2.778125
1639578718252	-46.36	-94.672	1016.504	0.35	-0.14	-0.63	-151.5	-25.5	-754.5	0	0	2.782227	2.78291	2.783594	2.778809	2.780176	2.777441	2.778809	2.778125	2.777441	2.778809	2.778125	2.778125	2.778125	2.778809	2.778809	2.780859
1639578718261	-50.752	-87.84	1002.84	0.42	0	-0.63	-153	-27	-744	0	0	2.780859	2.780859	2.780176	2.780859	2.777441	2.780859	2.780176	2.777441	2.780859	2.776758	2.778809	2.778125	2.777441	2.777441	2.777441	2.783594
1639578718271	-49.776	-93.208	1000.4	0.49	0.14	-0.42	-156	-24	-751.5	0	0	2.778125	2.780859	2.778809	2.78291	2.777441	2.782227	2.778809	2.778809	2.780859	2.777441	2.778125	2.777441	2.780859	2.776758	2.778809	2.780859
1639578718281	-52.216	-85.888	1001.864	-0.07	0	-0.49	-153	-24	-756	0	0	2.782227	2.777441	2.780176	2.782227	2.780859	2.780859	2.782227	2.778809	2.778125	2.777441	2.780859	2.780859	2.778809	2.780859	2.778809	2.778809
1639578718291	-51.728	-87.84	996.496	0.42	-0.07	-0.42	-150	-28.5	-754.5	0	0	2.778809	2.783594	2.777441	2.780859	2.782227	2.778125	2.777441	2.778125	2.778809	2.780176	2.780176	2.778809	2.780176	2.777441	2.777441	2.778125
1639578718300	-50.752	-91.256	1002.84	0.56	-0.14	-0.42	-150	-33	-751.5	0	0	2.778125	2.780176	2.782227	2.778809	2.777441	2.78291	2.778809	2.778809	2.778125	2.780859	2.777441	2.778809	2.778809	2.780859	2.778809	2.777441
1639578718310	-43.432	-89.304	1005.28	0.14	-0.21	-0.63	-156	-31.5	-750	0	0	2.780176	2.782227	2.778809	2.782227	2.780176	2.778809	2.777441	2.778809	2.782227	2.780859	2.778125	2.781543	2.776758	2.780176	2.780859	2.777441
1639578718320	-43.92	-97.112	1006.256	0.28	-0.21	-0.49	-159	-28.5	-756	0	0	2.777441	2.780176	2.777441	2.780176	2.782227	2.780176	2.782227	2.780859	2.777441	2.777441	2.777441	2.776758	2.778809	2.782227	2.778125	2.780176
1639578718330	-39.528	-94.184	1015.04	0.35	-0.07	-0.49	-159	-28.5	-756	0	0	2.778809	2.777441	2.780176	2.780176	2.780176	2.780859	2.778125	2.780176	2.776758	2.780176	2.780859	2.778809	2.777441	2.777441	2.777441	2.780176
1639578718339	-36.112	-89.792	1015.04	0.07	-0.07	-0.63	-156	-30	-756	0	0	2.780176	2.782227	2.780176	2.778809	2.780859	2.771289	2.780176	2.780859	2.778125	2.778809	2.778809	2.777441	2.769238	2.778125	2.778809	2.777441
1639578718349	-46.848	-92.232	1010.16	0.21	-0.07	-0.49	-151.5	-33	-756	0	0	2.778809	2.780859	2.777441	2.780859	2.780176	2.780176	2.778809	2.777441	2.777441	2.778125	2.778809	2.778809	2.780176	2.777441	2.778809	2.778125
1639578718359	-45.384	-90.28	1006.744	0.35	-0.21	-0.56	-148.5	-33	-757.5	0	0	2.778809	2.777441	2.778125	2.778809	2.780176	2.780859	2.780859	2.778809	2.778125	2.777441	2.777441	2.780859	2.777441	2.780176	2.782227	2.780176
1639578718369	-45.872	-87.84	1003.816	0.49	-0.14	-0.42	-153	-28.5	-750	0	0	2.782227	2.780176	2.780176	2.780859	2.778125	2.780176	2.781543	2.778809	2.780859	2.776758	2.776758	2.776758	2.777441	2.780176	2.780859	2.778809
1639578718378	-50.752	-85.888	1005.28	-0.21	0.07	-0.49	-151.5	-27	-751.5	0	0	2.783594	2.778809	2.780176	2.780176	2.777441	2.778809	2.780176	2.78291	2.780176	2.777441	2.778125	2.781543	2.780176	2.778125	2.777441	2.778809
1639578718388	-50.752	-94.672	1005.768	0.49	-0.07	-0.56	-154.5	-28.5	-756	0	0	2.780859	2.777441	2.780176	2.780859	2.778809	2.780176	2.78291	2.782227	2.780176	2.777441	2.777441	2.780176	2.777441	2.776758	2.779492	2.776758
1639578718398	-47.824	-97.112	1011.136	0.35	-0.14	-0.49	-153	-28.5	-750	0	0	2.780176	2.777441	2.78291	2.780176	2.780176	2.780176	2.78291	2.78291	2.778809	2.780176	2.780859	2.777441	2.777441	2.777441	2.778809	2.778809
1639578718408	-50.752	-98.576	1008.208	-0.14	-0.35	-0.56	-148.5	-30	-748.5	0	0	2.781543	2.782227	2.780176	2.782227	2.782227	2.78291	2.778125	2.78291	2.780859	2.778125	2.780176	2.780859	2.780859	2.780859	2.782227	2.777441
1639578718418	-42.944	-94.672	1011.136	0.7	-0.21	-0.35	-145.5	-33	-748.5	0	0	2.778125	2.777441	2.78291	2.777441	2.783594	2.780859	2.780176	2.780176	2.777441	2.778125	2.778125	2.778809	2.778125	2.780859	2.778809	2.778809
1639578718427	-41.968	-91.744	1014.552	0.35	-0.07	-0.56	-142.5	-25.5	-750	0	0	2.783594	2.778125	2.780176	2.780176	2.778809	2.780176	2.777441	2.778809	2.780859	2.780176	2.782227	2.778125	2.782227	2.778809	2.781543	2.778809
1639578718437	-41.968	-84.424	1008.208	0	0.07	-0.49	-147	-24	-757.5	0	0	2.782227	2.778809	2.780176	2.782227	2.778809	2.778125	2.78291	2.777441	2.778809	2.776758	2.778125	2.777441	2.780176	2.778809	2.777441	2.780176
1639578718447	-45.384	-94.672	1009.672	0.35	0.07	-0.49	-150	-25.5	-762	0	0	2.78291	2.780859	2.778809	2.780859	2.780859	2.780176	2.780176	2.782227	2.778125	2.778125	2.778809	2.778125	2.780176	2.778809	2.778809	2.777441
1639578718457	-47.336	-89.304	1010.16	0.42	0	-0.42	-154.5	-25.5	-763.5	0	0	2.781543	2.781543	2.778809	2.782227	2.78291	2.782227	2.777441	2.782227	2.778125	2.778125	2.777441	2.780859	2.782227	2.780176	2.778125	2.778125
1639578718466	-41.968	-83.448	1005.768	0	-0.07	-0.49	-153	-28.5	-756	0	0	2.780176	2.776758	2.777441	2.777441	2.781543	2.78291	2.782227	2.780859	2.777441	2.778125	2.778809	2.777441	2.780859	2.777441	2.780176	2.778809
1639578718476	-43.432	-83.448	1004.304	0.49	-0.21	-0.49	-147	-25.5	-748.5	0	0	2.778809	2.778125	2.780176	2.777441	2.777441	2.778809	2.777441	2.780859	2.781543	2.781543	2.780176	2.777441	2.777441	2.777441	2.780176	2.778125
1639578718486	-45.384	-90.768	1009.184	0.56	-0.14	-0.49	-147	-24	-756	0	0	2.777441	2.78291	2.778809	2.778809	2.778809	2.780859	2.777441	2.780176	2.779492	2.780859	2.778125	2.781543	2.776758	2.777441	2.777441	2.778809
1639578718496	-41.48	-89.304	1007.232	-0.07	-0.14	-0.56	-148.5	-28.5	-759	0	0	2.782227	2.777441	2.777441	2.780176	2.778809	2.780859	2.780859	2.778125	2.780176	2.782227	2.781543	2.777441	2.778809	2.778125	2.780859	2.777441
1639578718505	-47.824	-94.184	1007.232	0.35	-0.14	-0.49	-145.5	-28.5	-754.5	0	0	2.780176	2.780859	2.780176	2.78291	2.777441	2.782227	2.78291	2.780176	2.776758	2.776758	2.780176	2.780859	2.777441	2.778809	2.781543	2.780859
1639578718515	-43.92	-96.136	1013.576	0.49	-0.14	-0.49	-150	-31.5	-753	0	0	2.782227	2.780859	2.777441	2.777441	2.777441	2.780176	2.778809	2.780176	2.777441	2.777441	2.778125	2.778809	2.777441	2.777441	2.778809	2.777441
1639578718525	-49.288	-98.088	1009.184	0.07	-0.07	-0.56	-151.5	-34.5	-751.5	0	0	2.782227	2.780859	2.780176	2.780176	2.78291	2.782227	2.780176	2.782227	2.780176	2.777441	2.780859	2.777441	2.780176	2.780176	2.778809	2.777441
1639578718535	-42.944	-91.744	1008.696	0.49	-0.07	-0.49	-151.5	-34.5	-757.5	0	0	2.777441	2.778125	2.777441	2.780176	2.776758	2.780859	2.78291	2.777441	2.782227	2.780859	2.777441	2.777441	2.776758	2.777441	2.781543	2.778125
1639578718544	-48.8	-89.304	1005.768	0.49	0	-0.56	-150	-31.5	-757.5	0	0	2.782227	2.780859	2.780176	2.777441	2.78291	2.78291	2.780859	2.78291	2.779492	2.776758	2.777441	2.778809	2.778809	2.777441	2.780176	2.777441
1639578718554	-51.728	-87.84	1007.232	0.28	-0.07	-0.49	-151.5	-25.5	-753	0	0	2.778125	2.780176	2.782227	2.782227	2.782227	2.782227	2.778809	2.778809	2.778125	2.777441	2.778809	2.777441	2.778125	2.781543	2.778125	2.777441
1639578718564	-50.752	-88.328	1004.792	0.35	-0.14	-0.56	-157.5	-22.5	-753	0	0	2.780176	2.778809	2.778125	2.780176	2.778809	2.776758	2.780176	2.782227	2.777441	2.777441	2.780859	2.777441	2.777441	2.777441	2.777441	2.780859
1639578718574	-43.432	-83.936	1009.672	0.35	-0.07	-0.49	-151.5	-24	-753	0	0	2.778809	2.778809	2.780859	2.78291	2.780176	2.78291	2.780176	2.78291	2.776758	2.778809	2.780859	2.776758	2.778809	2.780859	2.780859	2.777441
1639578718584	-42.944	-94.184	1008.696	0.35	-0.07	-0.49	-150	-27	-751.5	0	0	2.778809	2.780176	2.778809	2.780859	2.777441	2.780176	2.780176	2.777441	2.782227	2.776758	2.780859	2.777441	2.782227	2.777441	2.780859	2.777441
1639578718593	-45.872	-94.184	1008.696	0.14	-0.14	-0.56	-153	-27	-753	0	0	2.780176	2.777441	2.778809	2.777441	2.782227	2.777441	2.782227	2.783594	2.780859	2.780859	2.778809	2.780176	2.778809	2.778809	2.778809	2.778809
1639578718603	-43.432	-90.768	1007.232	0.35	-0.07	-0.49	-150	-25.5	-753	0	0	2.780176	2.777441	2.778809	2.778809	2.782227	2.783594	2.782227	2.777441	2.776758	2.777441	2.777441	2.778809	2.776758	2.780859	2.780859	2.778809
1639578718613	-48.312	-91.256	1009.672	0.35	-0.07	-0.49	-144	-25.5	-748.5	0	0	2.777441	2.78291	2.782227	2.780176	2.78291	2.777441	2.782227	2.780859	2.778125	2.778809	2.780176	2.777441	2.777441	2.780176	2.780176	2.780859
1639578718623	-50.264	-88.816	1009.184	0.28	-0.07	-0.49	-144	-27	-754.5	0	0	2.778809	2.780859	2.780176	2.780176	2.780859	2.780176	2.780176	2.782227	2.778125	2.780859	2.778809	2.780176	2.778809	2.778809	2.778809	2.780859
1639578718632	-50.752	-89.304	1008.696	0.35	-0.07	-0.42	-151.5	-25.5	-760.5	0	0	2.780176	2.78291	2.78291	2.780859	2.782227	2.780176	2.78291	2.780859	2.781543	2.778809	2.780859	2.778125	2.778809	2.778125	2.780859	2.776758
1639578718642	-50.264	-89.792	1006.256	0.28	-0.07	-0.56	-156	-25.5	-753	0	0	2.777441	2.780859	2.780176	2.782227	2.78291	2.780176	2.782227	2.780176	2.780176	2.777441	2.778809	2.778125	2.778809	2.777441	2.782227	2.777441
1639578718652	-48.8	-88.328	1006.256	0.21	-0.14	-0.42	-151.5	-27	-753	0	0	2.780176	2.780176	2.777441	2.780176	2.778125	2.780176	2.780176	2.782227	2.776758	2.778809	2.778809	2.778809	2.778125	2.778125	2.778809	2.777441
1639578718662	-41.48	-90.28	1002.352	0.21	-0.14	-0.49	-144	-24	-753	0	0	2.778125	2.778809	2.778809	2.774707	2.777441	2.778809	2.780176	2.777441	2.777441	2.776758	2.768555	2.770605	2.777441	2.777441	2.778809	2.780176
1639578718671	-46.848	-88.816	1006.744	0.42	-0.14	-0.49	-147	-25.5	-754.5	0	0	2.780859	2.782227	2.780859	2.778809	2.780176	2.778809	2.78291	2.780176	2.778809	2.778125	2.780859	2.780176	2.778809	2.778809	2.780176	2.782227
1639578718681	-46.848	-96.136	1011.136	0.21	-0.14	-0.42	-148.5	-28.5	-756	0	0	2.780176	2.780176	2.778125	2.777441	2.780859	2.778809	2.782227	2.780176	2.777441	2.777441	2.777441	2.776758	2.780176	2.777441	2.780859	2.778125
1639578718691	-50.264	-89.792	1012.112	0.14	-0.14	-0.56	-142.5	-31.5	-756	0	0	2.778809	2.777441	2.778809	2.780176	2.781543	2.780176	2.777441	2.780859	2.780859	2.778125	2.778809	2.778809	2.776074	2.780859	2.777441	2.780176
1639578718701	-46.848	-93.208	1010.16	0.28	-0.07	-0.56	-142.5	-36	-754.5	0	0	2.780176	2.78291	2.78291	2.780176	2.778809	2.780176	2.778809	2.780176	2.777441	2.777441	2.777441	2.781543	2.778809	2.777441	2.777441	2.780859
1639578718711	-52.216	-90.28	1009.672	0.28	-0.07	-0.49	-153	-30	-751.5	0	0	2.782227	2.780859	2.780859	2.780176	2.777441	2.778809	2.782227	2.778809	2.777441	2.780859	2.778809	2.778125	2.778809	2.778809	2.780859	2.780859
1639578718720	-49.776	-93.696	1002.352	0	0	-0.35	-153	-30	-751.5	0	0	2.778809	2.780176	2.778809	2.780176	2.778125	2.778125	2.78291	2.780859	2.780176	2.777441	2.780859	2.780176	2.781543	2.777441	2.781543	2.780859
1639578718730	-57.096	-86.864	1001.376	0.56	-0.07	-0.56	-156	-24	-753	0	0	2.78291	2.778125	2.778809	2.782227	2.778125	2.778125	2.782227	2.780176	2.778125	2.780176	2.777441	2.777441	2.780859	2.778125	2.782227	2.778809
1639578718740	-49.288	-87.352	1010.648	0.63	-0.14	-0.42	-153	-28.5	-748.5	0	0	2.780176	2.78291	2.78291	2.782227	2.780176	2.782227	2.777441	2.780859	2.777441	2.777441	2.778809	2.780859	2.776758	2.778809	2.780859	2.778809
1639578718750	-44.896	-87.352	1006.744	-0.35	-0.07	-0.56	-147	-30	-748.5	0	0	2.780176	2.783594	2.78291	2.780859	2.780176	2.778809	2.782227	2.778125	2.777441	2.777441	2.777441	2.780176	2.776758	2.780859	2.777441	2.778125
1639578718759	-45.872	-97.6	1004.304	-0.14	-0.14	-0.77	-145.5	-28.5	-751.5	0	0	2.778809	2.780176	2.777441	2.782227	2.780176	2.780859	2.777441	2.78291	2.778809	2.780859	2.778809	2.776758	2.780176	2.780176	2.780859	2.777441
1639578718769	-44.896	-88.328	1004.792	1.19	-0.14	-0.42	-148.5	-28.5	-753	0	0	2.780176	2.778809	2.782227	2.780859	2.780176	2.782227	2.778809	2.778809	2.778809	2.780859	2.778809	2.780859	2.777441	2.777441	2.777441	2.780859
1639578718779	-43.92	-89.304	1016.992	0.28	-0.07	-0.56	-151.5	-31.5	-756	0	0	2.777441	2.777441	2.778125	2.780859	2.782227	2.780859	2.778125	2.777441	2.780859	2.777441	2.778125	2.782227	2.778809	2.778809	2.780859	2.777441
1639578718789	-44.408	-97.112	1011.624	-0.49	-0.07	-0.56	-156	-31.5	-756	0	0	2.780176	2.78291	2.778125	2.780859	2.777441	2.782227	2.780859	2.778125	2.782227	2.776758	2.781543	2.778809	2.778125	2.777441	2.779492	2.780176
1639578718798	-47.824	-97.112	1006.744	0.91	-0.07	-0.49	-154.5	-28.5	-756	0	0	2.778125	2.782227	2.780176	2.780176	2.781543	2.782227	2.780859	2.777441	2.778125	2.780859	2.778809	2.776758	2.780859	2.782227	2.780859	2.778125
1639578718808	-41.48	-84.912	1013.088	0.49	-0.14	-0.42	-151.5	-27	-759	0	0	2.777441	2.781543	2.782227	2.780176	2.780176	2.780176	2.78291	2.778809	2.777441	2.777441	2.778809	2.780176	2.777441	2.777441	2.778809	2.778809
1639578718818	-52.704	-90.768	1003.816	-0.35	0	-0.56	-148.5	-24	-762	0	0	2.780176	2.777441	2.778125	2.782227	2.780176	2.778809	2.780176	2.78291	2.778809	2.778125	2.778125	2.777441	2.777441	2.780176	2.780859	2.777441
1639578718828	-52.216	-86.376	1007.72	0.7	-0.14	-0.56	-151.5	-21	-757.5	0	0	2.778809	2.780176	2.78291	2.780176	2.780859	2.778125	2.780176	2.778809	2.782227	2.778125	2.778809	2.778809	2.778125	2.781543	2.780859	2.777441
1639578718837	-45.384	-91.256	1009.184	0.49	-0.14	-0.49	-150	-18	-751.5	0	0	2.778809	2.778125	2.778809	2.777441	2.781543	2.778809	2.780176	2.781543	2.777441	2.780859	2.780176	2.778125	2.777441	2.777441	2.778809	2.778125
1639578718847	-46.36	-94.672	1007.232	-0.35	-0.14	-0.63	-145.5	-16.5	-754.5	0	0	2.78291	2.782227	2.780859	2.78291	2.777441	2.780176	2.782227	2.780859	2.778125	2.778125	2.778125	2.781543	2.778125	2.780176	2.778809	2.780176
1639578718857	-43.92	-95.648	1000.4	0.63	-0.14	-0.49	-147	-27	-762	0	0	2.777441	2.778809	2.78291	2.780859	2.779492	2.780176	2.780859	2.780859	2.779492	2.778809	2.780859	2.778125	2.778125	2.778125	2.777441	2.777441
1639578718867	-42.944	-84.912	1012.6	0.63	-0.07	-0.42	-147	-33	-766.5	0	0	2.780859	2.782227	2.777441	2.780176	2.782227	2.778125	2.778125	2.782227	2.777441	2.777441	2.782227	2.780176	2.778809	2.780859	2.782227	2.777441
1639578718877	-37.576	-91.256	1008.208	-0.21	-0.07	-0.56	-150	-31.5	-759	0	0	2.782227	2.782227	2.782227	2.780859	2.778809	2.778125	2.78291	2.777441	2.777441	2.777441	2.778125	2.778809	2.778125	2.778809	2.777441	2.778809
1639578718886	-42.944	-94.672	1000.4	0.49	-0.14	-0.49	-151.5	-28.5	-753	0	0	2.777441	2.780176	2.782227	2.777441	2.777441	2.78291	2.778125	2.78291	2.778125	2.778125	2.778125	2.780176	2.778125	2.778809	2.778125	2.780859
1639578718896	-43.432	-91.744	1009.672	0.63	-0.14	-0.49	-151.5	-27	-754.5	0	0	2.782227	2.777441	2.778809	2.778125	2.777441	2.778809	2.782227	2.780176	2.780176	2.778809	2.778125	2.778809	2.777441	2.780859	2.777441	2.777441
1639578718906	-44.896	-95.648	1011.624	-0.14	-0.14	-0.56	-156	-34.5	-762	0	0	2.777441	2.777441	2.780859	2.780176	2.782227	2.778125	2.780176	2.780176	2.780176	2.780859	2.780859	2.778809	2.781543	2.780859	2.780176	2.778125
1639578718916	-49.288	-90.768	1004.792	0.42	0	-0.56	-157.5	-33	-760.5	0	0	2.777441	2.778125	2.78291	2.778809	2.777441	2.780176	2.777441	2.777441	2.780859	2.782227	2.777441	2.778809	2.777441	2.777441	2.778809	2.777441
1639578718925	-52.216	-96.136	1011.136	0.56	0.07	-0.63	-154.5	-22.5	-754.5	0	0	2.780859	2.783594	2.778125	2.782227	2.780176	2.777441	2.780176	2.777441	2.778125	2.777441	2.777441	2.780859	2.778125	2.778809	2.780176	2.776758
1639578718935	-51.24	-94.672	1004.792	0.28	0	-0.63	-153	-24	-756	0	0	2.782227	2.777441	2.778809	2.780859	2.780859	2.781543	2.780859	2.78291	2.778809	2.776758	2.778809	2.778809	2.782227	2.780176	2.778125	2.780176
1639578718945	-49.776	-96.624	1004.304	0.35	0	-0.63	-151.5	-28.5	-753	0	0	2.777441	2.780176	2.778809	2.780176	2.78291	2.78291	2.778809	2.778809	2.780859	2.778125	2.780859	2.780859	2.777441	2.777441	2.776074	2.780859
1639578718955	-49.288	-92.232	1010.648	0.63	-0.21	-0.49	-156	-24	-753	0	0	2.783594	2.780176	2.778809	2.777441	2.778809	2.780176	2.780176	2.780176	2.777441	2.778125	2.777441	2.777441	2.778809	2.778809	2.776758	2.778809
1639578718964	-43.92	-88.328	1006.744	0.14	-0.21	-0.49	-157.5	-24	-759	0	0	2.780176	2.778809	2.78291	2.782227	2.78291	2.777441	2.780859	2.780176	2.778809	2.778809	2.776758	2.777441	2.778809	2.780859	2.777441	2.777441
1639578718974	-44.408	-87.84	1004.792	0.21	0	-0.49	-151.5	-30	-754.5	0	0	2.780859	2.780176	2.782227	2.782227	2.777441	2.778809	2.778809	2.778809	2.777441	2.780859	2.778809	2.782227	2.777441	2.777441	2.777441	2.777441
1639578718984	-43.92	-82.96	1009.672	0.49	-0.07	-0.49	-147	-33	-753	0	0	2.777441	2.780859	2.777441	2.780176	2.776758	2.780859	2.780176	2.780176	2.772656	2.777441	2.778809	2.782227	2.778809	2.778125	2.780859	2.780859
1639578718994	-52.704	-90.28	1007.232	0.21	-0.07	-0.56	-141	-25.5	-759	0	0	2.778809	2.778125	2.777441	2.780176	2.777441	2.782227	2.780176	2.780859	2.778809	2.778125	2.782227	2.777441	2.777441	2.778125	2.780859	2.778809
1639578719003	-48.312	-97.6	1003.816	0.35	-0.14	-0.49	-142.5	-25.5	-760.5	0	0	2.780176	2.778809	2.780176	2.780176	2.780859	2.781543	2.778125	2.778125	2.778125	2.777441	2.781543	2.778125	2.777441	2.778125	2.778809	2.780176
1639578719013	-54.168	-85.4	1008.208	0.28	-0.14	-0.49	-147	-28.5	-760.5	0	0	2.780176	2.782227	2.780859	2.777441	2.782227	2.780176	2.778809	2.782227	2.777441	2.778809	2.777441	2.777441	2.780859	2.777441	2.780859	2.780859
1639578719023	-51.728	-91.256	1011.624	0.14	-0.14	-0.56	-148.5	-30	-753	0	0	2.777441	2.780176	2.778125	2.780859	2.776758	2.780176	2.778809	2.780176	2.778125	2.780176	2.778125	2.777441	2.780176	2.777441	2.778809	2.777441
1639578719033	-47.824	-94.672	1006.744	0.21	-0.14	-0.56	-151.5	-27	-750	0	0	2.780859	2.778809	2.777441	2.777441	2.780176	2.780176	2.780176	2.780176	2.778809	2.782227	2.778809	2.782227	2.778809	2.777441	2.777441	2.777441
1639578719043	-51.24	-91.744	1010.16	0.35	-0.28	-0.56	-150	-27	-762	0	0	2.777441	2.780859	2.780859	2.782227	2.78291	2.778809	2.780859	2.780176	2.778125	2.778809	2.777441	2.776758	2.777441	2.779492	2.780176	2.780176
1639578719052	-42.456	-96.136	1008.696	0.35	-0.14	-0.56	-154.5	-27	-756	0	0	2.780176	2.778809	2.782227	2.780859	2.776758	2.780176	2.782227	2.780176	2.777441	2.780859	2.777441	2.778809	2.779492	2.778809	2.777441	2.780176
1639578719062	-50.752	-94.672	1009.184	0.21	-0.07	-0.49	-156	-24	-759	0	0	2.780859	2.780176	2.780859	2.78291	2.778809	2.782227	2.778125	2.782227	2.777441	2.782227	2.777441	2.780859	2.780859	2.777441	2.777441	2.777441
1639578719072	-47.824	-93.208	1010.648	0.21	0	-0.42	-148.5	-27	-759	0	0	2.780859	2.778809	2.778125	2.778809	2.780176	2.780859	2.782227	2.778125	2.780859	2.780859	2.780859	2.778809	2.776758	2.778125	2.777441	2.780859
1639578719082	-46.36	-93.208	1010.16	0.49	-0.07	-0.49	-148.5	-25.5	-750	0	0	2.781543	2.777441	2.776758	2.780859	2.780859	2.778125	2.780859	2.777441	2.778809	2.780859	2.780859	2.780859	2.778809	2.780859	2.777441	2.778809
1639578719091	-45.384	-93.208	1011.136	0.42	-0.07	-0.56	-148.5	-28.5	-756	0	0	2.782227	2.78291	2.778809	2.778809	2.778809	2.778809	2.776758	2.777441	2.780176	2.778125	2.777441	2.777441	2.778809	2.780176	2.780176	2.776758
1639578719101	-42.456	-92.232	1010.16	0.28	-0.14	-0.49	-151.5	-33	-757.5	0	0	2.780176	2.777441	2.778809	2.778125	2.780176	2.780859	2.777441	2.780176	2.778809	2.780176	2.777441	2.778125	2.776758	2.780859	2.781543	2.778125
1639578719111	-44.408	-87.352	1005.768	0.42	-0.07	-0.42	-151.5	-33	-757.5	0	0	2.778809	2.782227	2.780176	2.780176	2.781543	2.777441	2.778809	2.778809	2.778809	2.777441	2.778809	2.780176	2.778125	2.780176	2.777441	2.778125
1639578719121	-48.312	-86.376	1005.768	0.21	-0.07	-0.49	-151.5	-30	-756	0	0	2.78291	2.780859	2.778809	2.78291	2.780176	2.780176	2.78291	2.780859	2.780859	2.780859	2.780859	2.777441	2.780859	2.780859	2.778809	2.776758
1639578719130	-44.896	-93.696	1005.768	0.28	-0.07	-0.49	-153	-31.5	-751.5	0	0	2.778809	2.780859	2.777441	2.780176	2.780859	2.782227	2.778809	2.777441	2.781543	2.779492	2.777441	2.777441	2.776758	2.780176	2.780176	2.780176
1639578719140	-47.824	-92.72	1007.232	0.49	-0.14	-0.56	-151.5	-30	-754.5	0	0	2.780859	2.778809	2.78291	2.780176	2.780176	2.782227	2.777441	2.780859	2.778125	2.777441	2.778125	2.781543	2.778809	2.780859	2.780859	2.777441
1639578719150	-49.288	-91.744	1008.696	0.42	-0.07	-0.42	-150	-25.5	-754.5	0	0	2.780859	2.780176	2.780176	2.777441	2.778125	2.777441	2.78291	2.780176	2.778125	2.782227	2.778809	2.777441	2.781543	2.778125	2.778125	2.777441
1639578719160	-44.896	-98.576	1000.4	0.21	-0.07	-0.56	-154.5	-27	-757.5	0	0	2.782227	2.778809	2.780176	2.780176	2.782227	2.778125	2.778809	2.780859	2.777441	2.777441	2.780176	2.778125	2.778125	2.777441	2.777441	2.780859
1639578719169	-43.432	-90.768	1007.232	0.35	-0.14	-0.56	-151.5	-28.5	-754.5	0	0	2.78291	2.777441	2.78291	2.777441	2.778809	2.778809	2.777441	2.780859	2.777441	2.778125	2.777441	2.778125	2.780859	2.778809	2.778125	2.778125
1639578719179	-48.8	-92.232	1009.672	0.42	-0.07	-0.49	-150	-25.5	-750	0	0	2.777441	2.780859	2.777441	2.780176	2.780859	2.777441	2.777441	2.780859	2.777441	2.778809	2.778125	2.777441	2.776758	2.780176	2.780859	2.778125
1639578719189	-48.312	-87.352	1005.28	0.28	-0.07	-0.49	-153	-25.5	-748.5	0	0	2.780176	2.778809	2.780176	2.783594	2.777441	2.777441	2.778809	2.778809	2.778125	2.778125	2.778809	2.776758	2.777441	2.777441	2.780859	2.778809
1639578719199	-41.48	-86.864	1008.208	0.14	-0.07	-0.56	-150	-31.5	-748.5	0	0	2.782227	2.778125	2.780859	2.778809	2.777441	2.780176	2.780859	2.777441	2.777441	2.777441	2.777441	2.777441	2.780176	2.778125	2.778809	2.776758
1639578719209	-50.264	-88.816	1003.328	0.21	-0.14	-0.49	-151.5	-30	-759	0	0	2.776758	2.780859	2.777441	2.782227	2.780176	2.780859	2.782227	2.780176	2.777441	2.780859	2.780859	2.777441	2.777441	2.777441	2.781543	2.777441
1639578719218	-45.872	-90.768	1005.768	0.49	-0.07	-0.56	-151.5	-27	-762	0	0	2.777441	2.780176	2.778809	2.780859	2.782227	2.777441	2.780859	2.780859	2.780859	2.777441	2.778809	2.780859	2.778125	2.780176	2.777441	2.777441
1639578719228	-46.848	-91.744	1005.768	0.28	0	-0.49	-150	-25.5	-760.5	0	0	2.78291	2.78291	2.783594	2.780176	2.780176	2.780176	2.780176	2.777441	2.777441	2.778125	2.780859	2.777441	2.777441	2.777441	2.776758	2.778125
1639578719238	-47.336	-93.208	1008.696	0.07	-0.14	-0.56	-150	-24	-754.5	0	0	2.78291	2.777441	2.778125	2.78291	2.778125	2.780176	2.778125	2.778809	2.778809	2.780859	2.778125	2.780176	2.778809	2.780859	2.780859	2.778125
1639578719248	-50.264	-96.624	1010.16	0.28	-0.07	-0.56	-147	-24	-753	0	0	2.782227	2.778809	2.780176	2.778125	2.777441	2.778809	2.780176	2.778125	2.780176	2.781543	2.777441	2.778125	2.781543	2.779492	2.780859	2.780859
1639578719257	-47.824	-88.328	1012.112	0.28	-0.21	-0.49	-147	-27	-759	0	0	2.78291	2.782227	2.780176	2.780859	2.782227	2.777441	2.780859	2.780176	2.780859	2.780859	2.780859	2.778809	2.778125	2.780859	2.780859	2.780859
1639578719267	-44.408	-96.624	1009.184	0.21	-0.07	-0.56	-150	-28.5	-754.5	0	0	2.777441	2.778809	2.777441	2.778125	2.777441	2.78291	2.776758	2.778809	2.777441	2.778125	2.780859	2.777441	2.781543	2.777441	2.782227	2.778125
1639578719277	-48.312	-92.72	1007.232	0.35	-0.07	-0.49	-154.5	-25.5	-753	0	0	2.78291	2.778809	2.78291	2.777441	2.777441	2.780859	2.778809	2.780176	2.778809	2.780859	2.780176	2.778125	2.778125	2.777441	2.780859	2.777441
1639578719287	-38.552	-89.792	1006.256	0.42	0	-0.49	-147	-24	-756	0	0	2.780176	2.777441	2.78291	2.780176	2.782227	2.782227	2.782227	2.778125	2.782227	2.780176	2.780859	2.777441	2.780859	2.777441	2.778125	2.780859
1639578719296	-50.264	-100.04	1010.648	0.35	0	-0.56	-144	-25.5	-762	0	0	2.78291	2.778125	2.777441	2.780176	2.780176	2.782227	2.782227	2.782227	2.780859	2.777441	2.777441	2.778809	2.777441	2.777441	2.780859	2.780859
1639578719306	-45.872	-85.4	1006.744	0.35	0	-0.56	-150	-30	-762	0	0	2.780176	2.777441	2.777441	2.780176	2.778809	2.780859	2.780176	2.780176	2.780176	2.777441	2.774707	2.780176	2.777441	2.780859	2.776758	2.776758
1639578719316	-46.36	-83.448	1012.6	0.21	-0.14	-0.49	-147	-25.5	-754.5	0	0	2.782227	2.78291	2.777441	2.778809	2.777441	2.778809	2.782227	2.780176	2.780859	2.782227	2.778809	2.777441	2.778125	2.776758	2.777441	2.780859
1639578719326	-49.776	-90.768	1002.84	0.21	-0.14	-0.63	-150	-24	-748.5	0	0	2.782227	2.780176	2.78291	2.780176	2.781543	2.780859	2.780859	2.778809	2.778809	2.777441	2.777441	2.778809	2.778809	2.777441	2.778125	2.777441
1639578719336	-47.824	-88.328	1009.672	0.28	-0.07	-0.63	-151.5	-25.5	-747	0	0	2.782227	2.777441	2.78291	2.780176	2.778125	2.780176	2.780859	2.777441	2.782227	2.780859	2.777441	2.780176	2.777441	2.777441	2.777441	2.778809
1639578719345	-47.336	-89.304	1004.304	0.28	-0.07	-0.49	-150	-25.5	-756	0	0	2.78291	2.776758	2.782227	2.777441	2.780176	2.777441	2.778809	2.780176	2.780859	2.780859	2.778125	2.778809	2.778809	2.778809	2.778809	2.780859
1639578719355	-44.896	-91.256	1012.6	0.14	-0.14	-0.63	-154.5	-22.5	-759	0	0	2.780176	2.778809	2.778125	2.782227	2.777441	2.778809	2.777441	2.778809	2.778125	2.780859	2.777441	2.780859	2.777441	2.778809	2.777441	2.780859
1639578719365	-46.848	-93.208	1011.624	0.21	-0.21	-0.49	-154.5	-18	-756	0	0	2.777441	2.780859	2.782227	2.777441	2.78291	2.778125	2.782227	2.780176	2.778809	2.777441	2.777441	2.776758	2.780176	2.777441	2.782227	2.777441
1639578719375	-46.848	-87.352	1008.696	0.28	-0.14	-0.49	-150	-27	-756	0	0	2.780176	2.78291	2.780859	2.780176	2.778125	2.780176	2.780176	2.776758	2.782227	2.780176	2.777441	2.778125	2.781543	2.778125	2.780859	2.778809
1639578719384	-50.752	-92.72	1008.208	0.28	-0.21	-0.49	-151.5	-31.5	-756	0	0	2.780859	2.782227	2.778125	2.782227	2.778809	2.780176	2.780859	2.780176	2.780859	2.777441	2.778125	2.778125	2.777441	2.777441	2.778125	2.778125
1639578719394	-44.896	-90.768	1009.672	0.35	-0.14	-0.49	-148.5	-30	-759	0	0	2.777441	2.780859	2.78291	2.780176	2.780176	2.782227	2.780176	2.780859	2.777441	2.777441	2.776758	2.780176	2.778809	2.780176	2.778809	2.777441
1639578719404	-48.312	-95.648	1005.28	0.28	-0.07	-0.49	-153	-27	-760.5	0	0	2.780859	2.777441	2.778809	2.778809	2.780176	2.780176	2.778809	2.778809	2.780859	2.780176	2.778809	2.777441	2.778809	2.777441	2.780859	2.782227
1639578719414	-46.848	-91.256	1007.72	0.28	0.14	-0.56	-153	-28.5	-756	0	0	2.780176	2.780859	2.780176	2.783594	2.780859	2.777441	2.780859	2.777441	2.777441	2.778809	2.780859	2.777441	2.778809	2.777441	2.777441	2.778809
1639578719423	-51.24	-93.208	1012.112	0.42	0	-0.56	-151.5	-27	-753	0	0	2.780859	2.780859	2.780176	2.780176	2.780176	2.778809	2.780176	2.777441	2.777441	2.780859	2.777441	2.780859	2.777441	2.780859	2.778125	2.780859
1639578719433	-45.384	-87.84	1007.72	0.28	-0.21	-0.49	-157.5	-16.5	-751.5	0	0	2.780859	2.780176	2.778809	2.776074	2.777441	2.782227	2.777441	2.780859	2.778809	2.777441	2.778125	2.778809	2.780859	2.778125	2.780859	2.777441
1639578719443	-52.704	-86.864	1008.696	0.35	-0.28	-0.42	-156	-21	-753	0	0	2.780859	2.78291	2.780176	2.778125	2.778809	2.782227	2.778809	2.778809	2.777441	2.777441	2.776758	2.778809	2.780859	2.776758	2.782227	2.777441
1639578719453	-48.8	-89.304	1008.696	0.49	-0.21	-0.42	-156	-30	-759	0	0	2.777441	2.782227	2.777441	2.777441	2.778809	2.780176	2.780176	2.777441	2.777441	2.777441	2.780176	2.777441	2.778809	2.778809	2.778809	2.778125
1639578719462	-44.408	-88.328	1014.064	0.28	0.07	-0.49	-145.5	-34.5	-762	0	0	2.780859	2.780859	2.78291	2.782227	2.780176	2.777441	2.782227	2.778809	2.777441	2.780176	2.777441	2.777441	2.777441	2.782227	2.778809	2.781543
1639578719472	-44.896	-92.232	1012.6	0.35	0.07	-0.56	-139.5	-31.5	-759	0	0	2.78291	2.782227	2.777441	2.780176	2.780859	2.782227	2.780176	2.782227	2.778809	2.778809	2.777441	2.777441	2.778809	2.777441	2.777441	2.780859
1639578719482	-47.824	-94.672	1010.16	0.42	0.07	-0.49	-145.5	-30	-753	0	0	2.780859	2.777441	2.777441	2.78291	2.780859	2.780859	2.778809	2.777441	2.777441	2.780859	2.778809	2.778125	2.777441	2.780859	2.778809	2.778809
1639578719492	-47.824	-97.112	1008.208	0.35	-0.14	-0.56	-151.5	-34.5	-751.5	0	0	2.782227	2.780859	2.780859	2.777441	2.780859	2.780176	2.780176	2.780859	2.776758	2.776758	2.778809	2.780859	2.778809	2.777441	2.780859	2.777441
1639578719502	-49.776	-91.744	1006.744	0.49	-0.14	-0.56	-151.5	-36	-751.5	0	0	2.780176	2.780176	2.782227	2.780859	2.780859	2.782227	2.777441	2.778125	2.777441	2.778125	2.778809	2.777441	2.780176	2.778809	2.780859	2.780859
1639578719511	-50.264	-85.4	1008.208	0.42	-0.21	-0.49	-150	-36	-751.5	0	0	2.780176	2.780859	2.780859	2.780176	2.780176	2.780859	2.782227	2.777441	2.778125	2.782227	2.782227	2.778125	2.782227	2.780859	2.777441	2.778809
1639578719521	-51.24	-82.472	1003.816	0.14	-0.14	-0.56	-150	-30	-756	0	0	2.782227	2.782227	2.78291	2.778125	2.777441	2.777441	2.780859	2.779492	2.777441	2.780176	2.780176	2.778125	2.776758	2.778809	2.780859	2.778809
1639578719531	-43.92	-95.16	1006.256	0.35	-0.07	-0.56	-154.5	-24	-762	0	0	2.777441	2.783594	2.777441	2.780176	2.780176	2.780176	2.782227	2.777441	2.780176	2.780176	2.778125	2.780859	2.778809	2.777441	2.777441	2.780176
1639578719541	-43.432	-91.744	1011.624	0.77	0	-0.49	-154.5	-25.5	-759	0	0	2.782227	2.780859	2.78291	2.780176	2.780859	2.78291	2.780176	2.780859	2.777441	2.780859	2.776074	2.780176	2.778125	2.779492	2.780859	2.780859
1639578719550	-48.312	-87.352	1005.28	0.07	-0.07	-0.49	-151.5	-27	-756	0	0	2.778125	2.777441	2.777441	2.781543	2.780176	2.782227	2.780176	2.777441	2.778125	2.778125	2.777441	2.777441	2.778125	2.777441	2.778809	2.777441
1639578719560	-42.456	-90.28	1007.72	0.21	-0.07	-0.63	-151.5	-27	-759	0	0	2.78291	2.78291	2.78291	2.78291	2.778809	2.780859	2.778125	2.778125	2.780859	2.780859	2.780859	2.780859	2.778809	2.778809	2.777441	2.778809
1639578719570	-45.872	-94.672	1010.16	0.7	0	-0.49	-151.5	-25.5	-754.5	0	0	2.778809	2.780176	2.782227	2.777441	2.782227	2.782227	2.782227	2.78291	2.777441	2.778125	2.780859	2.780176	2.778809	2.777441	2.777441	2.780176
1639578719580	-41.48	-92.72	1005.28	0	-0.14	-0.56	-151.5	-30	-754.5	0	0	2.781543	2.782227	2.778809	2.777441	2.777441	2.777441	2.78291	2.778125	2.777441	2.778125	2.780859	2.779492	2.778809	2.780859	2.779492	2.782227
1639578719589	-48.312	-99.064	1007.72	0.35	-0.07	-0.56	-154.5	-25.5	-759	0	0	2.780176	2.777441	2.782227	2.782227	2.780859	2.780176	2.78291	2.780176	2.780859	2.777441	2.780859	2.780176	2.781543	2.777441	2.780176	2.778125
1639578719599	-43.92	-93.696	1009.184	0.7	-0.07	-0.56	-156	-22.5	-757.5	0	0	2.78291	2.78291	2.778125	2.780859	2.782227	2.777441	2.782227	2.778125	2.778125	2.777441	2.781543	2.778809	2.778809	2.778125	2.780859	2.777441
1639578719609	-47.824	-88.328	1008.696	0.14	0	-0.49	-150	-27	-754.5	0	0	2.782227	2.778809	2.777441	2.78291	2.780859	2.777441	2.780176	2.778809	2.780859	2.777441	2.778125	2.780859	2.778125	2.777441	2.777441	2.778809
1639578719619	-53.192	-90.28	1005.768	0.14	-0.07	-0.49	-148.5	-27	-754.5	0	0	2.777441	2.778125	2.783594	2.78291	2.783594	2.782227	2.776758	2.778125	2.781543	2.778809	2.778809	2.777441	2.777441	2.778809	2.776758	2.777441
1639578719628	-47.824	-85.888	1010.16	0.56	-0.14	-0.49	-157.5	-21	-754.5	0	0	2.778125	2.78291	2.78291	2.777441	2.782227	2.782227	2.780176	2.778809	2.780859	2.778125	2.778809	2.778125	2.778125	2.780859	2.781543	2.777441
1639578719638	-42.944	-90.768	1008.208	0.28	-0.21	-0.56	-156	-22.5	-751.5	0	0	2.780176	2.780176	2.778125	2.775391	2.778809	2.78291	2.780176	2.777441	2.780176	2.780859	2.772656	2.769922	2.778809	2.780176	2.778809	2.778809
1639578719648	-42.456	-89.792	1016.504	0.49	-0.07	-0.42	-154.5	-22.5	-757.5	0	0	2.778125	2.778809	2.780176	2.777441	2.781543	2.78291	2.780176	2.778809	2.777441	2.777441	2.778125	2.778809	2.777441	2.778809	2.780859	2.778125
