/**
 * General Information:
 * 	UI version: 1.0
 * Device information:
 * 	Id: Mitch_2
 * 	Hardware Version: 2.0
 * 	Firmware Version: 5.3.0
 * Acquisition Information:
 * 	Mode: MIMU + Pressure Insole + Distance Sensors
 * 	Sampling frequency: 100Hz
 * 	Axl_FS: 16g
 * 	Gyro_FS: 2000dps
 * 	Magn_FS: 50Gauss
 * 	DS1_FS: 0mm
 * 	DS1_Offset: 0mm
 * 	DS2_FS: 0mm
 * 	DS2_Offset: 0mm
 */
Timestamp	Acc.X	Acc.Y	Acc.Z	Gyro.X	Gyro.Y	Gyro.Z	Magn.X	Magn.Y	Magn.Z	Distance.1	Distance.2	P.0	P.1	P.2	P.3	P.4	P.5	P.6	P.7	P.8	P.9	P.10	P.11	P.12	P.13	P.14	P.15
(ms)	(mG)	(mG)	(mG)	(dps)	(dps)	(dps)	(mGauss)	(mGauss)	(mGauss)	(mm)	(mm)	(V)	(V)	(V)	(V)	(V)	(V)	(V)	(V)	(V)	(V)	(V)	(V)	(V)	(V)	(V)	(V)
1639578508534	-27.328	12.2	1005.768	-1.96	5.32	0	676.5	12	-763.5	0	0	2.780176	2.781543	2.780859	2.781543	2.777441	2.780176	2.777441	2.782227	2.780859	2.777441	2.777441	2.780859	2.782227	2.782227	2.778809	2.778809
1639578508544	-24.888	13.176	1007.232	29.68	121.59	-57.75	177	-112.5	-424.5	0	0	2.782227	2.780176	2.780859	2.780859	2.782227	2.777441	2.780859	2.777441	2.780176	2.782227	2.776758	2.781543	2.780176	2.780859	2.780859	2.778809
1639578508554	-21.96	14.152	1005.28	-19.18	-24.01	13.44	177	-118.5	-415.5	0	0	2.780176	2.777441	2.780176	2.780859	2.78291	2.778809	2.778809	2.783594	2.777441	2.780859	2.776758	2.780176	2.778125	2.78291	2.780859	2.780176
1639578508564	-27.816	9.76	1008.208	-17.22	-25.48	13.09	178.5	-118.5	-408	0	0	2.780859	2.78291	2.780176	2.780859	2.777441	2.780176	2.778809	2.780859	2.780859	2.777441	2.778809	2.782227	2.782227	2.780859	2.776758	2.777441
1639578508573	-25.864	9.272	1008.208	-0.7	-1.19	-0.14	181.5	-112.5	-417	0	0	2.780176	2.780176	2.78291	2.781543	2.783594	2.780176	2.780176	2.780176	2.780176	2.780176	2.780176	2.777441	2.777441	2.780176	2.777441	2.780859
1639578508583	-25.376	9.76	1011.624	-0.35	-0.77	-0.28	178.5	-118.5	-426	0	0	2.777441	2.778809	2.777441	2.782227	2.783594	2.777441	2.778809	2.78291	2.778809	2.780859	2.777441	2.780176	2.780176	2.778125	2.778125	2.778809
1639578508593	-25.864	12.2	1009.184	-0.49	-0.84	-0.21	180	-117	-420	0	0	2.78291	2.780176	2.780176	2.780859	2.780859	2.78291	2.780176	2.780176	2.782227	2.780176	2.778809	2.778809	2.781543	2.780176	2.778809	2.778809
1639578508603	-24.888	6.832	1003.816	-0.28	-0.77	-0.28	183	-118.5	-408	0	0	2.778809	2.78291	2.780859	2.780859	2.78291	2.780859	2.780176	2.783594	2.778809	2.778125	2.780859	2.780859	2.777441	2.780176	2.780859	2.780859
1639578508612	-23.912	7.808	1006.256	-0.42	-0.84	-0.21	178.5	-123	-411	0	0	2.780859	2.780859	2.778809	2.780176	2.780859	2.777441	2.78291	2.778809	2.780859	2.776758	2.778125	2.780859	2.776758	2.778809	2.780859	2.778809
1639578508622	-27.816	2.928	1012.6	-0.42	-0.84	-0.21	177	-126	-417	0	0	2.777441	2.783594	2.780859	2.783594	2.782227	2.778809	2.78291	2.780859	2.778809	2.778809	2.782227	2.777441	2.776758	2.777441	2.780859	2.782227
1639578508632	-27.328	6.344	1009.184	-0.42	-0.84	-0.35	183	-123	-415.5	0	0	2.780859	2.780859	2.780176	2.782227	2.778809	2.777441	2.778809	2.780176	2.778809	2.778809	2.780859	2.776758	2.777441	2.778125	2.778809	2.780176
1639578508642	-19.52	7.808	1010.16	-0.42	-0.98	-0.14	186	-112.5	-417	0	0	2.782227	2.777441	2.783594	2.782227	2.780176	2.780176	2.782227	2.780176	2.777441	2.778125	2.780859	2.778809	2.780859	2.777441	2.777441	2.778125
1639578508651	-17.08	2.928	1008.208	-0.56	-0.84	-0.28	183	-117	-420	0	0	2.780176	2.780176	2.780859	2.780859	2.780859	2.776758	2.780859	2.782227	2.778125	2.777441	2.778125	2.777441	2.78291	2.778809	2.780859	2.776758
1639578508661	-19.52	9.272	1010.648	-0.49	-0.84	-0.35	183	-123	-421.5	0	0	2.780176	2.783594	2.780176	2.780176	2.780859	2.777441	2.780176	2.778809	2.777441	2.780176	2.776758	2.778809	2.778125	2.780176	2.778809	2.778125
1639578508671	-23.424	8.296	1005.28	-0.42	-0.77	-0.28	174	-120	-415.5	0	0	2.78291	2.777441	2.780176	2.782227	2.778809	2.780176	2.780859	2.780859	2.778125	2.782227	2.778809	2.780176	2.777441	2.777441	2.777441	2.780859
1639578508681	-23.424	2.44	1003.816	-0.42	-0.84	-0.28	174	-120	-412.5	0	0	2.778809	2.778809	2.780859	2.780176	2.780859	2.780176	2.783594	2.777441	2.780859	2.780176	2.777441	2.778125	2.782227	2.776758	2.780176	2.777441
1639578508691	-25.376	15.616	1008.696	-0.49	-0.91	-0.21	171	-118.5	-412.5	0	0	2.780176	2.783594	2.780859	2.778809	2.777441	2.780176	2.780859	2.782227	2.782227	2.780859	2.780859	2.777441	2.777441	2.778809	2.778809	2.782227
1639578508700	-20.984	10.248	1006.256	-0.49	-0.84	-0.21	177	-117	-412.5	0	0	2.780859	2.780176	2.780176	2.778809	2.78291	2.780859	2.782227	2.777441	2.778809	2.778809	2.778809	2.780859	2.777441	2.778809	2.778125	2.780859
1639578508710	-19.032	0.488	1001.864	-0.49	-0.91	-0.28	175.5	-117	-417	0	0	2.780859	2.778809	2.780859	2.780859	2.78291	2.777441	2.780176	2.780176	2.778809	2.777441	2.778809	2.777441	2.777441	2.778809	2.776758	2.780176
1639578508720	-21.472	5.856	1009.672	-0.49	-0.84	-0.21	172.5	-112.5	-418.5	0	0	2.778809	2.780859	2.782227	2.778809	2.782227	2.782227	2.783594	2.78291	2.780176	2.781543	2.777441	2.778125	2.778809	2.778809	2.778125	2.780176
1639578508730	-25.376	4.392	1007.232	-0.56	-0.84	-0.21	175.5	-114	-414	0	0	2.780176	2.782227	2.782227	2.778809	2.777441	2.78291	2.780176	2.777441	2.778809	2.780859	2.778125	2.777441	2.776758	2.778809	2.780859	2.780859
1639578508739	-22.448	7.32	1004.792	-0.49	-0.84	-0.21	175.5	-120	-409.5	0	0	2.782227	2.783594	2.782227	2.780859	2.78291	2.782227	2.782227	2.78291	2.777441	2.777441	2.777441	2.776758	2.777441	2.780859	2.777441	2.778125
1639578508749	-20.496	8.784	1006.744	-0.56	-0.91	-0.28	175.5	-124.5	-412.5	0	0	2.781543	2.778809	2.780176	2.780176	2.780859	2.780859	2.780859	2.780176	2.782227	2.777441	2.778125	2.778125	2.780859	2.780859	2.777441	2.777441
1639578508759	-21.472	5.368	1003.328	-0.49	-0.77	-0.28	175.5	-120	-420	0	0	2.780176	2.780176	2.775391	2.769922	2.782227	2.778809	2.780176	2.777441	2.777441	2.776758	2.775391	2.777441	2.776758	2.777441	2.781543	2.776758
1639578508769	-24.4	11.224	1005.28	-0.42	-0.77	-0.28	172.5	-117	-420	0	0	2.780176	2.777441	2.778125	2.780859	2.780176	2.782227	2.778125	2.78291	2.778809	2.778809	2.780859	2.780859	2.777441	2.777441	2.777441	2.777441
1639578508778	-20.496	3.904	1009.184	-0.42	-0.84	-0.35	172.5	-118.5	-420	0	0	2.78291	2.780176	2.780176	2.780176	2.778809	2.778809	2.782227	2.782227	2.778809	2.778809	2.778809	2.776758	2.778125	2.777441	2.778809	2.777441
1639578508788	-25.376	10.736	1008.208	-0.42	-0.84	-0.28	175.5	-120	-421.5	0	0	2.780176	2.780859	2.780859	2.777441	2.780859	2.778809	2.780176	2.78291	2.780859	2.777441	2.778809	2.777441	2.778809	2.777441	2.776758	2.777441
1639578508798	-19.52	-0.976	1003.328	-0.42	-0.77	-0.28	177	-126	-420	0	0	2.780176	2.78291	2.778809	2.777441	2.782227	2.776758	2.778809	2.780176	2.778125	2.778125	2.778809	2.778125	2.778809	2.780176	2.778125	2.776758
1639578508808	-24.888	6.344	1002.352	-0.42	-0.84	-0.28	178.5	-121.5	-418.5	0	0	2.777441	2.780176	2.78291	2.782227	2.783594	2.780176	2.78291	2.78291	2.776758	2.778809	2.782227	2.778809	2.777441	2.778125	2.777441	2.780859
1639578508818	-22.448	6.832	1010.648	-0.42	-0.84	-0.28	178.5	-112.5	-415.5	0	0	2.780176	2.778809	2.780176	2.780176	2.780176	2.78291	2.777441	2.778809	2.782227	2.780859	2.777441	2.780859	2.778809	2.777441	2.777441	2.777441
1639578508827	-27.816	6.344	1006.744	-0.49	-0.91	-0.21	174	-114	-418.5	0	0	2.780176	2.782227	2.778809	2.782227	2.783594	2.777441	2.780176	2.781543	2.780859	2.778809	2.778809	2.782227	2.778809	2.780859	2.780176	2.778809
1639578508837	-20.984	9.272	1011.136	-0.49	-0.98	-0.35	171	-114	-417	0	0	2.778809	2.78291	2.783594	2.778809	2.778809	2.782227	2.778809	2.780859	2.780859	2.782227	2.777441	2.777441	2.776758	2.778809	2.780176	2.782227
1639578508847	-15.616	9.76	1010.648	-0.49	-0.84	-0.14	174	-109.5	-417	0	0	2.782227	2.780176	2.78291	2.777441	2.78291	2.778809	2.781543	2.780859	2.780859	2.780859	2.777441	2.778125	2.782227	2.782227	2.780859	2.777441
1639578508857	-16.592	8.784	1006.256	-0.42	-0.84	-0.21	177	-109.5	-412.5	0	0	2.777441	2.780176	2.780859	2.780176	2.780859	2.780859	2.777441	2.783594	2.780176	2.778125	2.780859	2.777441	2.778809	2.782227	2.778809	2.782227
1639578508866	-18.056	5.856	1003.328	-0.49	-0.91	-0.28	178.5	-114	-411	0	0	2.780859	2.782227	2.782227	2.780859	2.777441	2.777441	2.777441	2.778809	2.780859	2.778125	2.778125	2.778809	2.777441	2.777441	2.778809	2.778809
1639578508876	-20.496	1.952	1007.232	-0.42	-0.77	-0.14	177	-115.5	-417	0	0	2.780859	2.778809	2.778809	2.780176	2.780176	2.78291	2.780859	2.777441	2.782227	2.782227	2.778809	2.780859	2.780859	2.780176	2.777441	2.782227
1639578508886	-24.4	4.88	1011.624	-0.56	-0.91	-0.21	177	-120	-417	0	0	2.780176	2.780176	2.778809	2.780176	2.78291	2.780176	2.778809	2.78291	2.777441	2.778125	2.780859	2.780176	2.780859	2.777441	2.780859	2.777441
1639578508896	-20.008	5.368	1003.328	-0.42	-0.77	-0.28	171	-118.5	-415.5	0	0	2.78291	2.778809	2.782227	2.783594	2.778809	2.780859	2.780176	2.777441	2.777441	2.780859	2.776758	2.782227	2.780176	2.778125	2.778125	2.778809
1639578508905	-16.592	7.808	1003.328	-0.56	-0.91	-0.28	171	-117	-415.5	0	0	2.778809	2.778809	2.78291	2.782227	2.778809	2.780176	2.780176	2.782227	2.780859	2.778125	2.777441	2.780176	2.780859	2.780176	2.776074	2.778809
1639578508915	-23.424	12.688	1005.768	-0.42	-0.77	-0.21	178.5	-121.5	-417	0	0	2.780176	2.78291	2.780859	2.78291	2.777441	2.780859	2.783594	2.782227	2.780859	2.778809	2.782227	2.782227	2.778809	2.782227	2.780176	2.782227
1639578508925	-20.496	6.344	1004.304	-0.42	-0.77	-0.21	180	-114	-417	0	0	2.778809	2.778809	2.778809	2.783594	2.782227	2.78291	2.780859	2.782227	2.780859	2.780859	2.778125	2.778809	2.780176	2.778809	2.777441	2.777441
1639578508935	-26.84	8.296	1008.208	-0.42	-0.84	-0.21	180	-109.5	-415.5	0	0	2.78291	2.78291	2.778809	2.780859	2.778809	2.783594	2.780176	2.778809	2.782227	2.777441	2.780176	2.778125	2.778125	2.777441	2.777441	2.778125
1639578508944	-24.888	4.392	1004.792	-0.49	-0.7	-0.21	181.5	-115.5	-415.5	0	0	2.778809	2.778809	2.78291	2.78291	2.780859	2.780176	2.781543	2.780176	2.777441	2.778809	2.778125	2.777441	2.780176	2.780176	2.777441	2.776074
1639578508954	-21.96	3.416	1009.672	-0.42	-0.77	-0.21	178.5	-120	-417	0	0	2.783594	2.78291	2.78291	2.780859	2.777441	2.780859	2.78291	2.783594	2.780859	2.782227	2.780859	2.780176	2.776758	2.780176	2.777441	2.778125
1639578508964	-27.328	5.856	1007.72	-0.49	-0.84	-0.28	175.5	-120	-420	0	0	2.780176	2.78291	2.778809	2.783594	2.778809	2.778809	2.780176	2.782227	2.777441	2.782227	2.780859	2.778809	2.777441	2.78291	2.781543	2.777441
1639578508974	-24.888	6.832	1009.672	-0.56	-0.84	-0.35	177	-114	-418.5	0	0	2.780176	2.778809	2.780176	2.777441	2.778809	2.778809	2.780176	2.780176	2.778809	2.778809	2.782227	2.777441	2.780859	2.781543	2.780176	2.776758
1639578508984	-25.864	7.808	1006.256	-0.49	-0.7	-0.28	174	-112.5	-414	0	0	2.78291	2.780176	2.778809	2.778809	2.780176	2.782227	2.782227	2.778809	2.780176	2.780859	2.777441	2.777441	2.777441	2.780859	2.777441	2.782227
1639578508993	-20.496	8.784	1009.672	-0.49	-0.77	-0.28	178.5	-117	-414	0	0	2.780859	2.780859	2.780176	2.783594	2.778809	2.78291	2.780176	2.780176	2.777441	2.780859	2.778125	2.778125	2.776758	2.781543	2.782227	2.778125
1639578509003	-20.008	6.832	1005.768	-0.49	-0.77	-0.28	184.5	-117	-417	0	0	2.778809	2.780859	2.782227	2.780176	2.778809	2.780176	2.778809	2.780176	2.778809	2.780859	2.780176	2.778809	2.780859	2.780176	2.778125	2.779492
1639578509013	-22.936	7.32	1010.16	-0.42	-0.84	-0.28	187.5	-114	-414	0	0	2.783594	2.782227	2.781543	2.777441	2.78291	2.780176	2.780859	2.781543	2.780176	2.782227	2.780859	2.780176	2.778125	2.782227	2.778809	2.778809
1639578509023	-20.496	7.808	1012.112	-0.49	-0.84	-0.28	187.5	-114	-412.5	0	0	2.778809	2.783594	2.780176	2.780176	2.778809	2.776758	2.780176	2.778809	2.782227	2.778809	2.777441	2.777441	2.777441	2.782227	2.778125	2.777441
1639578509032	-23.912	11.224	1004.304	-0.49	-0.84	-0.21	181.5	-114	-415.5	0	0	2.782227	2.783594	2.78291	2.776758	2.782227	2.780859	2.778809	2.778809	2.777441	2.780859	2.778125	2.777441	2.780859	2.782227	2.778809	2.777441
1639578509042	-24.4	6.344	1006.256	-0.63	-0.98	-0.28	178.5	-121.5	-415.5	0	0	2.780859	2.782227	2.780176	2.777441	2.78291	2.78291	2.779492	2.778809	2.780176	2.778125	2.780859	2.777441	2.780176	2.777441	2.780176	2.780859
1639578509052	-22.936	0.976	1009.672	-0.49	-0.84	-0.21	180	-118.5	-414	0	0	2.780176	2.780859	2.78291	2.78291	2.782227	2.778809	2.779492	2.780176	2.776758	2.778125	2.778125	2.778125	2.778809	2.778809	2.778809	2.776758
1639578509062	-26.352	8.296	1011.136	-0.42	-0.91	-0.14	178.5	-114	-417	0	0	2.782227	2.780859	2.777441	2.78291	2.780176	2.780176	2.782227	2.777441	2.780859	2.777441	2.780859	2.782227	2.778809	2.777441	2.778809	2.778125
1639578509071	-22.936	13.176	1011.624	-0.49	-0.77	-0.21	175.5	-115.5	-417	0	0	2.780176	2.783594	2.780176	2.783594	2.777441	2.78291	2.780859	2.780176	2.780859	2.778809	2.782227	2.778809	2.782227	2.778809	2.777441	2.780859
1639578509081	-25.864	10.736	1006.744	-0.49	-0.77	-0.21	172.5	-118.5	-412.5	0	0	2.769922	2.771289	2.777441	2.780176	2.780176	2.782227	2.777441	2.782227	2.776074	2.774707	2.780176	2.778809	2.780859	2.778125	2.780176	2.781543
1639578509091	-20.496	4.88	1006.744	-0.56	-0.91	-0.21	177	-120	-417	0	0	2.778809	2.780859	2.780176	2.780859	2.780176	2.783594	2.782227	2.776758	2.778809	2.781543	2.778125	2.777441	2.782227	2.776758	2.778809	2.780176
1639578509101	-24.4	6.832	1009.672	-0.49	-0.84	-0.35	181.5	-117	-420	0	0	2.780176	2.78291	2.780859	2.78291	2.782227	2.780176	2.78291	2.78291	2.778809	2.777441	2.782227	2.778809	2.780176	2.777441	2.778125	2.777441
1639578509110	-21.96	5.856	1000.888	-0.42	-0.91	-0.21	174	-114	-418.5	0	0	2.783594	2.780176	2.783594	2.782227	2.778809	2.780176	2.780176	2.782227	2.780176	2.777441	2.780859	2.778809	2.780859	2.777441	2.778809	2.782227
1639578509120	-23.424	9.272	1008.208	-0.49	-0.84	-0.28	174	-114	-417	0	0	2.78291	2.778809	2.783594	2.782227	2.778809	2.78291	2.782227	2.783594	2.777441	2.777441	2.776758	2.780176	2.780176	2.778809	2.778809	2.777441
1639578509130	-20.984	10.248	1006.256	-0.35	-0.84	-0.21	175.5	-114	-414	0	0	2.778809	2.78291	2.782227	2.780176	2.777441	2.780176	2.777441	2.780859	2.777441	2.782227	2.777441	2.778125	2.780859	2.780176	2.780176	2.780859
1639578509140	-28.792	1.952	1007.72	-0.42	-0.7	-0.28	177	-115.5	-412.5	0	0	2.780859	2.780859	2.778809	2.783594	2.780176	2.780859	2.778809	2.780176	2.778809	2.780859	2.777441	2.782227	2.776758	2.778809	2.777441	2.778125
1639578509150	-19.52	5.368	1008.208	-0.42	-0.77	-0.28	186	-120	-415.5	0	0	2.778809	2.778809	2.778809	2.780176	2.780176	2.777441	2.780859	2.778809	2.780859	2.778809	2.777441	2.778809	2.778809	2.780176	2.780859	2.780859
1639578509159	-25.864	8.296	1008.208	-0.56	-0.77	-0.21	186	-120	-414	0	0	2.78291	2.778809	2.780176	2.780176	2.777441	2.782227	2.782227	2.783594	2.777441	2.779492	2.778809	2.776758	2.782227	2.778125	2.777441	2.780176
1639578509169	-25.376	5.368	1001.864	-0.42	-0.77	-0.21	181.5	-118.5	-417	0	0	2.780176	2.777441	2.78291	2.780859	2.777441	2.780176	2.783594	2.780176	2.780859	2.777441	2.780859	2.777441	2.780176	2.780176	2.778809	2.776758
1639578509179	-21.472	4.88	1006.256	-0.42	-0.77	-0.28	177	-118.5	-418.5	0	0	2.782227	2.782227	2.780859	2.78291	2.783594	2.780176	2.780176	2.777441	2.777441	2.778809	2.780176	2.780859	2.779492	2.777441	2.777441	2.778125
1639578509189	-23.912	7.808	1013.576	-0.49	-0.84	-0.21	180	-118.5	-418.5	0	0	2.783594	2.780176	2.780176	2.780176	2.782227	2.78291	2.78291	2.780176	2.780859	2.780859	2.780176	2.778809	2.780859	2.782227	2.778125	2.780176
1639578509198	-20.008	-4.88	1003.816	-0.56	-0.77	-0.28	183	-114	-426	0	0	2.780176	2.778809	2.780176	2.783594	2.780176	2.782227	2.782227	2.780176	2.780859	2.777441	2.778809	2.780859	2.780176	2.777441	2.780176	2.777441
1639578509208	-26.352	10.736	1001.864	-0.56	-0.84	-0.21	177	-111	-427.5	0	0	2.777441	2.780176	2.782227	2.782227	2.777441	2.780176	2.782227	2.780859	2.780176	2.776758	2.778125	2.780859	2.780859	2.776758	2.777441	2.780176
1639578509218	-20.008	9.76	1008.696	-0.42	-0.84	-0.21	178.5	-112.5	-421.5	0	0	2.780176	2.780176	2.780176	2.780176	2.780859	2.780859	2.778809	2.778809	2.780859	2.776758	2.782227	2.780859	2.778809	2.778809	2.780859	2.782227
1639578509228	-21.472	9.272	1011.624	-0.49	-0.7	-0.28	178.5	-118.5	-417	0	0	2.778809	2.776758	2.780176	2.780176	2.777441	2.778809	2.778809	2.777441	2.780176	2.780859	2.780176	2.776074	2.778125	2.778125	2.780176	2.778809
1639578509237	-18.056	10.736	1007.72	-0.42	-0.91	-0.28	177	-123	-418.5	0	0	2.778809	2.782227	2.780176	2.780176	2.780176	2.780859	2.780859	2.777441	2.778809	2.780859	2.776758	2.781543	2.780176	2.778809	2.780859	2.778809
1639578509247	-18.056	6.344	1014.064	-0.49	-0.77	-0.21	175.5	-115.5	-417	0	0	2.780176	2.780176	2.78291	2.780859	2.783594	2.783594	2.780176	2.780176	2.780859	2.777441	2.780859	2.777441	2.780859	2.780176	2.780176	2.778809
1639578509257	-20.008	8.296	1005.768	-0.49	-0.77	-0.28	177	-111	-409.5	0	0	2.778809	2.781543	2.780176	2.780176	2.780176	2.78291	2.78291	2.778809	2.777441	2.778809	2.780859	2.778809	2.780176	2.778125	2.778125	2.781543
1639578509267	-20.008	12.2	1007.72	-0.42	-0.91	-0.21	181.5	-115.5	-408	0	0	2.782227	2.780176	2.78291	2.78291	2.783594	2.780176	2.777441	2.782227	2.780859	2.777441	2.780859	2.777441	2.778125	2.778809	2.780176	2.777441
1639578509276	-26.84	6.832	1005.768	-0.35	-0.84	-0.21	178.5	-115.5	-414	0	0	2.778809	2.778809	2.780176	2.778809	2.778809	2.782227	2.780176	2.78291	2.780859	2.777441	2.778809	2.777441	2.778809	2.778809	2.778809	2.778809
1639578509286	-21.96	11.224	1006.744	-0.49	-0.84	-0.21	178.5	-117	-418.5	0	0	2.780859	2.780859	2.780859	2.783594	2.780176	2.780176	2.778809	2.778809	2.780176	2.777441	2.778125	2.777441	2.780176	2.780176	2.780176	2.776758
1639578509296	-21.472	6.344	1009.184	-0.49	-0.77	-0.21	180	-120	-415.5	0	0	2.780176	2.780176	2.780176	2.783594	2.778809	2.783594	2.780176	2.778809	2.776758	2.776758	2.778125	2.777441	2.780176	2.780859	2.780859	2.778125
1639578509306	-25.376	7.808	1011.136	-0.49	-0.77	-0.21	181.5	-115.5	-414	0	0	2.778809	2.780859	2.780176	2.780176	2.78291	2.78291	2.780176	2.778125	2.782227	2.777441	2.777441	2.777441	2.778125	2.778125	2.782227	2.780176
1639578509316	-26.84	4.392	1008.208	-0.49	-0.84	-0.28	183	-121.5	-414	0	0	2.780859	2.782227	2.780859	2.778809	2.78291	2.782227	2.777441	2.782227	2.778125	2.781543	2.776758	2.778125	2.778809	2.777441	2.776758	2.780859
1639578509325	-21.472	8.784	1007.72	-0.42	-0.7	-0.21	183	-124.5	-420	0	0	2.777441	2.783594	2.777441	2.780859	2.780859	2.780176	2.777441	2.783594	2.778809	2.777441	2.778125	2.777441	2.777441	2.776758	2.782227	2.780859
1639578509335	-19.52	5.368	1008.208	-0.56	-0.84	-0.21	180	-121.5	-417	0	0	2.780176	2.782227	2.780859	2.780859	2.780176	2.778809	2.78291	2.780176	2.780859	2.778809	2.780859	2.780859	2.778125	2.777441	2.781543	2.777441
1639578509345	-22.448	8.296	1006.744	-0.56	-0.7	-0.21	177	-121.5	-415.5	0	0	2.780859	2.780176	2.782227	2.780176	2.778809	2.780176	2.777441	2.780859	2.778809	2.781543	2.778809	2.778809	2.777441	2.782227	2.777441	2.780176
1639578509355	-22.936	9.272	1007.232	-0.49	-0.77	-0.21	180	-117	-414	0	0	2.777441	2.778809	2.781543	2.778809	2.780859	2.783594	2.777441	2.780176	2.780859	2.778809	2.778809	2.778809	2.780859	2.778809	2.778809	2.778809
1639578509364	-20.496	5.856	1004.792	-0.42	-0.91	-0.14	181.5	-114	-417	0	0	2.783594	2.780859	2.777441	2.778809	2.780859	2.780859	2.782227	2.778809	2.778809	2.780176	2.776758	2.776758	2.777441	2.776758	2.782227	2.778809
1639578509374	-27.328	2.44	1007.72	-0.56	-0.91	-0.28	186	-114	-417	0	0	2.782227	2.780176	2.780859	2.780859	2.778809	2.78291	2.780859	2.777441	2.778809	2.782227	2.779492	2.780859	2.780176	2.778809	2.780859	2.781543
1639578509384	-22.936	9.272	1005.768	-0.49	-0.7	-0.35	180	-114	-417	0	0	2.780859	2.78291	2.780176	2.780176	2.777441	2.780859	2.776758	2.780176	2.778809	2.778125	2.780176	2.777441	2.776758	2.782227	2.776758	2.777441
1639578509394	-22.936	9.76	1015.528	-0.42	-0.91	-0.21	174	-115.5	-417	0	0	2.782227	2.780859	2.778809	2.778809	2.78291	2.782227	2.780176	2.780176	2.776758	2.780859	2.777441	2.780859	2.780176	2.780859	2.777441	2.778809
1639578509403	-21.472	0.976	1008.696	-0.42	-0.77	-0.28	175.5	-115.5	-417	0	0	2.778809	2.780176	2.780859	2.782227	2.780859	2.778809	2.78291	2.783594	2.780859	2.780176	2.778125	2.778809	2.776758	2.780859	2.782227	2.780176
1639578509413	-25.864	7.32	1012.6	-0.42	-0.84	-0.21	177	-117	-417	0	0	2.772656	2.780176	2.783594	2.780176	2.780859	2.778809	2.780859	2.783594	2.774707	2.774707	2.780176	2.777441	2.769238	2.776074	2.778125	2.782227
1639578509423	-18.544	7.808	1008.208	-0.49	-0.98	-0.28	177	-118.5	-417	0	0	2.782227	2.782227	2.777441	2.780859	2.78291	2.783594	2.783594	2.783594	2.778125	2.777441	2.780859	2.780859	2.778809	2.780176	2.780859	2.780176
1639578509433	-28.792	7.32	1011.136	-0.49	-0.84	-0.21	172.5	-118.5	-420	0	0	2.783594	2.777441	2.78291	2.778809	2.782227	2.780176	2.782227	2.783594	2.777441	2.780859	2.777441	2.782227	2.776758	2.777441	2.778125	2.780176
1639578509443	-20.984	2.44	1005.28	-0.63	-0.98	-0.21	172.5	-114	-415.5	0	0	2.782227	2.778809	2.78291	2.778809	2.777441	2.782227	2.782227	2.782227	2.778809	2.780176	2.777441	2.780176	2.780176	2.782227	2.778809	2.782227
1639578509452	-20.496	9.76	1004.792	-0.42	-0.77	-0.21	175.5	-112.5	-409.5	0	0	2.778809	2.780176	2.780859	2.780859	2.781543	2.778809	2.782227	2.780176	2.777441	2.777441	2.777441	2.776074	2.780859	2.778125	2.780176	2.778809
1639578509462	-24.4	4.88	1010.648	-0.56	-0.77	-0.21	178.5	-115.5	-409.5	0	0	2.777441	2.782227	2.777441	2.778809	2.780176	2.780176	2.777441	2.782227	2.780859	2.778809	2.778809	2.777441	2.780176	2.780176	2.780859	2.780176
1639578509472	-22.448	8.296	1012.6	-0.42	-0.84	-0.21	180	-120	-414	0	0	2.78291	2.780176	2.778809	2.780859	2.780859	2.781543	2.78291	2.783594	2.780176	2.777441	2.780859	2.777441	2.782227	2.776758	2.782227	2.780859
1639578509482	-20.496	10.736	1008.208	-0.56	-0.84	-0.21	181.5	-123	-417	0	0	2.780859	2.780176	2.782227	2.780176	2.777441	2.78291	2.782227	2.778809	2.780859	2.780176	2.778809	2.776758	2.778809	2.781543	2.781543	2.778125
1639578509491	-14.152	7.808	1012.112	-0.42	-0.84	-0.28	186	-118.5	-417	0	0	2.780176	2.778809	2.781543	2.776758	2.78291	2.778809	2.777441	2.778809	2.778809	2.782227	2.780859	2.778809	2.780859	2.777441	2.777441	2.777441
1639578509501	-20.008	10.248	1013.576	-0.56	-0.77	-0.28	184.5	-117	-423	0	0	2.777441	2.780859	2.777441	2.780176	2.782227	2.780176	2.780176	2.780176	2.777441	2.778809	2.778809	2.778125	2.778809	2.778809	2.780859	2.780176
1639578509511	-21.96	0.976	1015.04	-0.56	-0.84	-0.21	186	-121.5	-418.5	0	0	2.782227	2.777441	2.782227	2.778809	2.780176	2.780176	2.777441	2.780176	2.780859	2.778809	2.777441	2.780176	2.780859	2.778809	2.778125	2.782227
1639578509521	-23.424	8.296	1005.768	-0.49	-0.7	-0.21	183	-120	-414	0	0	2.780859	2.780176	2.780176	2.780859	2.778809	2.777441	2.780859	2.780859	2.776758	2.780176	2.780176	2.777441	2.780859	2.782227	2.777441	2.777441
1639578509530	-17.08	6.344	1013.088	-0.49	-0.84	-0.35	180	-117	-415.5	0	0	2.778125	2.780859	2.78291	2.780176	2.777441	2.783594	2.780176	2.780176	2.778125	2.777441	2.780859	2.778809	2.777441	2.776758	2.777441	2.778809
1639578509540	-21.472	6.344	1007.72	-0.42	-0.91	-0.28	180	-117	-415.5	0	0	2.782227	2.777441	2.778809	2.78291	2.780176	2.780176	2.778809	2.780176	2.780859	2.778125	2.777441	2.778125	2.780859	2.780176	2.777441	2.780176
1639578509550	-17.568	11.224	1004.792	-0.49	-0.91	-0.35	180	-118.5	-408	0	0	2.777441	2.780859	2.780176	2.780176	2.782227	2.783594	2.780859	2.777441	2.776758	2.776074	2.777441	2.778809	2.777441	2.780176	2.782227	2.778125
1639578509560	-21.472	12.2	1010.16	-0.42	-0.7	-0.35	175.5	-117	-408	0	0	2.783594	2.780176	2.780176	2.780176	2.780859	2.778809	2.782227	2.78291	2.778809	2.780859	2.778809	2.778809	2.777441	2.778809	2.781543	2.777441
1639578509569	-21.472	8.296	1008.208	-0.49	-0.98	-0.21	177	-112.5	-411	0	0	2.778809	2.780859	2.780176	2.778809	2.782227	2.780859	2.783594	2.781543	2.782227	2.778809	2.776758	2.778809	2.778809	2.778809	2.778809	2.780176
1639578509579	-24.888	12.688	1011.136	-0.56	-0.77	-0.21	184.5	-112.5	-412.5	0	0	2.778809	2.78291	2.782227	2.78291	2.780859	2.783594	2.782227	2.777441	2.780859	2.778125	2.778125	2.778809	2.778809	2.777441	2.780859	2.778809
1639578509589	-21.96	7.32	1009.672	-0.49	-0.91	-0.28	175.5	-115.5	-420	0	0	2.778809	2.776758	2.778809	2.78291	2.782227	2.780859	2.78291	2.780176	2.778809	2.777441	2.778125	2.780859	2.777441	2.777441	2.777441	2.781543
1639578509599	-22.448	5.368	1000.4	-0.49	-0.84	-0.14	168	-118.5	-417	0	0	2.778809	2.782227	2.783594	2.780859	2.777441	2.777441	2.780176	2.778125	2.778125	2.777441	2.776758	2.776758	2.780176	2.78291	2.777441	2.778125
1639578509609	-24.888	8.784	1012.112	-0.56	-0.77	-0.21	172.5	-120	-414	0	0	2.778809	2.778809	2.780859	2.78291	2.78291	2.781543	2.783594	2.780176	2.780859	2.780176	2.780859	2.782227	2.782227	2.780859	2.777441	2.780176
1639578509618	-20.984	5.368	1010.648	-0.49	-0.91	-0.21	178.5	-117	-415.5	0	0	2.782227	2.778809	2.782227	2.780176	2.782227	2.780176	2.778809	2.780859	2.778809	2.782227	2.780176	2.778809	2.778809	2.776758	2.782227	2.780859
1639578509628	-24.4	8.296	1014.552	-0.35	-0.84	-0.28	186	-114	-415.5	0	0	2.780176	2.780176	2.780859	2.78291	2.776758	2.777441	2.782227	2.778809	2.780176	2.778809	2.777441	2.776758	2.777441	2.780859	2.778809	2.776758
1639578509638	-22.936	6.832	1009.184	-0.56	-0.91	-0.21	184.5	-115.5	-418.5	0	0	2.780859	2.783594	2.780176	2.777441	2.78291	2.777441	2.777441	2.777441	2.780176	2.777441	2.778809	2.780176	2.780859	2.777441	2.780859	2.781543
1639578509648	-18.056	3.904	1006.744	-0.49	-0.91	-0.28	178.5	-115.5	-418.5	0	0	2.78291	2.778809	2.783594	2.78291	2.780176	2.782227	2.777441	2.780176	2.781543	2.778125	2.778809	2.781543	2.777441	2.777441	2.780859	2.780176
1639578509657	-21.96	8.784	1001.864	-0.49	-0.77	-0.28	177	-115.5	-420	0	0	2.78291	2.778809	2.78291	2.782227	2.783594	2.782227	2.778809	2.78291	2.778809	2.778809	2.778125	2.782227	2.776074	2.777441	2.778125	2.776074
1639578509667	-16.592	6.832	1007.72	-0.56	-0.98	-0.28	177	-112.5	-417	0	0	2.780176	2.777441	2.777441	2.783594	2.780859	2.78291	2.780859	2.780859	2.778809	2.778809	2.781543	2.778125	2.780859	2.777441	2.780859	2.781543
1639578509677	-21.96	7.32	1007.232	-0.42	-0.7	-0.28	181.5	-115.5	-415.5	0	0	2.778809	2.782227	2.782227	2.782227	2.777441	2.782227	2.778809	2.780176	2.778809	2.780859	2.780859	2.776758	2.777441	2.778125	2.778125	2.778125
1639578509687	-21.96	5.856	1006.256	-0.56	-0.77	-0.28	184.5	-121.5	-417	0	0	2.777441	2.782227	2.782227	2.778809	2.782227	2.778809	2.780859	2.780176	2.778125	2.777441	2.782227	2.780859	2.778809	2.778125	2.780859	2.780176
1639578509696	-22.448	10.736	1013.088	-0.42	-0.7	-0.21	180	-120	-412.5	0	0	2.78291	2.780176	2.777441	2.780176	2.780859	2.777441	2.780859	2.777441	2.777441	2.778125	2.780859	2.777441	2.778809	2.780176	2.778125	2.780176
1639578509706	-22.448	3.904	1003.816	-0.42	-0.84	-0.28	175.5	-121.5	-411	0	0	2.783594	2.777441	2.777441	2.782227	2.78291	2.78291	2.780176	2.782227	2.777441	2.776758	2.780859	2.777441	2.778809	2.782227	2.777441	2.778809
1639578509716	-28.792	9.76	1013.576	-0.56	-0.77	-0.28	178.5	-123	-414	0	0	2.780176	2.782227	2.777441	2.780859	2.777441	2.778809	2.778809	2.778809	2.780859	2.778809	2.780859	2.778809	2.780859	2.778809	2.780176	2.782227
1639578509726	-21.472	13.664	1006.744	-0.56	-0.77	-0.28	178.5	-120	-414	0	0	2.780859	2.777441	2.780859	2.783594	2.776758	2.777441	2.780176	2.780176	2.777441	2.778809	2.782227	2.778125	2.777441	2.780859	2.777441	2.776074
1639578509735	-19.52	4.88	1007.72	-0.56	-0.98	-0.14	177	-112.5	-418.5	0	0	2.780859	2.780859	2.771289	2.781543	2.781543	2.780176	2.770605	2.78291	2.780859	2.780859	2.778125	2.776758	2.778809	2.780859	2.774707	2.776758
1639578509745	-21.472	17.08	1010.648	-0.49	-0.84	-0.28	177	-115.5	-418.5	0	0	2.782227	2.780176	2.782227	2.780176	2.782227	2.782227	2.78291	2.78291	2.780176	2.776758	2.780859	2.778809	2.780176	2.781543	2.777441	2.780176
1639578509755	-27.328	5.368	1009.672	-0.56	-0.77	-0.28	175.5	-117	-412.5	0	0	2.780176	2.782227	2.780176	2.780859	2.78291	2.782227	2.782227	2.780176	2.777441	2.780859	2.780176	2.78291	2.782227	2.778809	2.777441	2.780176
1639578509765	-23.912	6.832	1010.648	-0.49	-0.84	-0.28	177	-117	-414	0	0	2.778809	2.782227	2.777441	2.780176	2.780176	2.778809	2.780859	2.778809	2.778809	2.777441	2.782227	2.778809	2.777441	2.778809	2.777441	2.776758
1639578509775	-25.376	3.416	1005.28	-0.49	-0.77	-0.35	178.5	-118.5	-414	0	0	2.780859	2.782227	2.780859	2.780859	2.780176	2.78291	2.782227	2.78291	2.780859	2.777441	2.777441	2.778125	2.780859	2.778125	2.782227	2.780176
1639578509784	-29.28	6.832	1009.184	-0.49	-0.77	-0.21	181.5	-114	-414	0	0	2.778809	2.783594	2.780176	2.783594	2.780176	2.780176	2.78291	2.782227	2.780176	2.778809	2.777441	2.777441	2.778125	2.781543	2.778809	2.778809
1639578509794	-23.912	5.368	1008.208	-0.49	-0.77	-0.21	180	-115.5	-414	0	0	2.777441	2.78291	2.780176	2.78291	2.780176	2.780859	2.780176	2.777441	2.778125	2.780176	2.778125	2.780859	2.777441	2.778809	2.776758	2.777441
1639578509804	-20.984	10.736	1008.696	-0.42	-0.77	-0.21	172.5	-117	-412.5	0	0	2.78291	2.782227	2.778809	2.778809	2.777441	2.777441	2.780859	2.782227	2.777441	2.780859	2.778125	2.778809	2.776758	2.780176	2.778125	2.777441
1639578509814	-16.592	10.248	1005.768	-0.42	-0.84	-0.21	174	-118.5	-417	0	0	2.780859	2.780176	2.778809	2.780176	2.777441	2.780859	2.778125	2.78291	2.777441	2.778125	2.778125	2.777441	2.777441	2.778125	2.780859	2.778809
1639578509823	-23.424	4.392	1007.72	-0.49	-0.77	-0.28	172.5	-121.5	-417	0	0	2.781543	2.777441	2.780859	2.782227	2.778809	2.778809	2.778809	2.78291	2.777441	2.777441	2.778125	2.776758	2.777441	2.777441	2.778809	2.780176
1639578509833	-23.424	3.904	1006.256	-0.49	-0.77	-0.28	172.5	-117	-412.5	0	0	2.780859	2.78291	2.777441	2.780859	2.780859	2.78291	2.780176	2.780176	2.778125	2.778125	2.776758	2.778809	2.777441	2.780859	2.778809	2.778809
1639578509843	-24.4	5.856	1009.184	-0.56	-0.84	-0.28	174	-114	-414	0	0	2.780859	2.780859	2.782227	2.78291	2.780176	2.780176	2.780176	2.777441	2.777441	2.778809	2.777441	2.780176	2.780176	2.776758	2.777441	2.778809
1639578509853	-18.544	0	1009.672	-0.42	-0.77	-0.28	178.5	-114	-412.5	0	0	2.780176	2.780176	2.78291	2.778809	2.780176	2.780859	2.78291	2.780176	2.778809	2.778809	2.782227	2.778125	2.780859	2.778809	2.782227	2.778125
1639578509862	-22.448	6.832	1004.304	-0.56	-0.77	-0.28	180	-118.5	-414	0	0	2.777441	2.777441	2.780176	2.777441	2.782227	2.780176	2.777441	2.780176	2.778809	2.782227	2.778809	2.777441	2.778125	2.782227	2.777441	2.780859
1639578509872	-20.008	6.832	1004.792	-0.56	-0.91	-0.21	178.5	-120	-415.5	0	0	2.780859	2.778809	2.782227	2.780176	2.78291	2.780859	2.782227	2.777441	2.778125	2.777441	2.780176	2.778125	2.778125	2.777441	2.776758	2.778809
1639578509882	-22.448	8.296	1008.696	-0.49	-0.98	-0.14	184.5	-118.5	-414	0	0	2.782227	2.78291	2.78291	2.782227	2.782227	2.777441	2.777441	2.780176	2.781543	2.778809	2.782227	2.777441	2.778125	2.780176	2.781543	2.777441
1639578509892	-18.056	11.224	1008.696	-0.42	-0.77	-0.21	181.5	-117	-412.5	0	0	2.780176	2.780859	2.783594	2.782227	2.780176	2.78291	2.782227	2.780176	2.778809	2.777441	2.780859	2.778809	2.778809	2.780859	2.780176	2.778125
1639578509901	-22.936	9.272	1009.184	-0.56	-0.84	-0.21	172.5	-112.5	-412.5	0	0	2.780176	2.777441	2.780176	2.780859	2.778809	2.778809	2.783594	2.780176	2.776758	2.780859	2.782227	2.782227	2.778809	2.780176	2.780859	2.780859
1639578509911	-22.448	8.784	1010.648	-0.49	-0.91	-0.21	174	-112.5	-415.5	0	0	2.780176	2.781543	2.78291	2.780176	2.780176	2.780176	2.778809	2.783594	2.780176	2.780859	2.777441	2.778809	2.777441	2.777441	2.780859	2.776758
1639578509921	-18.056	10.736	1005.768	-0.49	-0.84	-0.14	178.5	-115.5	-414	0	0	2.783594	2.780176	2.778809	2.777441	2.782227	2.778809	2.782227	2.782227	2.778809	2.778809	2.782227	2.778125	2.780859	2.776758	2.777441	2.777441
1639578509931	-28.792	6.832	1011.136	-0.42	-0.84	-0.28	183	-118.5	-414	0	0	2.780176	2.780176	2.78291	2.783594	2.780859	2.780859	2.778809	2.782227	2.777441	2.778809	2.777441	2.778809	2.780176	2.778125	2.780859	2.778125
1639578509941	-21.472	2.44	1003.816	-0.49	-0.7	-0.21	186	-117	-415.5	0	0	2.777441	2.777441	2.780859	2.780176	2.778809	2.776758	2.777441	2.778809	2.780859	2.778809	2.776758	2.780176	2.777441	2.777441	2.778809	2.778125
1639578509950	-20.008	5.856	1005.28	-0.49	-0.84	-0.28	181.5	-115.5	-414	0	0	2.782227	2.78291	2.778809	2.780176	2.780859	2.780176	2.78291	2.783594	2.778125	2.782227	2.777441	2.778809	2.780859	2.780176	2.780176	2.780859
1639578509960	-22.448	3.416	1005.28	-0.35	-0.91	-0.21	175.5	-118.5	-414	0	0	2.778809	2.783594	2.778809	2.780176	2.780176	2.780859	2.78291	2.780859	2.782227	2.780859	2.780176	2.777441	2.780859	2.780176	2.780859	2.777441
1639578509970	-17.08	11.712	1008.696	-0.49	-0.91	-0.28	178.5	-117	-418.5	0	0	2.780176	2.780176	2.778809	2.783594	2.780859	2.778809	2.782227	2.78291	2.778809	2.777441	2.778125	2.777441	2.778125	2.778125	2.778809	2.780176
1639578509980	-17.568	3.416	1011.624	-0.49	-0.84	-0.28	175.5	-118.5	-420	0	0	2.783594	2.783594	2.780176	2.781543	2.782227	2.775391	2.780176	2.782227	2.777441	2.778125	2.777441	2.777441	2.778125	2.78291	2.777441	2.777441
1639578509989	-21.472	14.64	1007.232	-0.56	-0.84	-0.35	175.5	-121.5	-417	0	0	2.780176	2.778809	2.778809	2.78291	2.778809	2.78291	2.777441	2.782227	2.780176	2.778809	2.777441	2.778809	2.778125	2.782227	2.778809	2.778809
1639578509999	-20.496	9.272	1013.576	-0.49	-0.91	-0.21	178.5	-112.5	-412.5	0	0	2.780859	2.780176	2.778809	2.778809	2.780859	2.780176	2.780176	2.778809	2.777441	2.782227	2.780859	2.780859	2.777441	2.778809	2.778809	2.782227
1639578510009	-20.984	10.736	1007.72	-0.42	-0.84	-0.14	178.5	-108	-417	0	0	2.778809	2.780859	2.777441	2.780176	2.778809	2.777441	2.783594	2.780176	2.776758	2.780859	2.778809	2.778809	2.778125	2.777441	2.782227	2.778809
1639578510019	-21.96	6.344	1007.72	-0.49	-0.84	-0.28	180	-115.5	-415.5	0	0	2.782227	2.777441	2.780859	2.780859	2.778809	2.782227	2.777441	2.780859	2.778125	2.777441	2.777441	2.780176	2.778125	2.777441	2.777441	2.780859
1639578510028	-19.52	8.784	1014.064	-0.56	-0.77	-0.28	178.5	-118.5	-415.5	0	0	2.778809	2.778809	2.778809	2.78291	2.783594	2.780176	2.78291	2.780176	2.777441	2.778125	2.777441	2.780859	2.778809	2.776758	2.778809	2.777441
1639578510038	-22.448	11.224	1007.72	-0.42	-0.84	-0.21	180	-115.5	-414	0	0	2.782227	2.782227	2.78291	2.780859	2.780859	2.780176	2.782227	2.783594	2.777441	2.780859	2.777441	2.778125	2.780859	2.777441	2.780859	2.78291
1639578510048	-24.4	9.76	1008.208	-0.42	-0.84	-0.28	184.5	-117	-415.5	0	0	2.782227	2.780176	2.780176	2.780176	2.778809	2.780176	2.783594	2.780859	2.777441	2.778809	2.780859	2.778809	2.777441	2.782227	2.778125	2.780176
1639578510058	-17.568	-0.976	1009.672	-0.49	-0.91	-0.21	186	-111	-417	0	0	2.77334	2.771289	2.780859	2.780859	2.776074	2.78291	2.780176	2.780176	2.779492	2.778809	2.780859	2.780176	2.777441	2.778809	2.780176	2.777441
1639578510068	-19.52	7.808	1008.208	-0.49	-0.77	-0.21	184.5	-114	-414	0	0	2.780176	2.782227	2.780176	2.780859	2.782227	2.776758	2.782227	2.780176	2.780859	2.777441	2.780859	2.782227	2.778809	2.778809	2.780176	2.780176
1639578510077	-23.424	6.832	1005.28	-0.56	-0.77	-0.42	180	-120	-415.5	0	0	2.777441	2.782227	2.778809	2.783594	2.780859	2.777441	2.780859	2.780859	2.778809	2.780859	2.778809	2.777441	2.778125	2.778809	2.778809	2.777441
1639578510087	-24.4	4.392	1009.184	-0.49	-0.91	-0.21	180	-121.5	-415.5	0	0	2.783594	2.780176	2.780176	2.780176	2.778809	2.777441	2.783594	2.782227	2.781543	2.778809	2.780176	2.780176	2.778125	2.782227	2.780859	2.777441
1639578510097	-20.496	8.296	1007.72	-0.42	-0.7	-0.28	175.5	-118.5	-415.5	0	0	2.777441	2.780859	2.780176	2.782227	2.783594	2.782227	2.778809	2.780176	2.780176	2.780176	2.777441	2.778125	2.778809	2.780176	2.778125	2.780176
1639578510107	-23.912	11.712	1007.232	-0.56	-0.77	-0.28	172.5	-115.5	-415.5	0	0	2.777441	2.782227	2.78291	2.777441	2.783594	2.780176	2.782227	2.780859	2.776758	2.782227	2.777441	2.780176	2.780176	2.780176	2.778809	2.776758
1639578510116	-23.912	1.952	1014.552	-0.49	-0.77	-0.21	177	-115.5	-417	0	0	2.780176	2.780176	2.778809	2.780176	2.780176	2.78291	2.783594	2.778809	2.780176	2.777441	2.780859	2.778809	2.778809	2.780859	2.780859	2.780176
1639578510126	-20.984	12.2	1002.84	-0.56	-0.84	-0.21	172.5	-115.5	-418.5	0	0	2.78291	2.780176	2.780176	2.782227	2.780859	2.780176	2.781543	2.777441	2.778809	2.777441	2.778809	2.778125	2.782227	2.780176	2.777441	2.777441
1639578510136	-21.472	8.784	1006.256	-0.56	-0.77	-0.35	174	-120	-421.5	0	0	2.78291	2.778809	2.780176	2.78291	2.780859	2.777441	2.783594	2.780859	2.778125	2.778809	2.778125	2.780859	2.780176	2.777441	2.778809	2.778809
1639578510146	-25.376	9.76	1014.552	-0.49	-0.91	-0.28	175.5	-120	-421.5	0	0	2.780859	2.780176	2.778809	2.78291	2.777441	2.778809	2.780176	2.780176	2.778809	2.777441	2.777441	2.775391	2.776758	2.780859	2.780176	2.778809
1639578510155	-20.008	11.224	1005.28	-0.49	-0.91	-0.21	174	-112.5	-414	0	0	2.780176	2.78291	2.778809	2.780859	2.78291	2.778809	2.777441	2.783594	2.780176	2.778809	2.780859	2.780176	2.777441	2.780176	2.778125	2.777441
1639578510165	-21.96	10.736	1008.696	-0.56	-0.77	-0.28	180	-114	-409.5	0	0	2.782227	2.782227	2.782227	2.777441	2.78291	2.780176	2.783594	2.780859	2.778809	2.780176	2.780859	2.780859	2.777441	2.780176	2.778125	2.778125
1639578510175	-20.008	6.832	1013.576	-0.49	-0.84	-0.14	180	-117	-415.5	0	0	2.777441	2.780176	2.780176	2.777441	2.783594	2.780176	2.780176	2.780859	2.777441	2.778809	2.780859	2.778125	2.778809	2.780176	2.780859	2.778809
1639578510185	-23.424	8.784	1011.136	-0.49	-0.84	-0.28	184.5	-109.5	-418.5	0	0	2.777441	2.780859	2.780859	2.780859	2.782227	2.780859	2.778125	2.78291	2.777441	2.778809	2.780176	2.778809	2.780176	2.778809	2.778809	2.777441
1639578510194	-21.96	4.88	1008.696	-0.63	-0.91	-0.28	183	-109.5	-412.5	0	0	2.783594	2.777441	2.780176	2.783594	2.780176	2.78291	2.777441	2.78291	2.778809	2.778809	2.780176	2.778809	2.777441	2.780859	2.780859	2.780176
1639578510204	-27.816	8.784	1008.208	-0.63	-0.77	-0.28	180	-114	-414	0	0	2.777441	2.78291	2.780176	2.783594	2.778809	2.777441	2.780176	2.782227	2.777441	2.778125	2.780859	2.780176	2.778125	2.778125	2.780176	2.777441
1639578510214	-24.4	10.736	1011.136	-0.56	-0.63	-0.21	181.5	-112.5	-420	0	0	2.780176	2.778809	2.780859	2.780859	2.780859	2.781543	2.781543	2.782227	2.782227	2.780859	2.778809	2.780859	2.778809	2.778809	2.778809	2.780176
1639578510224	-21.472	4.392	1010.648	-0.56	-0.77	-0.21	184.5	-114	-421.5	0	0	2.780176	2.777441	2.777441	2.777441	2.781543	2.783594	2.778809	2.78291	2.780176	2.776758	2.777441	2.780859	2.780859	2.777441	2.778809	2.780859
1639578510234	-17.08	8.784	1010.648	-0.56	-0.91	-0.21	184.5	-118.5	-420	0	0	2.782227	2.782227	2.778809	2.780176	2.780859	2.780176	2.780176	2.780859	2.778125	2.780859	2.776758	2.780859	2.778809	2.777441	2.778809	2.780859
1639578510243	-17.08	9.76	1005.768	-0.56	-0.84	-0.21	178.5	-114	-420	0	0	2.780176	2.778809	2.783594	2.78291	2.780176	2.783594	2.782227	2.780176	2.777441	2.777441	2.776758	2.780859	2.778809	2.778809	2.777441	2.776758
1639578510253	-20.496	3.904	1010.648	-0.56	-0.77	-0.35	178.5	-117	-420	0	0	2.780176	2.777441	2.780859	2.778809	2.782227	2.783594	2.780176	2.780176	2.777441	2.780859	2.777441	2.778125	2.776074	2.776758	2.778809	2.780859
1639578510263	-17.08	7.32	1015.04	-0.49	-0.7	-0.21	183	-117	-415.5	0	0	2.780176	2.780176	2.777441	2.778809	2.780176	2.78291	2.778809	2.780176	2.778809	2.777441	2.778125	2.777441	2.778809	2.777441	2.780176	2.780176
1639578510273	-25.864	10.248	1008.208	-0.49	-0.7	-0.28	181.5	-114	-414	0	0	2.780176	2.780176	2.780859	2.783594	2.782227	2.778809	2.782227	2.780859	2.778809	2.777441	2.778809	2.780176	2.778809	2.777441	2.780176	2.782227
1639578510282	-25.376	9.76	1009.184	-0.63	-0.63	-0.28	181.5	-118.5	-417	0	0	2.782227	2.782227	2.777441	2.777441	2.78291	2.780176	2.780176	2.780176	2.778125	2.778125	2.780859	2.778809	2.780176	2.778809	2.780859	2.780859
1639578510292	-25.864	7.808	1008.208	-0.49	-0.84	-0.28	184.5	-123	-415.5	0	0	2.780176	2.778809	2.782227	2.78291	2.780176	2.776758	2.78291	2.780176	2.778809	2.780859	2.780859	2.778809	2.780176	2.778809	2.780176	2.778809
1639578510302	-22.936	4.392	1009.672	-0.63	-0.77	-0.28	180	-120	-415.5	0	0	2.780176	2.782227	2.777441	2.780859	2.780176	2.78291	2.78291	2.780859	2.780859	2.778809	2.778809	2.780859	2.780859	2.778125	2.780176	2.778125
1639578510312	-21.472	6.832	1014.064	-0.63	-0.77	-0.28	175.5	-117	-421.5	0	0	2.778809	2.777441	2.780176	2.783594	2.780859	2.778809	2.781543	2.781543	2.780176	2.778809	2.778809	2.780859	2.777441	2.776758	2.776758	2.777441
1639578510321	-4.88	5.856	1015.04	-0.49	-0.98	-0.28	175.5	-114	-420	0	0	2.776758	2.780859	2.780176	2.780176	2.780859	2.777441	2.780176	2.777441	2.780859	2.778125	2.778809	2.777441	2.782227	2.778809	2.779492	2.776758
1639578510331	-3.904	7.32	1003.816	-0.63	0.49	-0.35	181.5	-114	-418.5	0	0	2.780859	2.783594	2.780176	2.78291	2.782227	2.780859	2.778809	2.778809	2.780176	2.777441	2.777441	2.780859	2.777441	2.778809	2.778809	2.780859
1639578510341	-35.624	8.296	1000.888	-0.42	-1.4	-0.35	187.5	-114	-418.5	0	0	2.780176	2.780176	2.777441	2.783594	2.780176	2.781543	2.78291	2.78291	2.782227	2.780859	2.780859	2.778809	2.778809	2.782227	2.780859	2.780859
1639578510351	-37.088	-1.464	1003.816	0.49	-0.21	-0.28	187.5	-118.5	-415.5	0	0	2.778809	2.780176	2.783594	2.782227	2.778809	2.778809	2.782227	2.783594	2.777441	2.780859	2.780176	2.780176	2.782227	2.778125	2.777441	2.780176
1639578510360	-22.448	10.248	1006.744	0.28	-1.26	-0.21	183	-117	-417	0	0	2.78291	2.78291	2.780859	2.782227	2.783594	2.782227	2.780176	2.783594	2.777441	2.780859	2.780176	2.778809	2.778125	2.777441	2.780176	2.780176
1639578510370	-29.28	5.856	1016.016	-0.91	-0.84	-0.28	184.5	-112.5	-415.5	0	0	2.780176	2.780176	2.782227	2.780176	2.780176	2.782227	2.78291	2.782227	2.778809	2.780176	2.778809	2.777441	2.780176	2.777441	2.780176	2.780176
1639578510380	-3.904	13.176	1019.432	-0.77	-0.77	-0.21	184.5	-112.5	-415.5	0	0	2.783594	2.780176	2.780859	2.780176	2.780859	2.780176	2.78291	2.78291	2.776758	2.780859	2.778809	2.779492	2.780176	2.780859	2.780859	2.781543
1639578510390	-17.08	17.568	1005.28	-0.42	-0.91	-0.28	177	-117	-412.5	0	0	2.78291	2.778809	2.780176	2.782227	2.780859	2.77334	2.776758	2.783594	2.778125	2.777441	2.778809	2.778809	2.777441	2.778125	2.780176	2.780859
1639578510400	-20.496	8.784	1015.04	0	-0.35	-0.42	175.5	-114	-409.5	0	0	2.782227	2.777441	2.778809	2.778809	2.782227	2.780176	2.780859	2.778809	2.780176	2.778125	2.778125	2.777441	2.778809	2.777441	2.780859	2.780859
1639578510409	-25.864	-1.952	1010.648	-0.84	-0.49	-0.42	181.5	-111	-409.5	0	0	2.780859	2.780176	2.780859	2.780176	2.783594	2.780859	2.778809	2.780176	2.780859	2.777441	2.778809	2.778125	2.778809	2.780176	2.78291	2.778125
1639578510419	-20.008	5.368	1003.816	-0.63	-0.63	-0.21	177	-117	-414	0	0	2.783594	2.78291	2.777441	2.782227	2.78291	2.78291	2.78291	2.78291	2.778809	2.778809	2.780176	2.780176	2.782227	2.780859	2.782227	2.780859
1639578510429	-24.4	9.272	1010.16	-0.56	-0.7	-0.21	177	-115.5	-417	0	0	2.777441	2.780176	2.778809	2.782227	2.780176	2.778809	2.777441	2.780176	2.781543	2.776758	2.777441	2.777441	2.782227	2.778125	2.778809	2.782227
1639578510439	-12.688	9.272	1008.208	-0.35	-0.56	-0.21	178.5	-115.5	-414	0	0	2.78291	2.782227	2.778809	2.780176	2.780176	2.780176	2.778809	2.777441	2.778125	2.777441	2.777441	2.778125	2.778809	2.780176	2.777441	2.778809
1639578510448	-29.28	7.32	1012.6	-0.56	-0.63	-0.28	180	-120	-417	0	0	2.780859	2.780176	2.780859	2.780859	2.780176	2.780176	2.778809	2.78291	2.782227	2.776758	2.781543	2.781543	2.778809	2.780859	2.777441	2.777441
1639578510458	-29.28	7.808	1014.064	-0.56	-0.7	-0.28	178.5	-124.5	-423	0	0	2.78291	2.780176	2.780176	2.780176	2.78291	2.78291	2.777441	2.778809	2.778125	2.780176	2.778809	2.780176	2.778125	2.778809	2.782227	2.777441
1639578510468	-24.888	4.392	1003.328	-0.28	-0.7	-0.28	175.5	-126	-423	0	0	2.780859	2.780176	2.780176	2.782227	2.778809	2.78291	2.782227	2.780176	2.780859	2.780176	2.778809	2.780859	2.777441	2.777441	2.777441	2.776758
1639578510478	-21.96	6.832	1007.232	-0.77	-0.84	-0.28	177	-123	-420	0	0	2.780176	2.778125	2.780176	2.782227	2.783594	2.780176	2.778809	2.780859	2.780859	2.782227	2.777441	2.777441	2.780176	2.777441	2.777441	2.777441
1639578510487	-25.376	4.88	1007.232	-0.7	-0.7	-0.28	180	-124.5	-414	0	0	2.783594	2.782227	2.778809	2.780176	2.782227	2.777441	2.782227	2.780176	2.778809	2.777441	2.782227	2.778809	2.778125	2.778125	2.780859	2.778809
1639578510497	-8.784	8.296	1010.16	-0.7	-0.84	-0.14	181.5	-123	-411	0	0	2.780176	2.777441	2.778809	2.782227	2.780859	2.78291	2.777441	2.777441	2.780859	2.780176	2.776758	2.780176	2.782227	2.778125	2.780176	2.778125
1639578510507	-20.984	8.296	1008.208	-0.63	-0.56	-0.21	178.5	-115.5	-412.5	0	0	2.78291	2.778809	2.780176	2.78291	2.777441	2.780176	2.780176	2.780176	2.782227	2.780859	2.778125	2.780859	2.780176	2.778125	2.776758	2.780859
1639578510517	-25.864	5.856	1007.232	-0.63	-0.42	-0.35	177	-115.5	-414	0	0	2.782227	2.78291	2.778809	2.780859	2.782227	2.780859	2.78291	2.780859	2.778809	2.780859	2.777441	2.778809	2.780859	2.780859	2.778125	2.778125
1639578510526	-28.304	5.368	1001.376	-0.49	-0.77	-0.21	175.5	-118.5	-414	0	0	2.780176	2.782227	2.78291	2.782227	2.78291	2.78291	2.783594	2.78291	2.782227	2.778809	2.778125	2.780176	2.777441	2.778125	2.778125	2.782227
1639578510536	-29.768	6.832	1007.72	-0.49	-0.7	-0.21	177	-115.5	-414	0	0	2.780859	2.78291	2.780176	2.781543	2.780176	2.78291	2.78291	2.777441	2.778125	2.780859	2.777441	2.778809	2.777441	2.782227	2.778125	2.778809
1639578510546	-32.208	10.736	1003.816	-0.56	-0.84	-0.21	181.5	-117	-420	0	0	2.782227	2.78291	2.780176	2.78291	2.778809	2.780859	2.782227	2.782227	2.780859	2.777441	2.780859	2.782227	2.780859	2.778125	2.780859	2.780176
1639578510556	-26.84	11.224	1006.744	-0.56	-0.98	-0.21	183	-120	-417	0	0	2.778809	2.777441	2.78291	2.78291	2.777441	2.780176	2.781543	2.778809	2.776758	2.778125	2.777441	2.777441	2.780859	2.778809	2.778125	2.780176
1639578510566	-18.056	6.344	1010.16	-0.56	-0.63	-0.28	181.5	-115.5	-412.5	0	0	2.778809	2.777441	2.776758	2.778809	2.778809	2.778809	2.78291	2.778809	2.780859	2.780859	2.777441	2.780859	2.778809	2.780859	2.780859	2.777441
1639578510575	-15.616	8.784	1011.624	-0.56	-0.77	-0.28	181.5	-115.5	-411	0	0	2.780176	2.778809	2.780859	2.780176	2.778809	2.780859	2.780176	2.780176	2.778809	2.778125	2.780859	2.782227	2.780176	2.777441	2.778125	2.777441
1639578510585	-14.152	7.808	1009.672	-0.49	-0.77	-0.21	184.5	-118.5	-414	0	0	2.780176	2.783594	2.778809	2.778809	2.780176	2.782227	2.783594	2.780176	2.778125	2.778809	2.777441	2.781543	2.778125	2.778809	2.780176	2.777441
1639578510595	-17.08	0	1016.016	-0.63	-0.98	-0.21	180	-118.5	-421.5	0	0	2.780176	2.780176	2.780176	2.780859	2.780859	2.777441	2.782227	2.782227	2.778125	2.782227	2.778125	2.778125	2.780859	2.777441	2.778125	2.777441
1639578510605	-8.296	7.32	1003.816	-0.56	-0.56	-0.21	175.5	-117	-421.5	0	0	2.782227	2.782227	2.78291	2.780176	2.780176	2.777441	2.781543	2.778809	2.778809	2.778809	2.779492	2.780859	2.778125	2.777441	2.778125	2.778809
1639578510614	-22.936	9.76	1014.064	-0.7	-0.63	-0.28	178.5	-118.5	-418.5	0	0	2.780859	2.778809	2.778809	2.782227	2.782227	2.777441	2.783594	2.777441	2.777441	2.780176	2.776758	2.778809	2.78291	2.778809	2.780859	2.778809
1639578510624	-30.744	9.76	1002.352	-0.42	-0.63	-0.35	177	-120	-414	0	0	2.78291	2.777441	2.778809	2.780859	2.776758	2.780859	2.780859	2.783594	2.777441	2.779492	2.778125	2.778125	2.782227	2.778809	2.777441	2.778809
1639578510634	-38.064	6.832	1003.816	-0.42	-0.63	-0.21	178.5	-115.5	-414	0	0	2.782227	2.778809	2.777441	2.78291	2.777441	2.780176	2.780859	2.782227	2.780176	2.780859	2.778809	2.777441	2.778809	2.778809	2.778809	2.780859
1639578510644	-30.744	6.832	1000.888	-0.42	-0.91	-0.35	183	-114	-421.5	0	0	2.780176	2.78291	2.778809	2.777441	2.781543	2.780859	2.782227	2.78291	2.78291	2.777441	2.778809	2.782227	2.777441	2.778125	2.777441	2.778125
1639578510653	-19.032	20.984	1007.232	-0.49	-1.12	-0.28	183	-114	-421.5	0	0	2.780176	2.780176	2.780176	2.78291	2.780176	2.782227	2.780176	2.782227	2.777441	2.780859	2.778125	2.778125	2.780859	2.780859	2.777441	2.780176
1639578510663	-13.664	16.104	1006.256	-0.56	-1.19	-0.21	178.5	-115.5	-417	0	0	2.780176	2.780859	2.782227	2.778125	2.776758	2.782227	2.78291	2.780859	2.776758	2.777441	2.780859	2.777441	2.778809	2.777441	2.782227	2.780176
1639578510673	-11.712	7.808	1016.504	-0.42	-0.98	-0.28	177	-118.5	-423	0	0	2.783594	2.780176	2.780859	2.777441	2.78291	2.777441	2.78291	2.782227	2.778809	2.777441	2.778125	2.780859	2.778809	2.780176	2.778809	2.778809
1639578510683	-18.056	7.808	1010.16	-0.49	-0.84	-0.35	177	-123	-421.5	0	0	2.778809	2.780176	2.782227	2.780176	2.778809	2.782227	2.778809	2.782227	2.782227	2.778809	2.777441	2.777441	2.778809	2.778125	2.780859	2.780176
1639578510693	-20.008	1.952	1015.528	-0.56	-0.63	-0.28	175.5	-120	-417	0	0	2.780176	2.778809	2.782227	2.782227	2.780859	2.78291	2.780859	2.783594	2.777441	2.777441	2.777441	2.782227	2.781543	2.777441	2.777441	2.780176
1639578510702	-28.304	2.44	998.936	-0.56	-0.56	-0.28	175.5	-115.5	-418.5	0	0	2.780859	2.782227	2.781543	2.78291	2.778809	2.780859	2.778809	2.78291	2.780859	2.778809	2.780859	2.778125	2.777441	2.778809	2.777441	2.777441
1639578510712	-24.4	2.928	1007.232	-0.42	-0.7	-0.28	181.5	-118.5	-414	0	0	2.776758	2.776074	2.781543	2.780176	2.780176	2.78291	2.780176	2.782227	2.772656	2.780176	2.781543	2.778809	2.778125	2.778125	2.777441	2.777441
1639578510722	-32.696	1.952	1009.184	-0.49	-0.91	-0.35	178.5	-120	-414	0	0	2.780176	2.780176	2.777441	2.780176	2.778809	2.782227	2.78291	2.782227	2.778125	2.780859	2.780176	2.778809	2.777441	2.777441	2.78291	2.780176
1639578510732	-24.4	3.416	1004.792	-0.49	-0.84	-0.21	175.5	-123	-417	0	0	2.78291	2.780859	2.777441	2.781543	2.782227	2.780859	2.780176	2.782227	2.778809	2.782227	2.780176	2.778125	2.778125	2.778809	2.778809	2.776758
1639578510741	-23.424	5.368	1005.28	-0.35	-0.91	-0.28	175.5	-121.5	-415.5	0	0	2.780176	2.78291	2.782227	2.78291	2.780859	2.780176	2.780176	2.777441	2.780859	2.780859	2.778809	2.778809	2.778809	2.778809	2.777441	2.780859
1639578510751	-23.912	2.44	1012.6	-0.49	-1.19	-0.28	177	-118.5	-418.5	0	0	2.780176	2.780176	2.78291	2.780859	2.778809	2.780859	2.777441	2.780176	2.778809	2.778809	2.780859	2.780859	2.778125	2.778125	2.782227	2.781543
1639578510761	-16.104	5.368	1012.6	-0.49	-0.98	-0.28	177	-118.5	-412.5	0	0	2.778809	2.782227	2.778809	2.780859	2.780859	2.777441	2.780859	2.780176	2.780859	2.778809	2.777441	2.780859	2.781543	2.780859	2.780176	2.778125
1639578510771	-17.08	6.832	1010.648	-0.56	-0.7	-0.35	180	-121.5	-411	0	0	2.777441	2.778809	2.778809	2.778809	2.78291	2.780176	2.780859	2.780859	2.777441	2.777441	2.777441	2.778809	2.778809	2.780859	2.776758	2.780176
1639578510780	-21.472	8.784	1010.648	-0.42	-0.7	-0.21	181.5	-121.5	-412.5	0	0	2.780176	2.777441	2.780176	2.782227	2.780176	2.780176	2.781543	2.782227	2.776758	2.778809	2.780859	2.777441	2.778809	2.777441	2.778125	2.778125
1639578510790	-24.888	11.712	1004.304	-0.49	-0.49	-0.28	177	-112.5	-415.5	0	0	2.780176	2.778809	2.778809	2.782227	2.780176	2.777441	2.782227	2.780176	2.780859	2.780859	2.778125	2.778809	2.778125	2.780859	2.777441	2.777441
1639578510800	-26.352	9.76	1009.672	-0.49	-0.56	-0.21	174	-111	-414	0	0	2.780859	2.778809	2.780176	2.776074	2.780859	2.780859	2.780176	2.783594	2.778125	2.777441	2.780176	2.780176	2.780859	2.778125	2.778809	2.781543
1639578510810	-26.352	4.88	1007.232	-0.56	-0.56	-0.35	181.5	-111	-414	0	0	2.78291	2.78291	2.780859	2.778809	2.778809	2.780176	2.780176	2.783594	2.780859	2.777441	2.782227	2.782227	2.778125	2.776758	2.777441	2.778809
1639578510819	-27.816	6.344	1006.256	-0.42	-0.84	-0.28	180	-112.5	-417	0	0	2.783594	2.782227	2.777441	2.780176	2.780176	2.777441	2.780176	2.78291	2.780859	2.778125	2.780176	2.780859	2.778809	2.776758	2.777441	2.778809
1639578510829	-22.448	1.464	1008.208	-0.42	-0.84	-0.28	178.5	-118.5	-414	0	0	2.780176	2.783594	2.782227	2.782227	2.778809	2.782227	2.780859	2.780859	2.777441	2.780176	2.782227	2.780176	2.782227	2.777441	2.777441	2.780859
1639578510839	-21.472	2.44	1011.136	-0.49	-0.91	-0.21	184.5	-123	-412.5	0	0	2.782227	2.78291	2.777441	2.780176	2.778809	2.780176	2.780176	2.778809	2.780176	2.780859	2.780859	2.777441	2.778125	2.780176	2.778809	2.781543
1639578510849	-19.52	3.904	1010.648	-0.49	-0.91	-0.28	177	-123	-417	0	0	2.783594	2.777441	2.778809	2.778809	2.782227	2.780859	2.777441	2.782227	2.780859	2.781543	2.780859	2.778125	2.778809	2.776758	2.780176	2.776758
1639578510859	-19.52	6.344	1012.6	-0.42	-0.77	-0.28	175.5	-118.5	-417	0	0	2.780176	2.782227	2.780859	2.778809	2.777441	2.782227	2.78291	2.778809	2.776758	2.780859	2.778125	2.782227	2.778809	2.778809	2.777441	2.777441
1639578510868	-15.128	9.76	1017.48	-0.49	-0.77	-0.21	178.5	-118.5	-414	0	0	2.780176	2.778809	2.782227	2.781543	2.777441	2.783594	2.782227	2.778809	2.780176	2.778809	2.777441	2.777441	2.778125	2.778125	2.780176	2.780859
1639578510878	-19.032	10.736	1016.504	-0.56	-0.56	-0.28	177	-115.5	-414	0	0	2.78291	2.781543	2.778809	2.782227	2.782227	2.782227	2.778809	2.780176	2.778125	2.777441	2.777441	2.778125	2.778125	2.780859	2.776758	2.777441
1639578510888	-20.008	8.296	1004.792	-0.49	-0.56	-0.21	183	-117	-418.5	0	0	2.780176	2.778809	2.780859	2.778809	2.782227	2.780859	2.780176	2.777441	2.778125	2.782227	2.777441	2.780176	2.778809	2.778809	2.780176	2.776758
1639578510898	-23.424	3.904	1003.328	-0.49	-0.49	-0.28	184.5	-118.5	-420	0	0	2.783594	2.780859	2.782227	2.782227	2.780859	2.777441	2.778809	2.778809	2.776758	2.780176	2.780859	2.778809	2.778809	2.778809	2.777441	2.778125
1639578510907	-30.744	1.952	1004.304	-0.56	-0.7	-0.21	180	-120	-417	0	0	2.780176	2.780859	2.777441	2.776758	2.777441	2.780176	2.780859	2.783594	2.780176	2.777441	2.778809	2.778809	2.780859	2.777441	2.780176	2.777441
1639578510917	-31.72	2.44	1005.28	-0.56	-0.77	-0.21	174	-123	-414	0	0	2.78291	2.78291	2.780859	2.780176	2.782227	2.782227	2.782227	2.782227	2.778125	2.778125	2.778809	2.778125	2.778809	2.780859	2.780859	2.777441
1639578510927	-29.768	1.464	1011.624	-0.42	-0.77	-0.28	175.5	-118.5	-408	0	0	2.780859	2.780176	2.78291	2.78291	2.780176	2.780176	2.776758	2.783594	2.776074	2.778125	2.777441	2.780859	2.780859	2.776758	2.778809	2.780859
1639578510937	-24.888	0.488	1008.696	-0.49	-0.98	-0.21	177	-114	-414	0	0	2.777441	2.780859	2.780859	2.782227	2.780859	2.778809	2.780859	2.778809	2.777441	2.780176	2.780859	2.778809	2.780859	2.780859	2.777441	2.777441
1639578510946	-24.888	4.88	1011.624	-0.49	-0.98	-0.28	177	-117	-423	0	0	2.780859	2.780859	2.780176	2.783594	2.780859	2.778809	2.780176	2.778809	2.778809	2.777441	2.777441	2.777441	2.782227	2.780859	2.776758	2.780859
1639578510956	-20.984	11.712	1008.208	-0.56	-0.98	-0.21	180	-120	-426	0	0	2.78291	2.78291	2.777441	2.778809	2.778809	2.777441	2.780176	2.777441	2.778125	2.778125	2.778809	2.777441	2.778125	2.780176	2.776758	2.778809
1639578510966	-20.984	8.784	1016.992	-0.42	-0.77	-0.28	181.5	-118.5	-421.5	0	0	2.777441	2.778809	2.778809	2.777441	2.777441	2.780176	2.78291	2.783594	2.778809	2.780859	2.780859	2.777441	2.780859	2.778809	2.777441	2.776758
1639578510976	-22.448	2.928	1010.648	-0.49	-0.91	-0.21	180	-115.5	-415.5	0	0	2.780859	2.777441	2.783594	2.781543	2.780176	2.782227	2.78291	2.778809	2.778809	2.778809	2.782227	2.777441	2.777441	2.777441	2.777441	2.778125
1639578510985	-21.472	11.224	1002.352	-0.42	-0.84	-0.35	177	-115.5	-415.5	0	0	2.780859	2.782227	2.780176	2.778809	2.780859	2.778809	2.780176	2.780176	2.778809	2.780176	2.780859	2.780859	2.778809	2.778809	2.778809	2.778809
1639578510995	-31.72	4.392	1004.304	-0.42	-0.77	-0.28	180	-114	-417	0	0	2.782227	2.780176	2.783594	2.780859	2.779492	2.780859	2.782227	2.780176	2.780859	2.777441	2.780176	2.780859	2.780859	2.778809	2.777441	2.778809
1639578511005	-27.816	1.464	1009.184	-0.49	-1.05	-0.21	181.5	-115.5	-417	0	0	2.783594	2.782227	2.780859	2.78291	2.782227	2.783594	2.780859	2.777441	2.778809	2.780859	2.777441	2.776074	2.780859	2.777441	2.780859	2.778125
1639578511015	-26.352	2.44	1012.6	-0.56	-1.05	-0.28	177	-115.5	-415.5	0	0	2.780176	2.780859	2.780176	2.780176	2.777441	2.780176	2.780859	2.780176	2.780176	2.778809	2.780176	2.776758	2.777441	2.782227	2.782227	2.782227
1639578511025	-27.328	0	1012.6	-0.56	-1.05	-0.21	175.5	-115.5	-414	0	0	2.780859	2.780859	2.782227	2.783594	2.780176	2.782227	2.780176	2.780859	2.778125	2.778809	2.777441	2.778809	2.778125	2.780176	2.777441	2.778809
1639578511034	-20.496	5.856	1013.576	-0.49	-0.91	-0.28	178.5	-121.5	-417	0	0	2.777441	2.781543	2.778809	2.778125	2.78291	2.783594	2.77334	2.775391	2.777441	2.777441	2.778809	2.778125	2.776758	2.780176	2.769238	2.770605
1639578511044	-19.032	10.248	1014.552	-0.49	-0.91	-0.28	183	-121.5	-415.5	0	0	2.780859	2.780176	2.777441	2.78291	2.780859	2.780176	2.78291	2.780859	2.778809	2.776758	2.780176	2.782227	2.778809	2.778809	2.780859	2.778125
1639578511054	-18.544	10.248	1011.136	-0.49	-0.91	-0.21	183	-117	-420	0	0	2.780176	2.778809	2.780859	2.780859	2.782227	2.777441	2.782227	2.777441	2.780176	2.777441	2.780176	2.780859	2.778125	2.777441	2.780859	2.782227
1639578511064	-18.544	11.712	1008.696	-0.42	-0.98	-0.21	178.5	-120	-415.5	0	0	2.780176	2.782227	2.782227	2.780176	2.780859	2.780176	2.777441	2.783594	2.782227	2.777441	2.778809	2.777441	2.777441	2.778125	2.780176	2.776758
1639578511073	-20.984	11.224	1012.6	-0.42	-0.98	-0.21	178.5	-121.5	-417	0	0	2.778809	2.777441	2.778809	2.780176	2.780176	2.778809	2.780859	2.778809	2.780859	2.777441	2.778125	2.778809	2.780176	2.780176	2.780859	2.778809
1639578511083	-22.448	5.368	1005.768	-0.42	-0.98	-0.14	184.5	-120	-420	0	0	2.782227	2.782227	2.778809	2.780176	2.777441	2.780859	2.780176	2.780176	2.780176	2.778809	2.778125	2.777441	2.780176	2.778809	2.782227	2.777441
1639578511093	-29.28	6.344	1013.088	-0.56	-0.91	-0.28	183	-112.5	-418.5	0	0	2.777441	2.780176	2.780176	2.783594	2.780176	2.778809	2.780176	2.780176	2.778125	2.780859	2.780176	2.780176	2.777441	2.781543	2.778125	2.778125
1639578511103	-23.912	13.664	1009.672	-0.49	-0.84	-0.21	178.5	-108	-417	0	0	2.783594	2.780176	2.780176	2.78291	2.778809	2.777441	2.777441	2.778809	2.777441	2.778809	2.778809	2.780176	2.782227	2.776758	2.780176	2.780859
1639578511112	-28.792	4.392	1012.6	-0.49	-0.91	-0.21	178.5	-120	-418.5	0	0	2.777441	2.782227	2.778809	2.782227	2.777441	2.780176	2.782227	2.78291	2.778809	2.782227	2.778809	2.777441	2.778809	2.777441	2.778809	2.778809
1639578511122	-23.424	1.952	1008.208	-0.42	-0.91	-0.14	180	-123	-417	0	0	2.780176	2.780176	2.780859	2.780859	2.783594	2.781543	2.78291	2.78291	2.780176	2.778809	2.778125	2.778809	2.780176	2.782227	2.776758	2.777441
1639578511132	-20.008	2.928	1010.648	-0.56	-0.98	-0.21	178.5	-117	-415.5	0	0	2.780176	2.780176	2.780859	2.783594	2.780176	2.780859	2.780176	2.780859	2.780859	2.778809	2.777441	2.780176	2.778809	2.777441	2.778809	2.777441
1639578511142	-30.256	6.344	1009.672	-0.42	-0.98	-0.28	177	-120	-417	0	0	2.782227	2.778809	2.782227	2.777441	2.780176	2.782227	2.780859	2.780176	2.782227	2.777441	2.778809	2.781543	2.777441	2.778809	2.780859	2.780176
1639578511151	-19.032	0.488	1011.136	-0.49	-0.98	-0.28	181.5	-123	-418.5	0	0	2.780176	2.780176	2.780859	2.777441	2.780176	2.783594	2.777441	2.780859	2.780176	2.778125	2.778125	2.777441	2.777441	2.780859	2.778125	2.782227
1639578511161	-25.864	8.296	1013.088	-0.35	-0.77	-0.21	181.5	-120	-415.5	0	0	2.780176	2.777441	2.777441	2.778809	2.782227	2.78291	2.778809	2.780176	2.778809	2.780859	2.778809	2.780176	2.778809	2.777441	2.782227	2.780859
1639578511171	-23.424	7.32	1012.112	-0.49	-0.56	-0.28	175.5	-115.5	-414	0	0	2.782227	2.780859	2.782227	2.780176	2.778809	2.777441	2.776074	2.780176	2.780859	2.777441	2.782227	2.778809	2.778809	2.778809	2.778809	2.778809
1639578511181	-26.352	9.272	1001.864	-0.49	-0.77	-0.35	174	-114	-412.5	0	0	2.78291	2.780859	2.783594	2.780176	2.783594	2.780176	2.780176	2.778809	2.778809	2.778125	2.78291	2.782227	2.778125	2.780859	2.778809	2.780176
1639578511191	-29.768	3.904	1005.28	-0.42	-0.77	-0.28	177	-115.5	-411	0	0	2.782227	2.780176	2.78291	2.780859	2.780859	2.780859	2.780859	2.782227	2.777441	2.780176	2.777441	2.777441	2.780859	2.778809	2.780859	2.777441
1639578511200	-22.448	8.784	1007.232	-0.42	-0.91	-0.21	175.5	-112.5	-412.5	0	0	2.780859	2.777441	2.780176	2.776758	2.780859	2.780176	2.783594	2.780176	2.782227	2.780176	2.780859	2.780176	2.780859	2.780176	2.778125	2.778809
1639578511210	-21.472	10.248	1015.04	-0.42	-1.05	-0.21	175.5	-114	-412.5	0	0	2.782227	2.778809	2.780176	2.780176	2.780859	2.778809	2.780176	2.782227	2.778125	2.778125	2.776074	2.780176	2.782227	2.777441	2.778809	2.780859
1639578511220	-23.912	15.128	1003.816	-0.49	-0.84	-0.21	175.5	-114	-412.5	0	0	2.777441	2.777441	2.783594	2.78291	2.777441	2.777441	2.783594	2.780176	2.777441	2.778809	2.778125	2.780176	2.776758	2.778809	2.780859	2.778809
1639578511230	-20.008	10.736	1013.576	-0.35	-0.84	-0.21	175.5	-117	-411	0	0	2.780176	2.783594	2.782227	2.782227	2.782227	2.778809	2.782227	2.777441	2.777441	2.780859	2.778125	2.778809	2.780859	2.782227	2.782227	2.780859
1639578511239	-19.52	7.808	1004.304	-0.42	-0.98	-0.21	177	-111	-418.5	0	0	2.780176	2.777441	2.780176	2.776758	2.780176	2.782227	2.777441	2.778809	2.776074	2.776758	2.780176	2.780176	2.778125	2.777441	2.780176	2.778809
1639578511249	-23.424	3.904	1008.696	-0.42	-0.77	-0.28	177	-117	-423	0	0	2.783594	2.778809	2.783594	2.78291	2.780176	2.782227	2.777441	2.780176	2.778125	2.778125	2.778809	2.778809	2.782227	2.777441	2.778809	2.777441
1639578511259	-19.032	0.976	1011.624	-0.42	-0.84	-0.35	178.5	-123	-421.5	0	0	2.778809	2.778809	2.778125	2.78291	2.780176	2.777441	2.780176	2.780176	2.778125	2.780859	2.777441	2.777441	2.780859	2.778809	2.780859	2.780176
1639578511269	-25.376	4.392	1004.792	-0.49	-0.98	-0.28	183	-118.5	-417	0	0	2.780176	2.780176	2.778809	2.780176	2.782227	2.780176	2.780859	2.781543	2.778809	2.777441	2.780859	2.782227	2.778809	2.780176	2.777441	2.777441
1639578511278	-20.984	7.808	1007.72	-0.42	-0.77	-0.28	175.5	-114	-417	0	0	2.777441	2.783594	2.780176	2.780176	2.782227	2.777441	2.782227	2.782227	2.780176	2.776758	2.780176	2.780176	2.778809	2.778125	2.777441	2.780176
1639578511288	-24.4	5.368	1009.672	-0.56	-0.91	-0.35	172.5	-111	-415.5	0	0	2.780859	2.780176	2.780859	2.778809	2.78291	2.78291	2.783594	2.780176	2.778125	2.780859	2.777441	2.778809	2.777441	2.780859	2.776758	2.778809
1639578511298	-21.96	6.344	1005.28	-0.42	-0.84	-0.28	177	-115.5	-412.5	0	0	2.778809	2.780859	2.778809	2.778809	2.780176	2.776074	2.780859	2.782227	2.780859	2.777441	2.780176	2.777441	2.777441	2.780859	2.782227	2.776758
1639578511308	-24.4	4.88	1008.696	-0.49	-0.91	-0.28	175.5	-118.5	-417	0	0	2.777441	2.778809	2.782227	2.780176	2.780176	2.777441	2.78291	2.778809	2.778809	2.780859	2.778125	2.780859	2.780859	2.778809	2.778125	2.782227
1639578511318	-22.448	8.784	999.424	-0.56	-0.84	-0.21	177	-114	-415.5	0	0	2.781543	2.780859	2.778809	2.780176	2.780859	2.780859	2.780176	2.777441	2.778125	2.780859	2.780859	2.777441	2.780176	2.777441	2.780176	2.780859
1639578511327	-23.424	5.368	1006.256	-0.56	-0.98	-0.21	174	-112.5	-409.5	0	0	2.78291	2.778809	2.780176	2.780859	2.780859	2.778809	2.780859	2.780176	2.777441	2.778125	2.780176	2.780859	2.780859	2.778809	2.777441	2.776758
1639578511337	-23.912	9.272	1008.208	-0.49	-1.05	-0.21	177	-114	-406.5	0	0	2.78291	2.778809	2.778809	2.780176	2.777441	2.780176	2.780176	2.78291	2.777441	2.778125	2.777441	2.780859	2.780859	2.776758	2.778125	2.777441
1639578511347	-23.424	5.368	1006.744	-0.56	-0.91	-0.21	184.5	-114	-409.5	0	0	2.777441	2.776758	2.778809	2.780176	2.780859	2.78291	2.777441	2.780176	2.780859	2.778809	2.777441	2.780859	2.777441	2.780859	2.778125	2.782227
1639578511357	-23.424	4.392	1007.232	-0.49	-1.12	-0.21	186	-115.5	-414	0	0	2.778809	2.776074	2.780176	2.780176	2.783594	2.78291	2.782227	2.780176	2.769238	2.771289	2.780176	2.774707	2.778125	2.782227	2.776074	2.777441
1639578511366	-26.84	7.808	1002.352	-0.56	-0.98	-0.28	184.5	-114	-415.5	0	0	2.782227	2.778809	2.78291	2.778809	2.780176	2.780176	2.777441	2.780176	2.782227	2.781543	2.778125	2.777441	2.780176	2.778809	2.782227	2.778809
1639578511376	-23.424	6.344	998.936	-0.49	-1.05	-0.21	180	-115.5	-412.5	0	0	2.778809	2.777441	2.782227	2.782227	2.780859	2.783594	2.778809	2.778809	2.777441	2.777441	2.778125	2.780859	2.776758	2.778809	2.782227	2.777441
1639578511386	-24.4	7.32	1009.184	-0.42	-0.91	-0.21	178.5	-121.5	-415.5	0	0	2.780859	2.780859	2.78291	2.782227	2.78291	2.778809	2.78291	2.780176	2.778809	2.777441	2.780176	2.780859	2.780859	2.778125	2.778809	2.780859
1639578511396	-20.984	10.248	1009.672	-0.49	-1.12	-0.28	178.5	-120	-415.5	0	0	2.780176	2.780859	2.780176	2.783594	2.777441	2.78291	2.78291	2.778809	2.780176	2.778125	2.777441	2.778809	2.778809	2.782227	2.780176	2.777441
1639578511405	-15.616	3.416	1013.576	-0.49	-0.91	-0.35	181.5	-120	-414	0	0	2.778809	2.78291	2.783594	2.781543	2.783594	2.780176	2.780176	2.780859	2.781543	2.780859	2.780859	2.779492	2.781543	2.777441	2.780859	2.777441
1639578511415	-19.52	4.392	1006.256	-0.49	-0.91	-0.28	186	-121.5	-415.5	0	0	2.780859	2.778809	2.778809	2.782227	2.780176	2.780176	2.780176	2.778809	2.778809	2.776758	2.782227	2.777441	2.780176	2.782227	2.780176	2.782227
1639578511425	-21.472	5.856	1006.744	-0.56	-0.91	-0.28	183	-114	-415.5	0	0	2.782227	2.780176	2.78291	2.778809	2.778809	2.780176	2.778809	2.780859	2.780859	2.778809	2.778125	2.777441	2.778125	2.781543	2.777441	2.777441
1639578511435	-25.376	9.272	1009.672	-0.49	-0.84	-0.28	178.5	-109.5	-414	0	0	2.778809	2.777441	2.780176	2.78291	2.78291	2.782227	2.78291	2.780176	2.777441	2.778809	2.780176	2.781543	2.778809	2.777441	2.780859	2.778125
1639578511444	-23.424	5.368	1008.696	-0.56	-0.84	-0.14	177	-112.5	-412.5	0	0	2.78291	2.777441	2.782227	2.780176	2.777441	2.778809	2.778809	2.780859	2.778809	2.780859	2.782227	2.777441	2.780859	2.780176	2.778125	2.777441
1639578511454	-19.032	2.44	1013.576	-0.42	-0.91	-0.28	180	-111	-414	0	0	2.780176	2.780859	2.780176	2.782227	2.780859	2.778809	2.778809	2.782227	2.780176	2.778125	2.782227	2.782227	2.776758	2.782227	2.778125	2.782227
1639578511464	-22.936	5.368	1016.992	-0.49	-0.98	-0.21	181.5	-115.5	-414	0	0	2.780176	2.782227	2.777441	2.780176	2.78291	2.782227	2.780859	2.78291	2.778809	2.780176	2.778125	2.777441	2.780176	2.778125	2.780859	2.780859
1639578511474	-21.472	0.976	1014.552	-0.56	-0.98	-0.28	175.5	-120	-412.5	0	0	2.78291	2.780176	2.780176	2.780176	2.777441	2.78291	2.780859	2.78291	2.781543	2.778125	2.777441	2.780176	2.78291	2.780176	2.777441	2.782227
1639578511484	-30.256	1.464	1014.064	-0.49	-0.77	-0.28	180	-117	-411	0	0	2.776758	2.78291	2.782227	2.780176	2.778809	2.780176	2.782227	2.780176	2.780859	2.778125	2.777441	2.778809	2.780176	2.780176	2.778809	2.777441
1639578511493	-24.888	9.76	1009.184	-0.49	-0.98	-0.28	184.5	-117	-414	0	0	2.780176	2.778809	2.780176	2.780859	2.782227	2.778809	2.778809	2.780176	2.778809	2.780176	2.780859	2.777441	2.778809	2.777441	2.777441	2.780859
1639578511503	-21.472	3.416	1008.696	-0.49	-0.7	-0.21	178.5	-118.5	-418.5	0	0	2.780859	2.782227	2.780859	2.777441	2.780859	2.780859	2.778809	2.782227	2.778809	2.780859	2.778125	2.776758	2.782227	2.780176	2.777441	2.777441
1639578511513	-19.032	4.88	1009.672	-0.35	-0.84	-0.35	174	-120	-418.5	0	0	2.780176	2.78291	2.777441	2.780176	2.78291	2.777441	2.780176	2.782227	2.778809	2.780176	2.776758	2.782227	2.778125	2.781543	2.776758	2.778809
1639578511523	-22.936	3.416	1011.136	-0.49	-0.91	-0.35	175.5	-117	-411	0	0	2.780859	2.780176	2.780176	2.780176	2.776758	2.780176	2.780176	2.78291	2.777441	2.780176	2.777441	2.780859	2.780176	2.780859	2.777441	2.780859
1639578511532	-23.424	4.392	1007.72	-0.42	-0.77	-0.21	181.5	-118.5	-408	0	0	2.780176	2.780176	2.78291	2.78291	2.780176	2.78291	2.783594	2.780176	2.780859	2.777441	2.777441	2.778809	2.782227	2.780859	2.778125	2.778125
1639578511542	-30.744	10.248	1011.136	-0.56	-0.91	-0.14	178.5	-118.5	-411	0	0	2.783594	2.778809	2.780176	2.782227	2.782227	2.783594	2.780859	2.780859	2.780859	2.782227	2.777441	2.776758	2.780859	2.778809	2.777441	2.777441
1639578511552	-26.84	3.416	1010.16	-0.42	-0.84	-0.21	177	-118.5	-414	0	0	2.778809	2.782227	2.781543	2.782227	2.780859	2.780176	2.780176	2.777441	2.780176	2.777441	2.781543	2.780859	2.778125	2.780859	2.778809	2.778809
1639578511562	-19.52	3.416	1015.528	-0.49	-0.84	-0.28	175.5	-123	-414	0	0	2.780859	2.780859	2.782227	2.78291	2.782227	2.780176	2.782227	2.778809	2.780859	2.780176	2.778125	2.778125	2.780176	2.780176	2.781543	2.780176
1639578511571	-20.496	7.808	1004.304	-0.49	-0.84	-0.35	172.5	-124.5	-412.5	0	0	2.780859	2.777441	2.780176	2.780176	2.778809	2.777441	2.78291	2.78291	2.780859	2.780176	2.780859	2.776758	2.778809	2.780859	2.777441	2.778809
1639578511581	-23.424	8.784	1006.744	-0.49	-0.98	-0.28	175.5	-117	-418.5	0	0	2.780176	2.782227	2.783594	2.780176	2.780176	2.778809	2.783594	2.778809	2.778125	2.781543	2.778809	2.780859	2.777441	2.78291	2.778125	2.782227
1639578511591	-29.28	1.464	1008.208	-0.49	-0.91	-0.28	178.5	-114	-420	0	0	2.778809	2.782227	2.778809	2.780176	2.780176	2.780176	2.778809	2.780859	2.780176	2.777441	2.780176	2.780176	2.776758	2.777441	2.777441	2.780859
1639578511601	-18.544	8.296	1010.648	-0.42	-0.77	-0.28	177	-114	-414	0	0	2.78291	2.780859	2.778809	2.780859	2.783594	2.782227	2.78291	2.777441	2.778809	2.778125	2.780859	2.778125	2.777441	2.777441	2.777441	2.780176
1639578511610	-19.032	5.856	1008.208	-0.42	-0.84	-0.28	177	-117	-411	0	0	2.777441	2.78291	2.780176	2.782227	2.78291	2.778809	2.780859	2.78291	2.777441	2.778809	2.780859	2.776758	2.782227	2.780859	2.780859	2.777441
1639578511620	-19.52	8.784	1010.16	-0.49	-0.84	-0.21	181.5	-115.5	-412.5	0	0	2.780176	2.78291	2.778809	2.780859	2.782227	2.778809	2.780176	2.78291	2.778809	2.780859	2.778125	2.776758	2.778809	2.782227	2.778809	2.780176
1639578511630	-16.104	10.248	1017.48	-0.56	-0.98	-0.28	181.5	-115.5	-412.5	0	0	2.783594	2.78291	2.780859	2.777441	2.78291	2.783594	2.780859	2.780176	2.778809	2.781543	2.777441	2.780859	2.777441	2.780176	2.780859	2.780859
1639578511640	-26.84	9.76	1011.136	-0.35	-0.77	-0.28	180	-117	-414	0	0	2.782227	2.780859	2.782227	2.780176	2.780176	2.780859	2.782227	2.778809	2.780176	2.780859	2.777441	2.778125	2.778809	2.780859	2.778809	2.778125
1639578511650	-28.792	6.344	1007.72	-0.21	-0.63	-0.21	175.5	-117	-418.5	0	0	2.780859	2.780859	2.777441	2.782227	2.78291	2.780859	2.778809	2.782227	2.780176	2.776758	2.778125	2.777441	2.778809	2.782227	2.777441	2.780176
1639578511659	-25.864	5.368	1008.208	-0.35	-0.63	-0.21	169.5	-118.5	-417	0	0	2.780176	2.782227	2.780176	2.782227	2.777441	2.780176	2.780176	2.778809	2.778809	2.778809	2.780859	2.776758	2.780859	2.780859	2.780176	2.780176
1639578511669	-25.376	11.224	1007.232	-0.7	-0.63	-0.28	171	-117	-414	0	0	2.778809	2.778809	2.777441	2.778809	2.777441	2.782227	2.780176	2.783594	2.780859	2.780176	2.778125	2.778125	2.778125	2.780859	2.776758	2.777441
1639578511679	-33.184	5.368	1001.376	-0.56	-0.7	-0.21	174	-114	-414	0	0	2.777441	2.780859	2.778809	2.782227	2.780176	2.782227	2.78291	2.78291	2.777441	2.776758	2.778125	2.777441	2.780859	2.778809	2.780859	2.778125
1639578511689	-24.888	3.416	1009.672	-0.49	-1.05	-0.14	177	-115.5	-411	0	0	2.775391	2.774707	2.780859	2.778809	2.780859	2.783594	2.777441	2.780176	2.770605	2.780176	2.776074	2.780859	2.778125	2.778125	2.780176	2.782227
1639578511698	-15.128	13.664	1016.504	-0.28	-0.91	-0.28	178.5	-121.5	-411	0	0	2.778809	2.777441	2.782227	2.780176	2.78291	2.780176	2.780176	2.780859	2.778125	2.782227	2.778809	2.778809	2.776758	2.778125	2.780176	2.780176
1639578511708	-16.104	5.368	1015.04	-0.7	-0.91	-0.28	177	-123	-415.5	0	0	2.780859	2.782227	2.783594	2.782227	2.777441	2.78291	2.780176	2.780176	2.778809	2.780176	2.777441	2.778125	2.777441	2.778809	2.778809	2.780859
1639578511718	-9.272	7.808	1014.552	-0.56	-0.49	-0.28	178.5	-121.5	-412.5	0	0	2.780176	2.780176	2.780176	2.778809	2.780176	2.780176	2.782227	2.778809	2.777441	2.777441	2.776758	2.777441	2.780859	2.778809	2.777441	2.778125
1639578511728	-15.616	8.296	1016.504	-0.49	-0.28	-0.35	186	-115.5	-415.5	0	0	2.780176	2.780176	2.783594	2.780176	2.78291	2.780176	2.776758	2.777441	2.778809	2.778809	2.778809	2.780176	2.781543	2.780859	2.780859	2.780176
1639578511737	-19.032	1.464	1010.648	-0.49	-0.28	-0.35	187.5	-118.5	-423	0	0	2.782227	2.778809	2.778809	2.782227	2.780859	2.78291	2.780176	2.783594	2.782227	2.778125	2.776758	2.776758	2.780859	2.777441	2.780176	2.776758
1639578511747	-30.256	11.712	1009.672	-0.56	-0.21	-0.28	184.5	-117	-414	0	0	2.778809	2.780176	2.780176	2.783594	2.780176	2.777441	2.778809	2.780859	2.778809	2.778809	2.781543	2.777441	2.776758	2.778809	2.777441	2.780859
1639578511757	-28.792	8.296	1007.232	-0.49	-0.14	-0.28	181.5	-114	-415.5	0	0	2.777441	2.776758	2.780176	2.780176	2.778809	2.782227	2.778809	2.777441	2.778809	2.780176	2.777441	2.777441	2.777441	2.778125	2.781543	2.780859
1639578511767	-29.768	6.832	1005.28	-0.42	-0.28	-0.28	178.5	-115.5	-418.5	0	0	2.782227	2.780176	2.777441	2.780859	2.778809	2.778809	2.777441	2.777441	2.777441	2.780176	2.780859	2.778809	2.782227	2.782227	2.778809	2.780859
1639578511776	-22.448	4.88	1004.304	-0.56	-0.56	-0.21	175.5	-120	-415.5	0	0	2.777441	2.780176	2.783594	2.78291	2.776758	2.780176	2.780859	2.782227	2.780859	2.780859	2.780176	2.778809	2.777441	2.782227	2.778809	2.777441
1639578511786	-24.4	2.928	1004.304	-0.56	-0.56	-0.28	178.5	-124.5	-417	0	0	2.777441	2.780176	2.780859	2.780859	2.777441	2.780176	2.782227	2.780176	2.780176	2.778125	2.780859	2.777441	2.778809	2.778809	2.778125	2.776758
1639578511796	-25.376	8.296	1011.136	-0.49	-0.49	-0.28	181.5	-117	-414	0	0	2.782227	2.780176	2.778809	2.780176	2.782227	2.777441	2.781543	2.778809	2.778809	2.778809	2.778125	2.778809	2.780859	2.781543	2.782227	2.780859
1639578511806	-20.984	4.392	1014.064	-0.49	-0.42	-0.28	175.5	-117	-414	0	0	2.778809	2.782227	2.783594	2.780176	2.780859	2.780859	2.782227	2.780859	2.777441	2.778809	2.777441	2.780176	2.777441	2.780859	2.778125	2.778125
1639578511816	-22.448	6.832	1005.768	-0.56	-0.21	-0.35	178.5	-114	-423	0	0	2.777441	2.780859	2.780859	2.783594	2.783594	2.780176	2.780176	2.780859	2.778809	2.780859	2.778809	2.777441	2.777441	2.780176	2.777441	2.780859
1639578511825	-17.568	1.952	1008.696	-0.49	-0.28	-0.28	183	-114	-421.5	0	0	2.777441	2.783594	2.78291	2.780176	2.780859	2.780859	2.78291	2.782227	2.778809	2.780176	2.780176	2.777441	2.778809	2.780859	2.780859	2.780176
1639578511835	-17.08	5.856	1010.648	-0.35	-0.07	-0.28	177	-117	-420	0	0	2.780859	2.783594	2.778809	2.783594	2.780859	2.782227	2.778809	2.78291	2.777441	2.780176	2.782227	2.780859	2.778809	2.780176	2.778809	2.780859
1639578511845	-20.984	6.832	1011.136	-0.42	0	-0.35	178.5	-117	-421.5	0	0	2.782227	2.777441	2.780176	2.780176	2.778809	2.78291	2.782227	2.777441	2.778125	2.777441	2.780176	2.778125	2.778125	2.778809	2.778809	2.778125
1639578511855	-30.256	10.248	1007.72	-0.63	0.14	-0.35	187.5	-123	-418.5	0	0	2.78291	2.778809	2.778809	2.78291	2.780176	2.783594	2.782227	2.780859	2.777441	2.780859	2.782227	2.777441	2.776758	2.780176	2.780859	2.778809
1639578511864	-30.744	5.368	1005.768	-0.56	0.21	-0.35	186	-121.5	-415.5	0	0	2.780176	2.778809	2.777441	2.78291	2.783594	2.782227	2.78291	2.777441	2.777441	2.776758	2.778125	2.778809	2.780176	2.780176	2.778125	2.780176
1639578511874	-26.84	8.784	1000.4	-0.35	0.07	-0.28	180	-115.5	-415.5	0	0	2.780176	2.780859	2.783594	2.780859	2.780859	2.778809	2.778809	2.78291	2.778809	2.780176	2.777441	2.778809	2.777441	2.778125	2.782227	2.780176
1639578511884	-27.328	6.344	1010.16	-0.42	-0.14	-0.28	183	-118.5	-420	0	0	2.778809	2.778809	2.782227	2.780859	2.780176	2.780176	2.783594	2.780176	2.777441	2.781543	2.778809	2.778809	2.778125	2.780859	2.778809	2.780859
1639578511894	-24.888	7.32	1005.768	-0.49	0.07	-0.28	181.5	-120	-420	0	0	2.782227	2.780859	2.780176	2.780176	2.780176	2.780176	2.777441	2.782227	2.778809	2.777441	2.782227	2.778809	2.778809	2.776758	2.776758	2.778809
1639578511903	-21.96	5.368	1012.112	-0.56	-0.21	-0.28	181.5	-114	-414	0	0	2.782227	2.780176	2.78291	2.780176	2.777441	2.777441	2.777441	2.781543	2.780176	2.780176	2.778809	2.778125	2.776758	2.780176	2.780176	2.778125
1639578511913	-22.448	6.344	1010.16	-0.42	-0.07	-0.28	175.5	-115.5	-418.5	0	0	2.78291	2.780176	2.780176	2.782227	2.78291	2.782227	2.78291	2.780176	2.780176	2.778809	2.777441	2.778809	2.778125	2.780859	2.780859	2.777441
1639578511923	-23.912	6.344	1014.552	-0.63	-0.07	-0.28	177	-120	-421.5	0	0	2.778809	2.777441	2.780859	2.780176	2.780176	2.780176	2.777441	2.780176	2.778125	2.780859	2.778809	2.780176	2.778125	2.776758	2.780859	2.776758
1639578511933	-27.328	2.44	1004.304	-0.56	0.21	-0.35	184.5	-117	-414	0	0	2.783594	2.782227	2.778809	2.777441	2.780176	2.780176	2.783594	2.780859	2.777441	2.777441	2.780176	2.777441	2.777441	2.778809	2.778125	2.778809
1639578511943	-23.912	-2.44	1008.696	-0.56	0.14	-0.21	178.5	-115.5	-415.5	0	0	2.780176	2.777441	2.78291	2.783594	2.780176	2.778809	2.778809	2.780859	2.780176	2.776758	2.777441	2.780176	2.777441	2.777441	2.780859	2.777441
1639578511952	-21.472	4.88	971.12	-0.21	0.42	-0.21	175.5	-112.5	-417	0	0	2.781543	2.778809	2.780859	2.782227	2.78291	2.782227	2.78291	2.778809	2.777441	2.780176	2.780859	2.780176	2.778809	2.778125	2.780176	2.777441
1639578511962	-17.08	4.392	1028.216	-0.35	-1.33	-0.14	175.5	-114	-411	0	0	2.777441	2.780859	2.780176	2.778809	2.777441	2.778809	2.777441	2.780859	2.777441	2.778809	2.778809	2.780176	2.776758	2.777441	2.778809	2.777441
1639578511972	-40.504	13.664	988.2	0.07	1.19	-0.14	180	-115.5	-414	0	0	2.777441	2.780176	2.777441	2.780859	2.782227	2.780176	2.778809	2.778809	2.778809	2.780859	2.778125	2.782227	2.777441	2.780859	2.777441	2.778125
1639578511982	-20.984	12.688	1037	-1.54	-0.28	-0.28	186	-117	-414	0	0	2.780176	2.783594	2.780176	2.780176	2.78291	2.782227	2.78291	2.778809	2.778809	2.778809	2.780859	2.778809	2.78291	2.780176	2.782227	2.777441
1639578511991	-15.616	4.392	980.88	0.77	-0.35	-0.35	177	-121.5	-409.5	0	0	2.780176	2.780859	2.783594	2.777441	2.78291	2.780859	2.780859	2.78291	2.780859	2.780859	2.778809	2.776074	2.78291	2.78291	2.778809	2.780176
1639578512001	-15.128	12.688	1028.704	-0.56	-0.91	-0.21	178.5	-118.5	-415.5	0	0	2.78291	2.780859	2.780176	2.777441	2.78291	2.782227	2.780176	2.780176	2.781543	2.778809	2.776758	2.777441	2.780859	2.777441	2.782227	2.780859
1639578512011	-25.376	7.32	995.032	-1.54	0.35	-0.21	184.5	-109.5	-417	0	0	2.780176	2.777441	2.780176	2.782227	2.781543	2.780176	2.774707	2.770605	2.778809	2.780176	2.776758	2.782227	2.780859	2.774707	2.777441	2.771289
1639578512021	-23.424	2.44	1014.552	0.07	-0.77	-0.28	181.5	-111	-414	0	0	2.780176	2.780176	2.780176	2.780176	2.778809	2.780859	2.778809	2.778809	2.776758	2.780859	2.778125	2.782227	2.777441	2.778809	2.777441	2.777441
1639578512030	-21.96	12.688	1020.896	-0.63	0	-0.21	180	-121.5	-417	0	0	2.783594	2.778809	2.783594	2.780176	2.777441	2.778809	2.78291	2.783594	2.781543	2.778125	2.778809	2.778809	2.781543	2.778125	2.778125	2.778809
1639578512040	-17.568	3.416	1015.04	-1.19	-0.21	-0.28	177	-121.5	-412.5	0	0	2.78291	2.780859	2.78291	2.778809	2.783594	2.780176	2.780176	2.778809	2.777441	2.782227	2.777441	2.780859	2.776758	2.778809	2.780859	2.778809
1639578512050	-30.256	-12.2	1015.528	-0.98	-0.7	0.28	175.5	-118.5	-411	0	0	2.780176	2.777441	2.780176	2.780859	2.780859	2.780176	2.780859	2.782227	2.776758	2.778809	2.777441	2.780176	2.777441	2.778809	2.777441	2.779492
1639578512060	-41.48	18.544	999.424	0.28	0.14	0	175.5	-118.5	-411	0	0	2.780176	2.780176	2.778809	2.780176	2.780176	2.778809	2.780176	2.778809	2.778809	2.777441	2.778809	2.776758	2.780176	2.780176	2.781543	2.777441
1639578512069	-20.984	-2.44	1021.872	-0.7	-1.05	-0.07	177	-117	-418.5	0	0	2.778809	2.780859	2.783594	2.776758	2.778809	2.78291	2.780176	2.780176	2.779492	2.780859	2.780859	2.777441	2.778809	2.780859	2.777441	2.778809
1639578512079	-42.456	-2.44	988.688	-0.28	-0.42	0	174	-117	-415.5	0	0	2.780176	2.78291	2.780176	2.782227	2.780176	2.776758	2.780859	2.780859	2.778809	2.778125	2.777441	2.778809	2.780176	2.776758	2.777441	2.778809
1639578512089	-23.424	11.224	1000.888	-0.7	-0.77	0.42	178.5	-115.5	-415.5	0	0	2.782227	2.783594	2.781543	2.777441	2.776758	2.778809	2.780176	2.78291	2.780859	2.780176	2.780859	2.778125	2.778809	2.780176	2.777441	2.780859
1639578512099	-22.936	6.344	1006.744	-0.07	-0.35	1.12	180	-114	-423	0	0	2.780859	2.782227	2.780176	2.780176	2.778809	2.780176	2.782227	2.778809	2.780859	2.780859	2.780859	2.778809	2.780176	2.777441	2.778809	2.777441
1639578512109	-35.624	9.272	1006.744	-0.77	-0.49	3.64	177	-111	-420	0	0	2.78291	2.78291	2.783594	2.776758	2.778809	2.778809	2.780176	2.783594	2.778809	2.781543	2.780859	2.781543	2.781543	2.778809	2.777441	2.780859
1639578512118	772.504	155.184	1238.056	0.7	-1.61	6.02	183	-111	-414	0	0	2.78291	2.777441	2.780859	2.778809	2.780176	2.783594	2.780176	2.780176	2.778809	2.777441	2.777441	2.781543	2.778809	2.780176	2.782227	2.778809
1639578512128	-22.936	56.12	1009.672	-2.17	-1.05	2.31	178.5	-118.5	-414	0	0	2.780176	2.782227	2.782227	2.778809	2.780176	2.782227	2.780176	2.780859	2.777441	2.777441	2.777441	2.778809	2.777441	2.777441	2.780859	2.780176
1639578512138	-23.424	1.464	1015.04	-0.07	-0.56	-0.21	175.5	-120	-414	0	0	2.78291	2.780176	2.780176	2.780176	2.777441	2.777441	2.782227	2.78291	2.782227	2.780176	2.778809	2.778809	2.780859	2.777441	2.780176	2.782227
1639578512148	-48.8	-6.832	992.104	-0.14	-0.49	1.33	183	-118.5	-414	0	0	2.782227	2.780176	2.780859	2.778809	2.782227	2.783594	2.776758	2.777441	2.782227	2.778809	2.776758	2.778125	2.778809	2.777441	2.780176	2.778809
1639578512157	-43.92	10.736	1010.648	-0.49	-0.91	4.48	186	-120	-415.5	0	0	2.777441	2.780859	2.780859	2.778809	2.776758	2.777441	2.780859	2.783594	2.778125	2.780859	2.777441	2.778125	2.780176	2.778125	2.777441	2.780859
1639578512167	-38.552	2.44	1018.456	-0.56	-0.91	5.32	180	-115.5	-418.5	0	0	2.778809	2.783594	2.780176	2.777441	2.776758	2.778809	2.777441	2.781543	2.776758	2.778809	2.780859	2.778809	2.776074	2.777441	2.778125	2.782227
1639578512177	-35.624	7.32	990.64	-0.35	-0.7	4.69	180	-111	-420	0	0	2.782227	2.783594	2.777441	2.780176	2.78291	2.778809	2.782227	2.78291	2.777441	2.776758	2.780176	2.777441	2.780859	2.780176	2.777441	2.780859
1639578512187	-41.968	3.904	1007.72	-0.98	-0.77	6.86	181.5	-120	-417	0	0	2.780859	2.778809	2.780176	2.778809	2.777441	2.780176	2.777441	2.780176	2.780176	2.778125	2.778125	2.782227	2.777441	2.780859	2.777441	2.778809
1639578512196	-27.328	6.344	987.224	-0.49	-0.98	6.58	178.5	-123	-412.5	0	0	2.780859	2.780859	2.78291	2.782227	2.783594	2.780859	2.777441	2.777441	2.778809	2.778125	2.780859	2.782227	2.776758	2.778809	2.777441	2.780859
1639578512206	-15.616	10.736	1033.584	-0.91	-0.7	5.46	180	-118.5	-412.5	0	0	2.780859	2.780859	2.778809	2.777441	2.778809	2.780176	2.780176	2.782227	2.778809	2.780176	2.778125	2.777441	2.782227	2.780176	2.778809	2.777441
1639578512216	-64.416	8.784	1015.04	-0.84	-0.42	7.21	183	-117	-414	0	0	2.78291	2.780176	2.777441	2.781543	2.78291	2.780859	2.78291	2.780859	2.778125	2.777441	2.776758	2.778809	2.778809	2.778809	2.777441	2.778809
1639578512226	-28.792	-5.368	996.008	-1.54	-0.84	11.55	186	-115.5	-414	0	0	2.782227	2.78291	2.780859	2.780176	2.778809	2.778809	2.777441	2.780859	2.777441	2.780859	2.778125	2.777441	2.780176	2.780859	2.778809	2.780859
1639578512235	8.784	-9.76	1011.136	0.07	-0.56	7.28	184.5	-118.5	-417	0	0	2.780176	2.780859	2.777441	2.778125	2.782227	2.780176	2.780176	2.778809	2.778809	2.778125	2.777441	2.778125	2.778809	2.776758	2.78291	2.778125
1639578512245	-22.936	11.712	998.448	-0.35	-0.91	2.31	178.5	-120	-420	0	0	2.780859	2.783594	2.780176	2.782227	2.778809	2.780176	2.78291	2.778809	2.778125	2.777441	2.778809	2.782227	2.782227	2.778125	2.78291	2.780176
1639578512255	-42.944	20.496	1009.672	-0.42	-0.63	3.5	183	-120	-420	0	0	2.780859	2.782227	2.780176	2.78291	2.78291	2.780859	2.780859	2.78291	2.778809	2.778125	2.776758	2.780859	2.780859	2.778809	2.782227	2.780176
1639578512265	-44.896	9.272	999.912	-1.12	-0.35	5.67	184.5	-117	-417	0	0	2.778809	2.782227	2.778809	2.780859	2.78291	2.780859	2.780859	2.780176	2.780859	2.777441	2.778125	2.778809	2.782227	2.778809	2.778125	2.780859
1639578512275	-39.528	4.88	1011.624	-1.82	0	9.24	181.5	-115.5	-411	0	0	2.78291	2.78291	2.78291	2.78291	2.780859	2.780176	2.778809	2.778809	2.780859	2.781543	2.777441	2.776758	2.778809	2.778125	2.778125	2.778125
1639578512284	-2.44	10.248	1006.256	-0.28	-0.7	6.86	183	-115.5	-411	0	0	2.781543	2.780176	2.777441	2.780176	2.780859	2.780176	2.780176	2.78291	2.777441	2.780859	2.777441	2.777441	2.778125	2.780859	2.780176	2.778125
1639578512294	-1.464	19.032	1016.504	-1.19	-0.63	4.55	183	-115.5	-411	0	0	2.778809	2.782227	2.777441	2.780859	2.782227	2.780176	2.780176	2.78291	2.778125	2.777441	2.780176	2.777441	2.778125	2.782227	2.777441	2.778809
1639578512304	-48.8	5.368	1002.84	-1.19	-0.21	5.74	181.5	-115.5	-409.5	0	0	2.780859	2.782227	2.780859	2.778809	2.778809	2.780176	2.780176	2.780176	2.782227	2.778125	2.780859	2.778809	2.780859	2.777441	2.777441	2.776758
1639578512314	4.88	2.44	993.08	-0.56	-0.42	5.6	184.5	-117	-415.5	0	0	2.777441	2.778809	2.778809	2.778809	2.780859	2.780176	2.781543	2.782227	2.780176	2.780176	2.780859	2.777441	2.782227	2.778125	2.780859	2.780859
1639578512323	-31.72	13.664	999.912	-0.7	-0.49	2.73	186	-117	-415.5	0	0	2.777441	2.780176	2.782227	2.780176	2.78291	2.780176	2.782227	2.777441	2.781543	2.778809	2.776758	2.778125	2.780859	2.778809	2.777441	2.780859
1639578512333	-30.256	15.128	1006.744	-1.19	-0.56	2.17	189	-115.5	-415.5	0	0	2.780176	2.780176	2.776758	2.778125	2.778809	2.78291	2.780176	2.780176	2.777441	2.775391	2.772656	2.770605	2.780859	2.780859	2.778809	2.778125
1639578512343	-11.712	18.544	1009.184	-1.05	-0.84	1.4	184.5	-117	-417	0	0	2.782227	2.778809	2.780176	2.778809	2.782227	2.780176	2.778809	2.780859	2.778809	2.776758	2.778809	2.777441	2.777441	2.776758	2.78291	2.776074
1639578512353	-36.112	10.248	1012.6	-0.63	-0.63	0.77	177	-117	-417	0	0	2.780859	2.780859	2.78291	2.780176	2.780176	2.777441	2.778809	2.782227	2.780176	2.780859	2.777441	2.782227	2.780176	2.777441	2.781543	2.780859
1639578512362	-24.4	6.344	1012.6	-0.35	-0.91	0.77	180	-120	-417	0	0	2.778809	2.78291	2.777441	2.780176	2.78291	2.780859	2.78291	2.777441	2.778809	2.780859	2.777441	2.777441	2.777441	2.780859	2.778125	2.781543
1639578512372	-33.184	-1.952	1007.72	-0.56	-0.56	0.77	171	-118.5	-415.5	0	0	2.780859	2.778809	2.778809	2.780859	2.778809	2.777441	2.782227	2.780176	2.778125	2.777441	2.778125	2.777441	2.777441	2.780176	2.780176	2.776074
1639578512382	-30.256	12.2	1022.848	-0.42	-0.91	1.4	171	-120	-409.5	0	0	2.778809	2.778809	2.777441	2.780859	2.780176	2.777441	2.778809	2.78291	2.780859	2.777441	2.780859	2.780859	2.777441	2.777441	2.777441	2.777441
1639578512392	-17.568	8.784	1010.648	-0.63	-0.63	1.47	180	-120	-412.5	0	0	2.780176	2.780176	2.78291	2.780859	2.778809	2.783594	2.780859	2.780859	2.778809	2.780176	2.776758	2.781543	2.778125	2.780176	2.777441	2.780176
1639578512401	-28.304	1.952	1005.768	-0.21	-0.63	0.21	178.5	-117	-423	0	0	2.778809	2.777441	2.780176	2.780176	2.777441	2.780176	2.78291	2.778809	2.781543	2.782227	2.780859	2.780859	2.778809	2.778125	2.777441	2.777441
1639578512411	-34.648	1.464	1003.816	-0.35	-0.7	0.21	178.5	-120	-420	0	0	2.782227	2.78291	2.780176	2.777441	2.780176	2.778809	2.783594	2.782227	2.778125	2.780859	2.778125	2.777441	2.778125	2.777441	2.777441	2.778809
1639578512421	-33.672	-4.392	1003.328	-0.49	-0.84	0.07	180	-120	-415.5	0	0	2.783594	2.777441	2.778809	2.780859	2.778809	2.780176	2.781543	2.778125	2.778125	2.777441	2.778809	2.777441	2.778809	2.780176	2.780176	2.777441
1639578512431	-23.912	-1.464	980.88	-0.28	-0.63	-0.07	183	-120	-412.5	0	0	2.781543	2.780176	2.782227	2.782227	2.782227	2.777441	2.780176	2.78291	2.778809	2.777441	2.778125	2.778125	2.782227	2.780176	2.782227	2.782227
1639578512441	-25.864	3.904	1012.6	0.07	-0.91	-0.28	183	-121.5	-420	0	0	2.778809	2.78291	2.777441	2.780176	2.782227	2.782227	2.780176	2.780176	2.778809	2.777441	2.780859	2.778809	2.777441	2.778809	2.777441	2.780176
1639578512450	-36.112	6.832	1017.968	-0.77	-0.63	-0.35	180	-118.5	-423	0	0	2.780176	2.777441	2.777441	2.778809	2.777441	2.780176	2.777441	2.777441	2.777441	2.777441	2.782227	2.778809	2.778809	2.780859	2.777441	2.777441
1639578512460	-20.008	-5.856	994.056	-0.14	-0.7	-0.21	178.5	-115.5	-409.5	0	0	2.780176	2.778809	2.780176	2.78291	2.777441	2.782227	2.777441	2.777441	2.776758	2.780176	2.777441	2.777441	2.780176	2.777441	2.778125	2.780859
1639578512470	-34.16	4.88	1008.696	-0.49	-0.84	-0.14	180	-115.5	-411	0	0	2.778809	2.780176	2.778809	2.780859	2.780176	2.780859	2.780176	2.78291	2.780859	2.777441	2.778125	2.780176	2.777441	2.782227	2.780176	2.782227
1639578512480	-29.768	11.224	1009.672	-0.35	-0.84	-0.21	184.5	-120	-420	0	0	2.78291	2.777441	2.780176	2.778809	2.778809	2.780176	2.780176	2.780176	2.777441	2.780176	2.780859	2.780859	2.778125	2.777441	2.778809	2.78291
1639578512489	-26.84	0.488	999.912	-0.28	-0.77	-0.21	184.5	-121.5	-417	0	0	2.78291	2.778809	2.778809	2.780176	2.778809	2.780176	2.783594	2.780176	2.783594	2.780859	2.778125	2.777441	2.777441	2.778809	2.778809	2.777441
1639578512499	-22.448	2.928	1008.208	-0.63	-0.77	-0.21	181.5	-117	-415.5	0	0	2.780176	2.777441	2.780859	2.780176	2.782227	2.782227	2.782227	2.780176	2.780176	2.780176	2.777441	2.777441	2.778809	2.777441	2.780859	2.778125
1639578512509	-24.888	9.76	1014.552	-0.42	-0.77	-0.28	180	-118.5	-414	0	0	2.782227	2.780176	2.780176	2.777441	2.777441	2.782227	2.782227	2.78291	2.782227	2.780176	2.778125	2.778125	2.778809	2.777441	2.780176	2.776758
1639578512519	-17.568	10.248	1007.72	-0.35	-0.77	-0.14	178.5	-120	-411	0	0	2.778809	2.777441	2.780176	2.783594	2.780176	2.778809	2.780176	2.783594	2.780859	2.780859	2.776758	2.776074	2.778809	2.780859	2.782227	2.778809
1639578512528	-30.744	11.224	999.912	-0.14	-0.91	-0.14	178.5	-121.5	-415.5	0	0	2.783594	2.778809	2.778809	2.777441	2.778809	2.780176	2.780176	2.776758	2.780176	2.777441	2.778125	2.782227	2.780859	2.777441	2.778125	2.782227
1639578512538	-29.28	10.248	1006.256	-0.63	-0.91	-0.14	180	-124.5	-414	0	0	2.780176	2.780859	2.778809	2.781543	2.780176	2.782227	2.780859	2.780176	2.778809	2.782227	2.778809	2.777441	2.778809	2.780176	2.777441	2.782227
1639578512548	-24.4	6.344	1005.28	-0.21	-0.63	0.07	183	-124.5	-420	0	0	2.777441	2.780176	2.782227	2.777441	2.780176	2.780176	2.778809	2.780176	2.780176	2.780176	2.777441	2.780176	2.777441	2.778809	2.778809	2.777441
1639578512558	-27.816	7.808	1015.04	-1.12	-1.12	0.28	192	-121.5	-423	0	0	2.781543	2.777441	2.780176	2.780176	2.776758	2.778809	2.777441	2.780859	2.782227	2.777441	2.778809	2.780859	2.780859	2.780859	2.777441	2.780176
1639578512568	-28.304	10.248	995.52	0.14	-0.49	1.05	192	-124.5	-418.5	0	0	2.78291	2.780859	2.778809	2.780176	2.780176	2.780859	2.780176	2.780176	2.782227	2.778809	2.778125	2.778125	2.776758	2.780859	2.776758	2.778809
1639578512577	-20.008	5.856	1011.136	-0.98	-0.77	2.03	184.5	-123	-420	0	0	2.782227	2.780176	2.780176	2.778809	2.778809	2.777441	2.78291	2.780176	2.778809	2.782227	2.778809	2.778809	2.780859	2.778809	2.778125	2.777441
1639578512587	-19.52	13.176	1012.112	-0.7	-0.91	-0.35	178.5	-117	-417	0	0	2.778809	2.780859	2.783594	2.780176	2.78291	2.78291	2.78291	2.778809	2.778809	2.780859	2.780176	2.777441	2.780859	2.778809	2.778125	2.780176
1639578512597	-27.328	6.344	1005.768	-0.14	-0.77	-0.35	181.5	-115.5	-420	0	0	2.777441	2.777441	2.781543	2.783594	2.778809	2.782227	2.777441	2.780176	2.780176	2.778125	2.778809	2.780859	2.776758	2.780859	2.780176	2.776758
1639578512607	-30.256	12.2	1011.624	-0.63	-0.84	-0.35	186	-120	-421.5	0	0	2.780176	2.78291	2.78291	2.782227	2.780176	2.782227	2.780176	2.776074	2.780176	2.782227	2.780176	2.780859	2.780176	2.777441	2.778809	2.780176
1639578512616	-25.864	6.344	1014.552	-0.42	-0.91	-0.35	181.5	-121.5	-415.5	0	0	2.777441	2.782227	2.780176	2.780176	2.780859	2.778809	2.778809	2.778809	2.777441	2.778809	2.778809	2.777441	2.780859	2.778809	2.780176	2.778809
1639578512626	-32.696	11.224	998.448	-0.7	-0.7	-0.42	178.5	-121.5	-420	0	0	2.78291	2.776758	2.782227	2.780859	2.778809	2.780176	2.780176	2.78291	2.777441	2.780859	2.778809	2.778809	2.778809	2.777441	2.777441	2.778809
1639578512636	-22.448	-0.488	1009.184	0.07	-0.98	-0.42	183	-124.5	-423	0	0	2.78291	2.778809	2.780176	2.780176	2.78291	2.780176	2.776758	2.780176	2.780859	2.778809	2.777441	2.777441	2.780859	2.776074	2.778809	2.780859
1639578512646	-30.744	2.928	1009.672	-0.56	-0.84	-0.28	183	-121.5	-415.5	0	0	2.782227	2.778809	2.782227	2.777441	2.780176	2.780176	2.780859	2.780176	2.778809	2.778809	2.778809	2.776074	2.780859	2.777441	2.780859	2.780176
1639578512655	-27.328	6.344	1006.744	-0.77	-0.84	-0.35	183	-118.5	-414	0	0	2.780176	2.783594	2.778809	2.780859	2.780859	2.780859	2.780859	2.78291	2.780176	2.780859	2.778809	2.778809	2.780176	2.777441	2.778809	2.777441
1639578512665	-29.768	8.784	1006.744	-0.42	-0.63	-0.35	183	-120	-417	0	0	2.772656	2.782227	2.780176	2.780176	2.780176	2.778809	2.780176	2.78291	2.771973	2.780859	2.780176	2.780176	2.780176	2.778125	2.780859	2.780176
1639578512675	-25.376	8.784	1012.6	-0.35	-0.84	-0.42	180	-123	-415.5	0	0	2.776758	2.782227	2.780176	2.780176	2.78291	2.780176	2.782227	2.780176	2.782227	2.778125	2.780176	2.780859	2.780176	2.780176	2.780176	2.780859
1639578512685	-36.112	5.856	1005.28	-0.42	-0.84	-0.28	180	-120	-418.5	0	0	2.782227	2.780176	2.78291	2.782227	2.780176	2.782227	2.78291	2.780859	2.780859	2.780176	2.782227	2.778809	2.778809	2.780859	2.777441	2.778125
1639578512694	-26.352	5.368	1009.672	-0.63	-0.91	-0.35	183	-117	-420	0	0	2.780859	2.780859	2.782227	2.780176	2.782227	2.778809	2.780176	2.78291	2.777441	2.777441	2.776758	2.778809	2.780859	2.780859	2.778125	2.777441
1639578512704	-25.376	6.344	1010.648	-0.49	-0.91	-0.21	177	-120	-423	0	0	2.778809	2.777441	2.780176	2.780176	2.780859	2.783594	2.777441	2.780859	2.778809	2.776758	2.780176	2.778809	2.780176	2.782227	2.780859	2.778809
1639578512714	-29.28	13.176	1013.088	-0.21	-0.91	-0.21	175.5	-117	-417	0	0	2.778809	2.78291	2.780859	2.78291	2.780176	2.780176	2.780176	2.783594	2.777441	2.780859	2.780176	2.780176	2.780176	2.782227	2.776758	2.780176
1639578512724	-23.912	5.368	1015.528	-0.7	-0.77	-0.28	180	-117	-411	0	0	2.780176	2.780859	2.780176	2.778809	2.777441	2.780176	2.778809	2.780859	2.780859	2.776758	2.780859	2.781543	2.780859	2.780176	2.781543	2.781543
1639578512734	-21.96	13.176	1011.624	-0.63	-0.7	-0.56	178.5	-117	-411	0	0	2.780176	2.780176	2.780176	2.782227	2.780176	2.782227	2.782227	2.783594	2.776758	2.780859	2.780859	2.776758	2.778809	2.778125	2.781543	2.778125
1639578512743	-28.792	10.248	1012.112	-0.49	-0.98	-0.35	186	-111	-414	0	0	2.780859	2.778809	2.776758	2.777441	2.782227	2.780859	2.780176	2.780859	2.780859	2.778125	2.778809	2.776758	2.778809	2.780176	2.777441	2.778809
1639578512753	-32.208	4.392	1016.016	-0.7	-0.7	-0.21	187.5	-118.5	-412.5	0	0	2.78291	2.782227	2.782227	2.778809	2.780176	2.780176	2.782227	2.782227	2.776758	2.778809	2.778809	2.777441	2.780859	2.777441	2.778809	2.777441
1639578512763	-25.376	11.224	1015.528	-0.98	-0.91	-0.21	186	-121.5	-417	0	0	2.780176	2.777441	2.780176	2.782227	2.783594	2.78291	2.78291	2.78291	2.780176	2.777441	2.778125	2.780859	2.778809	2.777441	2.778125	2.780859
1639578512773	-36.112	11.712	1010.16	-0.35	-0.7	-0.42	183	-118.5	-417	0	0	2.780176	2.780176	2.783594	2.782227	2.780859	2.780176	2.780176	2.780176	2.777441	2.778809	2.780176	2.780859	2.780176	2.778809	2.778125	2.780859
1639578512782	-37.088	17.08	996.496	-0.7	-0.35	-0.42	181.5	-123	-418.5	0	0	2.777441	2.778809	2.783594	2.780859	2.780176	2.777441	2.776758	2.780859	2.778125	2.780859	2.778809	2.777441	2.777441	2.778809	2.780176	2.782227
1639578512792	-26.84	12.2	1012.6	-0.77	-1.12	-0.28	184.5	-120	-417	0	0	2.780176	2.781543	2.782227	2.778809	2.783594	2.777441	2.780859	2.780859	2.776758	2.777441	2.780859	2.778125	2.778125	2.776758	2.780176	2.778809
1639578512802	-27.328	7.32	1008.208	-0.28	-1.05	-0.28	180	-117	-415.5	0	0	2.782227	2.780859	2.778809	2.780859	2.780176	2.777441	2.777441	2.78291	2.778809	2.780176	2.778125	2.778809	2.780176	2.778125	2.778125	2.778125
1639578512812	-29.28	2.928	1011.136	-0.56	-0.91	-0.28	178.5	-123	-420	0	0	2.780859	2.782227	2.780859	2.780176	2.782227	2.778125	2.778809	2.78291	2.780859	2.777441	2.776758	2.778809	2.780859	2.778125	2.778809	2.780859
1639578512821	-29.28	15.128	999.424	-0.21	-0.77	-0.28	181.5	-126	-418.5	0	0	2.781543	2.780176	2.780176	2.78291	2.780859	2.777441	2.776758	2.780176	2.778125	2.778809	2.777441	2.780176	2.777441	2.776758	2.778809	2.778809
1639578512831	-27.816	5.368	1007.72	-0.84	-0.84	-0.35	180	-123	-412.5	0	0	2.782227	2.780176	2.78291	2.777441	2.780176	2.78291	2.78291	2.78291	2.778809	2.778125	2.777441	2.777441	2.780859	2.778809	2.778125	2.780176
1639578512841	-22.448	9.76	1011.624	-0.28	-0.7	-0.35	178.5	-120	-412.5	0	0	2.783594	2.783594	2.778809	2.782227	2.780176	2.78291	2.78291	2.78291	2.780859	2.777441	2.778809	2.778809	2.780176	2.778125	2.778809	2.777441
1639578512851	-23.912	6.832	1011.136	-0.56	-0.91	-0.35	178.5	-121.5	-414	0	0	2.78291	2.780176	2.780176	2.778809	2.782227	2.780859	2.782227	2.783594	2.777441	2.780859	2.778809	2.780859	2.778125	2.777441	2.777441	2.778809
1639578512860	-26.352	8.296	1007.72	-0.49	-0.84	-0.35	175.5	-120	-411	0	0	2.78291	2.777441	2.780176	2.778809	2.780176	2.783594	2.78291	2.782227	2.782227	2.780176	2.777441	2.778125	2.780859	2.780859	2.780176	2.776758
1639578512870	-31.232	5.856	1008.696	-0.77	-0.77	-0.35	177	-120	-414	0	0	2.780859	2.781543	2.781543	2.78291	2.777441	2.780176	2.780859	2.780859	2.778809	2.778809	2.778809	2.780859	2.780859	2.776758	2.777441	2.778809
1639578512880	-28.792	-4.88	1004.792	-0.49	-0.49	-0.49	189	-118.5	-412.5	0	0	2.778809	2.780859	2.779492	2.780176	2.778809	2.778809	2.78291	2.78291	2.777441	2.778809	2.777441	2.780859	2.777441	2.777441	2.777441	2.780859
1639578512890	-27.328	9.272	1008.696	-0.21	-1.12	-0.35	186	-121.5	-411	0	0	2.782227	2.782227	2.780859	2.777441	2.780176	2.78291	2.780859	2.780176	2.777441	2.777441	2.780176	2.776758	2.780176	2.780859	2.780859	2.780176
1639578512900	-22.936	4.392	1012.112	-0.07	-0.77	-0.28	175.5	-121.5	-411	0	0	2.78291	2.780176	2.780859	2.78291	2.780176	2.780176	2.780176	2.780176	2.778809	2.777441	2.778809	2.778809	2.780176	2.778809	2.780176	2.780859
1639578512909	-27.328	9.272	1008.208	-0.63	-0.98	-0.28	175.5	-121.5	-411	0	0	2.780176	2.782227	2.78291	2.777441	2.783594	2.782227	2.78291	2.783594	2.778809	2.780176	2.782227	2.778809	2.776074	2.780176	2.78291	2.780859
1639578512919	-26.84	7.808	1016.016	-0.14	-0.63	-0.49	177	-121.5	-414	0	0	2.777441	2.780176	2.780859	2.777441	2.778809	2.780176	2.78291	2.777441	2.780859	2.780176	2.780176	2.778809	2.780859	2.778809	2.782227	2.778125
1639578512929	-30.744	10.248	1005.28	-0.14	-1.05	-0.28	180	-121.5	-417	0	0	2.78291	2.782227	2.777441	2.780176	2.780176	2.782227	2.776074	2.777441	2.781543	2.777441	2.778809	2.778125	2.782227	2.780859	2.778809	2.779492
1639578512939	-22.936	5.856	1005.768	-0.7	-0.7	-0.28	181.5	-118.5	-415.5	0	0	2.782227	2.78291	2.778809	2.780859	2.777441	2.783594	2.780176	2.783594	2.777441	2.780859	2.777441	2.778809	2.778809	2.777441	2.782227	2.778809
1639578512948	-32.208	9.76	997.472	-0.49	-0.84	-0.21	181.5	-118.5	-417	0	0	2.778809	2.782227	2.780176	2.778809	2.782227	2.78291	2.78291	2.780176	2.778809	2.782227	2.780176	2.778809	2.777441	2.778125	2.780859	2.782227
1639578512958	-28.304	1.464	1008.696	-0.28	-0.7	-0.35	178.5	-117	-412.5	0	0	2.783594	2.780176	2.778809	2.776758	2.777441	2.780859	2.782227	2.78291	2.782227	2.778809	2.777441	2.778809	2.780176	2.777441	2.780859	2.777441
1639578512968	-26.84	6.344	1003.816	-0.56	-0.91	-0.35	178.5	-123	-412.5	0	0	2.780176	2.780859	2.780176	2.778809	2.778809	2.778809	2.777441	2.780859	2.778809	2.780176	2.776758	2.778809	2.778809	2.778125	2.778809	2.780859
1639578512978	-31.232	10.248	1015.04	-0.77	-0.77	-0.42	186	-126	-412.5	0	0	2.780176	2.783594	2.780176	2.780176	2.780176	2.78291	2.78291	2.782227	2.777441	2.778125	2.782227	2.780176	2.780176	2.780176	2.778809	2.778809
1639578512987	-31.72	5.856	1011.624	-0.7	-0.77	-0.42	184.5	-124.5	-417	0	0	2.78291	2.780176	2.778809	2.78291	2.780176	2.780859	2.774707	2.771289	2.780859	2.780859	2.766504	2.776758	2.778809	2.778809	2.774707	2.769922
1639578512997	-27.328	6.832	1008.696	-0.35	-0.77	-0.35	183	-118.5	-423	0	0	2.782227	2.782227	2.780176	2.780859	2.782227	2.780859	2.780176	2.777441	2.780859	2.778809	2.777441	2.778809	2.776758	2.778809	2.777441	2.777441
1639578513007	-24.4	4.88	1008.208	-0.7	-0.63	-0.49	186	-115.5	-420	0	0	2.780859	2.78291	2.780176	2.778809	2.78291	2.783594	2.778809	2.782227	2.782227	2.780859	2.780176	2.782227	2.777441	2.780859	2.778809	2.780176
1639578513017	-27.328	0	997.472	-0.35	-0.84	-0.35	186	-117	-414	0	0	2.782227	2.780859	2.780859	2.78291	2.783594	2.780176	2.777441	2.780176	2.778809	2.777441	2.777441	2.780176	2.777441	2.780176	2.778125	2.780176
1639578513026	-26.84	2.928	1004.304	0	-1.05	-0.21	186	-120	-418.5	0	0	2.780859	2.780176	2.780176	2.783594	2.780176	2.783594	2.777441	2.78291	2.778809	2.780176	2.777441	2.778125	2.777441	2.777441	2.777441	2.778125
1639578513036	-30.744	2.928	1009.184	0.07	-0.77	-0.21	187.5	-118.5	-420	0	0	2.780859	2.777441	2.777441	2.780176	2.782227	2.782227	2.783594	2.780859	2.778809	2.780859	2.778809	2.780176	2.777441	2.778809	2.778809	2.782227
1639578513046	-29.28	4.392	1012.112	-0.7	-0.91	-0.35	183	-121.5	-411	0	0	2.779492	2.778809	2.78291	2.778809	2.782227	2.777441	2.780176	2.780176	2.777441	2.778809	2.780859	2.781543	2.780859	2.778809	2.780176	2.776758
1639578513056	-31.232	6.344	1017.48	0.14	-0.7	-0.35	177	-123	-418.5	0	0	2.780176	2.782227	2.777441	2.777441	2.780176	2.780176	2.778809	2.777441	2.780176	2.778809	2.778125	2.778125	2.778809	2.776758	2.778125	2.780859
1639578513066	-25.864	7.808	1021.872	-0.63	-0.91	-0.14	177	-117	-423	0	0	2.780176	2.782227	2.778809	2.782227	2.780176	2.782227	2.782227	2.777441	2.777441	2.780176	2.776758	2.778125	2.781543	2.777441	2.777441	2.778125
1639578513075	-33.672	9.76	1015.528	-0.28	-0.77	-0.49	178.5	-120	-414	0	0	2.78291	2.778809	2.778809	2.782227	2.782227	2.778809	2.78291	2.778809	2.778809	2.777441	2.780176	2.777441	2.777441	2.780176	2.780176	2.777441
1639578513085	-26.352	12.2	1010.16	0.07	-0.77	-0.42	183	-120	-414	0	0	2.780859	2.778809	2.780176	2.777441	2.783594	2.780176	2.780859	2.783594	2.777441	2.780859	2.777441	2.778125	2.777441	2.778809	2.777441	2.778125
1639578513095	-17.568	12.2	1011.624	-0.77	-0.77	-0.49	180	-120	-420	0	0	2.780176	2.782227	2.782227	2.778809	2.780859	2.780859	2.78291	2.781543	2.777441	2.776758	2.778809	2.778125	2.778809	2.778809	2.778125	2.780859
1639578513105	-27.328	9.272	1012.6	-0.7	-0.84	-0.42	180	-123	-417	0	0	2.782227	2.780176	2.780859	2.782227	2.78291	2.780859	2.780859	2.778809	2.780859	2.780176	2.780859	2.780176	2.780859	2.780859	2.778125	2.778125
1639578513114	-30.256	9.76	1014.552	-0.35	-0.84	-0.42	183	-124.5	-415.5	0	0	2.780859	2.78291	2.780859	2.783594	2.780859	2.778809	2.781543	2.783594	2.778809	2.777441	2.778809	2.782227	2.778809	2.778125	2.780176	2.778809
1639578513124	-24.4	6.344	1009.184	-0.35	-0.84	-0.21	180	-117	-415.5	0	0	2.778809	2.780859	2.780176	2.78291	2.782227	2.777441	2.780176	2.780176	2.781543	2.777441	2.780859	2.781543	2.780176	2.778809	2.780859	2.777441
1639578513134	-23.912	4.392	1010.648	-0.84	-0.91	-0.35	180	-112.5	-412.5	0	0	2.780176	2.78291	2.776758	2.780176	2.782227	2.778809	2.780176	2.778809	2.777441	2.777441	2.782227	2.778809	2.780859	2.778125	2.777441	2.778125
1639578513144	-26.352	2.928	1004.304	-0.21	-0.77	-0.28	180	-118.5	-412.5	0	0	2.780859	2.780176	2.780176	2.783594	2.777441	2.780176	2.777441	2.780176	2.781543	2.778809	2.777441	2.780859	2.780176	2.778125	2.778809	2.780859
1639578513153	-23.912	1.464	1006.256	-0.56	-0.7	-0.28	183	-126	-417	0	0	2.780176	2.780176	2.78291	2.777441	2.78291	2.78291	2.783594	2.78291	2.777441	2.778125	2.778809	2.780859	2.780859	2.780176	2.778809	2.777441
1639578513163	-23.424	7.32	1009.672	-0.49	-0.91	-0.28	186	-124.5	-421.5	0	0	2.780176	2.78291	2.778809	2.782227	2.782227	2.782227	2.782227	2.780176	2.780176	2.777441	2.782227	2.778125	2.778125	2.777441	2.777441	2.778809
1639578513173	-29.28	7.808	1004.792	-0.49	-0.84	-0.35	184.5	-121.5	-418.5	0	0	2.780176	2.778809	2.778809	2.783594	2.780859	2.777441	2.780176	2.777441	2.780176	2.777441	2.777441	2.780176	2.780859	2.781543	2.778809	2.782227
1639578513183	-27.816	6.344	1007.232	-0.42	-0.98	-0.28	183	-127.5	-415.5	0	0	2.778809	2.778809	2.782227	2.780176	2.780176	2.778809	2.777441	2.780176	2.777441	2.778809	2.780859	2.780176	2.781543	2.780176	2.780859	2.780859
1639578513193	-25.376	7.808	1015.04	-0.63	-0.77	-0.28	181.5	-124.5	-415.5	0	0	2.780859	2.780859	2.778809	2.780176	2.783594	2.78291	2.778809	2.780859	2.780859	2.780859	2.780176	2.782227	2.780176	2.782227	2.780176	2.778809
1639578513202	-29.768	2.928	1003.816	-0.56	-0.77	-0.28	181.5	-120	-417	0	0	2.780859	2.78291	2.783594	2.780859	2.778809	2.783594	2.780176	2.780176	2.777441	2.778125	2.780859	2.780859	2.780176	2.777441	2.777441	2.780176
1639578513212	-28.792	9.272	1007.72	-0.42	-0.91	-0.35	184.5	-126	-415.5	0	0	2.777441	2.782227	2.780859	2.780176	2.780176	2.782227	2.780176	2.783594	2.780176	2.778125	2.780859	2.777441	2.780859	2.780859	2.777441	2.778809
1639578513222	-29.768	7.808	1014.064	-0.49	-0.91	-0.35	190.5	-123	-415.5	0	0	2.78291	2.78291	2.780176	2.780176	2.780859	2.780176	2.777441	2.777441	2.781543	2.778809	2.780859	2.778809	2.777441	2.782227	2.780859	2.778125
1639578513232	-27.328	4.88	1009.672	-0.56	-0.77	-0.21	184.5	-121.5	-415.5	0	0	2.782227	2.780859	2.783594	2.782227	2.780176	2.780859	2.776758	2.777441	2.777441	2.780859	2.778809	2.778125	2.780859	2.780176	2.778809	2.778809
1639578513241	-26.352	0.488	1013.088	-0.42	-0.84	-0.35	181.5	-121.5	-415.5	0	0	2.778809	2.78291	2.78291	2.780176	2.777441	2.780176	2.780176	2.781543	2.777441	2.780176	2.780176	2.778125	2.780176	2.780859	2.782227	2.777441
1639578513251	-23.912	7.32	1011.136	-0.42	-0.91	-0.28	183	-115.5	-414	0	0	2.782227	2.780176	2.777441	2.780176	2.782227	2.780859	2.780176	2.780859	2.780176	2.780859	2.780859	2.778809	2.778125	2.778809	2.777441	2.777441
1639578513261	-23.424	5.856	1006.256	-0.49	-0.84	-0.28	175.5	-114	-414	0	0	2.782227	2.778809	2.780176	2.780859	2.780176	2.778809	2.780176	2.780859	2.782227	2.778125	2.776758	2.780176	2.780859	2.778125	2.778125	2.777441
1639578513271	-24.4	3.904	1012.6	-0.49	-0.91	-0.28	177	-115.5	-420	0	0	2.778809	2.780859	2.782227	2.781543	2.780176	2.780176	2.782227	2.780176	2.780859	2.778809	2.780176	2.777441	2.777441	2.778125	2.778809	2.778809
1639578513280	-22.448	4.392	1005.768	-0.42	-0.84	-0.21	183	-118.5	-414	0	0	2.780176	2.783594	2.780176	2.78291	2.782227	2.782227	2.780859	2.78291	2.777441	2.780176	2.780859	2.778125	2.777441	2.778809	2.777441	2.777441
1639578513290	-26.84	6.832	1008.696	-0.28	-0.77	-0.28	180	-118.5	-415.5	0	0	2.780176	2.782227	2.780176	2.776758	2.78291	2.780859	2.777441	2.782227	2.778125	2.780176	2.778125	2.777441	2.780859	2.780176	2.778125	2.782227
1639578513300	-22.448	4.392	1008.696	-0.63	-0.7	-0.28	181.5	-117	-414	0	0	2.778809	2.78291	2.776758	2.777441	2.780176	2.780859	2.778809	2.78291	2.782227	2.777441	2.782227	2.778809	2.778125	2.778125	2.777441	2.780176
1639578513310	-29.28	9.76	1007.232	-0.49	-0.77	-0.28	184.5	-114	-408	0	0	2.780176	2.771289	2.778809	2.777441	2.783594	2.777441	2.780859	2.780176	2.768555	2.772656	2.781543	2.775391	2.774707	2.778809	2.777441	2.778809
1639578513319	-33.184	4.88	1012.6	-0.49	-0.84	-0.28	184.5	-115.5	-409.5	0	0	2.783594	2.780859	2.780859	2.780859	2.782227	2.777441	2.778809	2.780176	2.780176	2.781543	2.778125	2.780176	2.780176	2.780859	2.780859	2.777441
1639578513329	-26.84	7.32	1003.816	-0.49	-0.7	-0.28	186	-120	-412.5	0	0	2.782227	2.782227	2.780859	2.777441	2.778809	2.78291	2.781543	2.777441	2.778809	2.780859	2.780859	2.780176	2.778809	2.780176	2.776758	2.782227
1639578513339	-30.744	6.344	1008.208	-0.56	-0.77	-0.35	184.5	-123	-408	0	0	2.780859	2.782227	2.780859	2.780176	2.778809	2.780176	2.780176	2.780859	2.777441	2.778809	2.778809	2.777441	2.780859	2.778125	2.780176	2.778809
1639578513349	-26.84	15.128	1011.624	-0.42	-0.98	-0.35	186	-117	-411	0	0	2.777441	2.782227	2.778809	2.778809	2.780176	2.781543	2.780176	2.783594	2.782227	2.780176	2.777441	2.778125	2.778125	2.778809	2.777441	2.780176
1639578513359	-22.936	6.344	1003.328	-0.42	-0.91	-0.35	186	-115.5	-421.5	0	0	2.782227	2.781543	2.78291	2.778809	2.780176	2.777441	2.777441	2.778809	2.778809	2.778125	2.780859	2.778809	2.776758	2.778809	2.780859	2.777441
1639578513368	-27.816	4.88	1012.112	-0.35	-0.91	-0.28	183	-111	-417	0	0	2.780176	2.780176	2.780859	2.783594	2.777441	2.78291	2.780176	2.777441	2.780176	2.778809	2.780859	2.776758	2.777441	2.778125	2.778125	2.777441
1639578513378	-32.696	2.928	1013.088	-0.49	-0.7	-0.28	181.5	-114	-415.5	0	0	2.78291	2.78291	2.780176	2.780176	2.780859	2.778809	2.780176	2.783594	2.782227	2.780859	2.777441	2.780859	2.777441	2.782227	2.778809	2.780176
1639578513388	-31.72	4.392	1006.744	-0.49	-0.84	-0.28	183	-127.5	-418.5	0	0	2.778809	2.783594	2.782227	2.780859	2.780176	2.783594	2.783594	2.781543	2.780176	2.782227	2.782227	2.777441	2.778809	2.777441	2.780859	2.777441
1639578513398	-27.816	-1.464	1011.136	-0.49	-0.91	-0.28	184.5	-126	-417	0	0	2.780859	2.782227	2.777441	2.780176	2.780176	2.782227	2.78291	2.777441	2.778809	2.780859	2.780176	2.778125	2.780176	2.777441	2.778809	2.782227
1639578513407	-26.352	10.736	1012.112	-0.42	-0.7	-0.28	180	-126	-420	0	0	2.776758	2.783594	2.780176	2.780176	2.778809	2.777441	2.777441	2.783594	2.778809	2.780859	2.776074	2.778809	2.778809	2.777441	2.777441	2.778125
1639578513417	-32.696	4.392	1014.064	-0.42	-0.84	-0.28	181.5	-124.5	-420	0	0	2.782227	2.780176	2.777441	2.780176	2.780176	2.780176	2.782227	2.780176	2.781543	2.781543	2.778809	2.780176	2.776758	2.777441	2.778809	2.778809
1639578513427	-21.96	0.976	1008.696	-0.42	-0.91	-0.35	186	-124.5	-418.5	0	0	2.782227	2.783594	2.78291	2.783594	2.780176	2.780176	2.783594	2.777441	2.777441	2.780859	2.782227	2.777441	2.776758	2.780859	2.776758	2.777441
1639578513437	-27.816	6.344	1004.304	-0.49	-0.84	-0.28	187.5	-126	-414	0	0	2.780176	2.783594	2.780176	2.783594	2.780176	2.783594	2.78291	2.777441	2.778809	2.778809	2.780176	2.777441	2.780859	2.778809	2.778809	2.778125
1639578513446	-18.056	4.392	1010.648	-0.42	-0.77	-0.28	183	-121.5	-411	0	0	2.778809	2.782227	2.783594	2.780176	2.783594	2.778809	2.778809	2.778809	2.780176	2.780859	2.778809	2.778809	2.780859	2.780859	2.776758	2.780176
1639578513456	-25.864	4.88	1004.792	-0.56	-0.84	-0.35	180	-117	-418.5	0	0	2.78291	2.78291	2.783594	2.780859	2.780859	2.780859	2.783594	2.783594	2.782227	2.782227	2.780176	2.778809	2.782227	2.776758	2.778809	2.780176
1639578513466	-24.888	10.248	1006.256	-0.49	-0.63	-0.21	175.5	-112.5	-417	0	0	2.780176	2.782227	2.782227	2.778809	2.780859	2.782227	2.78291	2.780176	2.780176	2.780859	2.778809	2.780176	2.778809	2.778809	2.778809	2.780859
1639578513476	-29.28	4.88	1010.16	-0.42	-0.84	-0.35	169.5	-111	-415.5	0	0	2.782227	2.780859	2.778809	2.783594	2.783594	2.783594	2.780859	2.780859	2.778809	2.778809	2.780859	2.780859	2.780176	2.778125	2.778125	2.780176
1639578513485	-24.888	15.128	1007.232	-0.42	-0.7	-0.28	177	-115.5	-412.5	0	0	2.780176	2.780176	2.782227	2.78291	2.780176	2.780859	2.780176	2.78291	2.780859	2.778809	2.778809	2.778809	2.780176	2.780176	2.777441	2.781543
1639578513495	-23.424	4.88	1004.304	-0.42	-0.91	-0.21	189	-117	-409.5	0	0	2.778809	2.780859	2.783594	2.780176	2.778809	2.780176	2.780176	2.780859	2.778809	2.777441	2.778809	2.778125	2.778809	2.780176	2.780176	2.780176
1639578513505	-28.304	2.44	1010.16	-0.63	-0.91	-0.35	189	-117	-414	0	0	2.782227	2.780859	2.778809	2.778809	2.777441	2.782227	2.78291	2.780859	2.777441	2.780859	2.780859	2.782227	2.780176	2.778809	2.778809	2.778809
1639578513515	-28.792	6.832	1008.696	-0.98	-0.77	-0.28	184.5	-121.5	-412.5	0	0	2.780859	2.780176	2.78291	2.780176	2.782227	2.783594	2.78291	2.780176	2.778809	2.778125	2.778809	2.780176	2.777441	2.777441	2.777441	2.778125
1639578513525	-27.816	11.712	1000.4	0	-0.91	-0.28	184.5	-120	-409.5	0	0	2.782227	2.778809	2.780176	2.783594	2.780859	2.780859	2.777441	2.782227	2.777441	2.780176	2.778809	2.776758	2.780859	2.780176	2.778809	2.779492
1639578513534	-29.28	0	1011.624	-0.7	-0.84	-0.35	180	-120	-411	0	0	2.780859	2.780176	2.780176	2.778809	2.783594	2.783594	2.780859	2.782227	2.780176	2.780859	2.778809	2.777441	2.778809	2.777441	2.778809	2.777441
1639578513544	-33.184	8.784	1007.232	-0.42	-0.7	-0.21	177	-118.5	-414	0	0	2.780176	2.778809	2.780859	2.780859	2.782227	2.780176	2.780859	2.781543	2.778809	2.780176	2.777441	2.778125	2.780176	2.777441	2.778125	2.777441
1639578513554	-22.936	2.928	1010.648	-0.63	-0.77	-0.35	180	-117	-417	0	0	2.780176	2.780176	2.777441	2.780176	2.780176	2.780176	2.777441	2.78291	2.777441	2.777441	2.777441	2.780859	2.780859	2.778809	2.780859	2.782227
1639578513564	-25.376	3.416	1005.768	-0.28	-0.77	-0.35	183	-117	-420	0	0	2.78291	2.777441	2.782227	2.783594	2.780176	2.780859	2.780176	2.782227	2.782227	2.778809	2.778809	2.776758	2.777441	2.777441	2.780859	2.778809
1639578513573	-23.424	7.32	1001.376	-0.35	-0.91	-0.35	183	-118.5	-420	0	0	2.780859	2.78291	2.782227	2.777441	2.780859	2.783594	2.782227	2.780176	2.780859	2.778125	2.782227	2.78291	2.780176	2.778809	2.777441	2.777441
1639578513583	-24.888	9.272	1012.6	0	-0.84	-0.28	187.5	-117	-420	0	0	2.780176	2.783594	2.780859	2.780176	2.782227	2.780859	2.778809	2.780859	2.776758	2.780176	2.778809	2.780176	2.778809	2.778809	2.778809	2.777441
1639578513593	-26.352	10.248	1005.28	-0.7	-0.91	-0.28	186	-117	-418.5	0	0	2.777441	2.777441	2.782227	2.780859	2.780176	2.78291	2.780176	2.78291	2.778809	2.777441	2.777441	2.780176	2.777441	2.782227	2.780859	2.778809
1639578513603	-25.864	14.64	1006.744	-0.28	-0.91	-0.21	181.5	-118.5	-417	0	0	2.777441	2.780859	2.777441	2.783594	2.780176	2.78291	2.782227	2.780176	2.78291	2.778125	2.778809	2.777441	2.778125	2.778809	2.778809	2.777441
1639578513612	-21.472	6.344	1010.648	-0.56	-0.77	-0.35	181.5	-117	-423	0	0	2.780859	2.780176	2.782227	2.777441	2.783594	2.780859	2.781543	2.778809	2.778809	2.778809	2.780176	2.778125	2.780859	2.778809	2.777441	2.778809
1639578513622	-24.4	4.392	1014.064	-0.35	-0.7	-0.28	180	-123	-420	0	0	2.783594	2.783594	2.778809	2.780176	2.780176	2.780176	2.782227	2.78291	2.778809	2.780176	2.780176	2.778125	2.776758	2.780859	2.780176	2.782227
1639578513632	-22.448	3.904	1010.16	-0.49	-0.84	-0.28	184.5	-123	-415.5	0	0	2.782227	2.778809	2.778809	2.770605	2.782227	2.778809	2.78291	2.780176	2.780859	2.780176	2.769238	2.771289	2.778125	2.780859	2.778809	2.780176
1639578513642	-33.184	5.856	1009.672	-0.28	-0.84	-0.35	184.5	-120	-417	0	0	2.777441	2.778809	2.782227	2.783594	2.780859	2.780859	2.780176	2.780176	2.780176	2.777441	2.777441	2.778809	2.777441	2.777441	2.780859	2.778809
1639578513651	-29.28	12.688	1007.232	-0.42	-0.7	-0.28	181.5	-123	-414	0	0	2.783594	2.780176	2.778809	2.78291	2.783594	2.780859	2.780859	2.777441	2.780859	2.780859	2.780859	2.780859	2.778809	2.780859	2.782227	2.780859
1639578513661	-24.888	0.488	1007.232	-0.56	-0.98	-0.28	181.5	-120	-418.5	0	0	2.780176	2.783594	2.778809	2.782227	2.780176	2.778809	2.777441	2.780176	2.780859	2.778809	2.777441	2.780859	2.780176	2.778125	2.778125	2.780859
1639578513671	-25.376	7.32	1009.184	-0.49	-0.84	-0.21	183	-115.5	-420	0	0	2.777441	2.778809	2.780176	2.782227	2.780176	2.780176	2.780859	2.777441	2.778809	2.780176	2.777441	2.778809	2.777441	2.777441	2.778809	2.778125
1639578513681	-33.184	5.856	1006.256	-0.42	-0.91	-0.28	187.5	-120	-421.5	0	0	2.782227	2.780859	2.777441	2.777441	2.780176	2.783594	2.780859	2.776758	2.778809	2.777441	2.778809	2.777441	2.778809	2.778809	2.780176	2.778809
1639578513691	-32.696	11.712	1016.016	-0.63	-0.84	-0.21	184.5	-118.5	-423	0	0	2.777441	2.778809	2.778809	2.78291	2.776758	2.783594	2.777441	2.783594	2.778809	2.778125	2.780176	2.778125	2.778809	2.778809	2.780176	2.777441
1639578513700	-33.672	7.32	1002.84	-0.35	-0.84	-0.28	183	-115.5	-418.5	0	0	2.780176	2.780176	2.782227	2.780859	2.780176	2.782227	2.780176	2.780176	2.778809	2.778809	2.778125	2.776758	2.778125	2.777441	2.782227	2.780859
1639578513710	-28.304	3.416	1016.992	-1.05	-0.7	-0.35	184.5	-121.5	-414	0	0	2.782227	2.780176	2.780859	2.780176	2.778809	2.782227	2.780176	2.780176	2.777441	2.778809	2.780859	2.777441	2.781543	2.780859	2.780176	2.782227
1639578513720	-32.208	2.44	996.008	0.49	-1.26	-0.28	181.5	-121.5	-415.5	0	0	2.780859	2.778809	2.780859	2.780859	2.783594	2.780176	2.780176	2.778809	2.780859	2.781543	2.778809	2.782227	2.780176	2.778809	2.778809	2.780859
1639578513730	-23.912	5.368	1013.088	-0.49	-0.98	-0.21	181.5	-123	-415.5	0	0	2.780176	2.780176	2.780859	2.778809	2.780176	2.783594	2.782227	2.783594	2.780176	2.780176	2.780176	2.781543	2.777441	2.776074	2.778125	2.780859
1639578513739	-30.744	9.272	1002.352	-0.98	-0.63	-0.21	183	-123	-415.5	0	0	2.780859	2.780176	2.780859	2.780176	2.778809	2.777441	2.780859	2.782227	2.778809	2.778809	2.778809	2.778809	2.778125	2.780859	2.778809	2.778125
1639578513749	-22.448	8.784	1008.696	-0.56	-0.91	-0.35	181.5	-120	-412.5	0	0	2.778809	2.782227	2.780176	2.783594	2.780859	2.778809	2.780859	2.777441	2.778125	2.777441	2.776758	2.777441	2.778125	2.777441	2.776758	2.778809
1639578513759	-29.28	4.392	992.104	0	-0.91	-0.21	181.5	-120	-412.5	0	0	2.782227	2.780176	2.78291	2.780176	2.778809	2.780176	2.780176	2.780176	2.778125	2.782227	2.778125	2.777441	2.780176	2.777441	2.780859	2.778809
1639578513769	-28.792	5.368	1010.16	-0.98	-0.77	-0.35	180	-118.5	-414	0	0	2.780176	2.780176	2.78291	2.778809	2.782227	2.78291	2.782227	2.780176	2.780176	2.778809	2.777441	2.780859	2.780859	2.778809	2.778125	2.777441
1639578513778	-33.184	6.832	1003.816	-0.56	-0.56	-0.35	181.5	-117	-421.5	0	0	2.780176	2.780176	2.780859	2.776758	2.78291	2.778809	2.780176	2.780176	2.780176	2.776758	2.782227	2.778809	2.778809	2.777441	2.782227	2.777441
1639578513788	-26.84	2.44	1011.624	-0.21	-0.98	-0.42	183	-120	-418.5	0	0	2.780176	2.777441	2.783594	2.783594	2.777441	2.780859	2.780176	2.777441	2.777441	2.780859	2.780859	2.777441	2.781543	2.778809	2.780176	2.778809
1639578513798	-33.672	5.368	998.936	-0.21	-0.49	-0.28	183	-120	-414	0	0	2.782227	2.78291	2.777441	2.782227	2.78291	2.780176	2.778809	2.778809	2.778809	2.778125	2.778809	2.778125	2.778809	2.777441	2.777441	2.780176
1639578513808	-20.984	6.344	1012.112	-0.77	-0.84	-0.35	181.5	-117	-415.5	0	0	2.780176	2.777441	2.780859	2.777441	2.776758	2.78291	2.780859	2.778809	2.780176	2.777441	2.780859	2.780859	2.780859	2.780176	2.778809	2.778125
1639578513818	-31.232	6.344	1006.256	-0.28	-0.7	-0.35	180	-118.5	-417	0	0	2.780859	2.777441	2.780176	2.780176	2.778809	2.777441	2.780176	2.782227	2.778809	2.780176	2.780859	2.780859	2.780176	2.78291	2.782227	2.780859
1639578513827	-32.208	0.976	1013.576	-0.28	-0.84	-0.28	178.5	-115.5	-412.5	0	0	2.780859	2.78291	2.780859	2.778809	2.780176	2.777441	2.780859	2.778809	2.778125	2.780859	2.778809	2.782227	2.782227	2.780176	2.778809	2.782227
1639578513837	-20.984	4.392	1002.352	-0.35	-0.98	-0.21	175.5	-117	-415.5	0	0	2.780176	2.778809	2.778809	2.778809	2.783594	2.777441	2.782227	2.777441	2.778809	2.777441	2.778125	2.781543	2.778809	2.776758	2.780859	2.780859
1639578513847	-25.376	12.2	1019.92	-0.7	-0.91	-0.21	178.5	-123	-418.5	0	0	2.780176	2.780859	2.782227	2.780176	2.780176	2.78291	2.78291	2.78291	2.777441	2.777441	2.778809	2.780859	2.780176	2.780859	2.780176	2.780859
1639578513857	-23.424	7.32	1006.744	-0.35	-0.49	-0.28	184.5	-123	-414	0	0	2.778809	2.777441	2.780176	2.780859	2.778809	2.780176	2.780176	2.777441	2.780176	2.778809	2.778809	2.778809	2.782227	2.780859	2.777441	2.777441
1639578513866	-27.816	8.784	1006.744	-0.7	-0.98	-0.21	189	-120	-412.5	0	0	2.780859	2.778809	2.778809	2.78291	2.778809	2.780176	2.782227	2.777441	2.778809	2.778809	2.777441	2.778809	2.777441	2.780859	2.777441	2.778809
