/**
 * General Information:
 * 	UI version: 1.0
 * Device information:
 * 	Id: Mitch_1
 * 	Hardware Version: 2.0
 * 	Firmware Version: 5.3.0
 * Acquisition Information:
 * 	Mode: MIMU + Pressure Insole + Distance Sensors
 * 	Sampling frequency: 100Hz
 * 	Axl_FS: 16g
 * 	Gyro_FS: 2000dps
 * 	Magn_FS: 50Gauss
 * 	DS1_FS: 0mm
 * 	DS1_Offset: 0mm
 * 	DS2_FS: 0mm
 * 	DS2_Offset: 0mm
 */
Timestamp	Acc.X	Acc.Y	Acc.Z	Gyro.X	Gyro.Y	Gyro.Z	Magn.X	Magn.Y	Magn.Z	Distance.1	Distance.2	P.0	P.1	P.2	P.3	P.4	P.5	P.6	P.7	P.8	P.9	P.10	P.11	P.12	P.13	P.14	P.15
(ms)	(mG)	(mG)	(mG)	(dps)	(dps)	(dps)	(mGauss)	(mGauss)	(mGauss)	(mm)	(mm)	(V)	(V)	(V)	(V)	(V)	(V)	(V)	(V)	(V)	(V)	(V)	(V)	(V)	(V)	(V)	(V)
1639558219218	-910.12	-12.2	-426.024	2.38	0	0	517.5	73.5	-72	0	0	2.778809	2.780176	2.781543	2.782227	2.777441	2.78291	2.78291	2.778809	2.777441	2.778809	2.777441	2.778809	2.777441	2.782227	2.777441	2.778809
1639558219227	-926.712	-3.416	-423.584	-63.28	9.1	-40.95	291	-63	-1.5	0	0	2.782227	2.780176	2.780176	2.778809	2.778125	2.777441	2.780176	2.780176	2.780176	2.780176	2.780859	2.778809	2.780176	2.780176	2.777441	2.777441
1639558219237	-922.808	-2.44	-422.12	11.2	-5.18	3.5	288	-63	-1.5	0	0	2.781543	2.778809	2.778809	2.777441	2.780176	2.78291	2.778809	2.777441	2.778809	2.782227	2.777441	2.780859	2.780176	2.780176	2.780176	2.777441
1639558219247	-933.544	2.928	-416.752	9.94	-5.11	5.11	286.5	-64.5	-6	0	0	2.777441	2.780176	2.781543	2.781543	2.777441	2.782227	2.777441	2.782227	2.778809	2.779492	2.778809	2.777441	2.780859	2.778125	2.778125	2.780859
1639558219257	-930.128	4.88	-419.68	2.17	-1.19	1.05	288	-64.5	-7.5	0	0	2.776758	2.780176	2.780176	2.779492	2.780859	2.777441	2.778125	2.780859	2.780859	2.781543	2.777441	2.778809	2.778809	2.777441	2.777441	2.778125
1639558219266	-925.248	-0.488	-428.952	0.21	0	-0.56	289.5	-63	-3	0	0	2.780859	2.780176	2.780176	2.780859	2.780176	2.78291	2.778125	2.778809	2.778809	2.778809	2.778809	2.778125	2.781543	2.780859	2.780859	2.777441
1639558219276	-921.832	3.416	-436.272	0.49	-0.14	-0.35	285	-63	3	0	0	2.778125	2.777441	2.777441	2.778809	2.78291	2.78291	2.777441	2.778809	2.780176	2.777441	2.776074	2.778809	2.780859	2.778125	2.776758	2.778125
1639558219286	-911.584	-3.416	-437.248	0.35	0.07	-0.49	285	-63	3	0	0	2.780859	2.777441	2.78291	2.78291	2.776758	2.782227	2.782227	2.780176	2.778125	2.780176	2.780859	2.777441	2.780176	2.778809	2.780176	2.777441
1639558219296	-923.784	-4.392	-440.664	0.21	-0.07	-0.49	288	-64.5	1.5	0	0	2.780176	2.782227	2.777441	2.777441	2.780176	2.780859	2.782227	2.777441	2.778125	2.780859	2.780859	2.780859	2.780859	2.777441	2.777441	2.778809
1639558219305	-919.88	-11.712	-441.152	0.42	-0.14	-0.49	292.5	-64.5	0	0	0	2.777441	2.780859	2.780859	2.780176	2.778809	2.777441	2.777441	2.782227	2.779492	2.780859	2.778809	2.778809	2.782227	2.781543	2.777441	2.780859
1639558219315	-921.832	-15.616	-438.712	0.42	-0.07	-0.49	292.5	-70.5	0	0	0	2.777441	2.778809	2.780176	2.782227	2.778125	2.780859	2.780176	2.782227	2.777441	2.778125	2.778809	2.780859	2.777441	2.777441	2.777441	2.776758
1639558219325	-935.984	-4.88	-447.008	0.42	0	-0.49	294	-70.5	-1.5	0	0	2.782227	2.778809	2.778125	2.780176	2.778809	2.783594	2.780859	2.781543	2.778125	2.778125	2.778125	2.782227	2.780176	2.778125	2.780859	2.776758
1639558219335	-923.784	0.976	-436.272	0.28	-0.07	-0.49	292.5	-64.5	-4.5	0	0	2.777441	2.778809	2.78291	2.780859	2.78291	2.780859	2.778809	2.782227	2.778125	2.782227	2.780176	2.778125	2.778125	2.781543	2.778125	2.777441
1639558219345	-922.808	-3.904	-438.224	0.35	0	-0.42	288	-64.5	1.5	0	0	2.78291	2.778809	2.777441	2.778809	2.778125	2.78291	2.777441	2.778125	2.780859	2.777441	2.778809	2.776758	2.778809	2.780859	2.778809	2.777441
1639558219354	-922.32	-4.88	-432.368	0.28	0	-0.42	291	-67.5	1.5	0	0	2.782227	2.780176	2.781543	2.778125	2.780176	2.782227	2.780859	2.778809	2.778125	2.777441	2.780859	2.780176	2.777441	2.777441	2.776758	2.778809
1639558219364	-918.416	-6.832	-427.976	0.21	-0.14	-0.42	291	-67.5	3	0	0	2.777441	2.780176	2.777441	2.78291	2.778809	2.78291	2.777441	2.778809	2.780176	2.778809	2.780176	2.781543	2.778809	2.780859	2.778809	2.780176
1639558219374	-913.536	-9.76	-428.952	0.35	0	-0.49	291	-64.5	7.5	0	0	2.782227	2.780176	2.780176	2.778809	2.780176	2.780859	2.778809	2.778809	2.781543	2.776758	2.778125	2.780859	2.778809	2.780859	2.780176	2.778125
1639558219384	-925.736	-4.88	-428.464	0.42	-0.14	-0.35	297	-61.5	0	0	0	2.778809	2.782227	2.780176	2.780176	2.777441	2.780859	2.775391	2.779492	2.778125	2.780859	2.780859	2.780176	2.778125	2.781543	2.768555	2.776758
1639558219393	-925.248	1.464	-428.464	0.28	-0.07	-0.49	297	-60	-1.5	0	0	2.778809	2.780176	2.777441	2.780176	2.780859	2.782227	2.782227	2.780176	2.780176	2.780859	2.777441	2.777441	2.780859	2.777441	2.778809	2.780176
1639558219403	-918.904	-3.416	-430.416	0.28	-0.07	-0.49	292.5	-61.5	1.5	0	0	2.778809	2.778125	2.778809	2.781543	2.782227	2.778809	2.778125	2.782227	2.777441	2.778809	2.780176	2.777441	2.777441	2.780176	2.778125	2.778125
1639558219413	-921.832	-5.368	-436.272	0.42	-0.07	-0.49	292.5	-60	-1.5	0	0	2.782227	2.78291	2.777441	2.780859	2.780176	2.778125	2.780176	2.781543	2.777441	2.778125	2.778809	2.780859	2.778125	2.778809	2.777441	2.777441
1639558219423	-929.64	-5.856	-429.928	0.35	-0.14	-0.49	298.5	-61.5	-4.5	0	0	2.780859	2.778809	2.78291	2.782227	2.778809	2.777441	2.780859	2.780176	2.777441	2.778125	2.778809	2.780859	2.780859	2.778125	2.779492	2.776758
1639558219432	-921.832	-5.856	-429.928	0.28	0	-0.42	298.5	-67.5	-1.5	0	0	2.778809	2.777441	2.780859	2.777441	2.782227	2.782227	2.78291	2.778809	2.777441	2.777441	2.777441	2.780176	2.780859	2.778809	2.780859	2.777441
1639558219442	-925.248	-2.928	-435.784	0.42	-0.14	-0.42	292.5	-67.5	7.5	0	0	2.780176	2.782227	2.780176	2.783594	2.778125	2.782227	2.780859	2.778125	2.780176	2.776758	2.780176	2.778809	2.777441	2.777441	2.778125	2.782227
1639558219452	-923.784	-6.832	-437.736	0.42	0	-0.56	292.5	-64.5	4.5	0	0	2.778125	2.782227	2.78291	2.778809	2.78291	2.778125	2.780176	2.780176	2.778125	2.777441	2.777441	2.776758	2.780859	2.778125	2.778125	2.777441
1639558219462	-914.512	-0.976	-435.296	0.28	0	-0.42	292.5	-61.5	1.5	0	0	2.782227	2.78291	2.777441	2.780176	2.782227	2.780176	2.776758	2.780859	2.782227	2.777441	2.780859	2.778809	2.780176	2.778125	2.778809	2.777441
1639558219471	-920.368	-6.832	-432.368	0.28	0	-0.49	294	-60	3	0	0	2.780176	2.778125	2.778125	2.776758	2.778809	2.780859	2.780859	2.778809	2.777441	2.777441	2.780859	2.778125	2.777441	2.777441	2.780859	2.777441
1639558219481	-918.416	4.88	-431.392	0.35	-0.07	-0.42	298.5	-66	3	0	0	2.780176	2.780176	2.780859	2.782227	2.782227	2.780859	2.780859	2.78291	2.780176	2.778809	2.781543	2.780859	2.780859	2.777441	2.778809	2.780859
1639558219491	-922.808	-3.904	-428.464	0.28	-0.14	-0.49	295.5	-67.5	-3	0	0	2.780176	2.782227	2.778809	2.780176	2.777441	2.780176	2.782227	2.778809	2.776758	2.777441	2.777441	2.777441	2.777441	2.779492	2.778809	2.780859
1639558219501	-922.808	-5.856	-423.584	0.35	-0.14	-0.42	292.5	-66	-1.5	0	0	2.780176	2.777441	2.778125	2.780859	2.778809	2.782227	2.777441	2.779492	2.780859	2.778125	2.777441	2.778125	2.778125	2.778809	2.780176	2.778809
1639558219511	-921.832	-3.416	-427.976	0.35	-0.07	-0.49	292.5	-66	-4.5	0	0	2.780859	2.780859	2.782227	2.78291	2.778809	2.782227	2.780176	2.778809	2.777441	2.778809	2.778125	2.780859	2.780176	2.777441	2.778125	2.780859
1639558219520	-921.344	-2.44	-429.44	0.35	-0.07	-0.56	292.5	-67.5	-7.5	0	0	2.778809	2.780176	2.780176	2.780859	2.780176	2.782227	2.780176	2.778125	2.778125	2.778125	2.778809	2.777441	2.777441	2.780859	2.778809	2.776758
1639558219530	-917.928	-2.928	-432.368	0.35	-0.07	-0.49	292.5	-67.5	-6	0	0	2.780859	2.780859	2.778809	2.780859	2.777441	2.780176	2.777441	2.777441	2.780859	2.778125	2.780176	2.777441	2.777441	2.777441	2.777441	2.777441
1639558219540	-917.44	-7.808	-432.856	0.35	-0.14	-0.49	286.5	-60	-1.5	0	0	2.780176	2.777441	2.780859	2.782227	2.778809	2.780859	2.777441	2.780176	2.777441	2.780859	2.778125	2.777441	2.782227	2.777441	2.778809	2.778809
1639558219550	-917.44	1.464	-430.416	0.49	-0.14	-0.42	285	-58.5	4.5	0	0	2.780176	2.780859	2.782227	2.777441	2.777441	2.778809	2.780176	2.782227	2.779492	2.777441	2.778125	2.778809	2.780176	2.778125	2.777441	2.778125
1639558219559	-929.64	-1.464	-431.88	0.28	-0.14	-0.49	291	-64.5	4.5	0	0	2.782227	2.780176	2.780176	2.777441	2.778125	2.782227	2.780176	2.778809	2.780176	2.777441	2.778125	2.780859	2.776758	2.780176	2.776074	2.778809
1639558219569	-924.76	-6.344	-431.392	0.42	-0.21	-0.42	295.5	-61.5	1.5	0	0	2.778809	2.780176	2.778809	2.778809	2.777441	2.780176	2.777441	2.780859	2.777441	2.778125	2.777441	2.780859	2.778125	2.777441	2.777441	2.780859
1639558219579	-921.832	-1.952	-426.024	0.42	-0.14	-0.42	295.5	-60	3	0	0	2.782227	2.780176	2.777441	2.778125	2.780176	2.778809	2.778125	2.780859	2.778809	2.778125	2.777441	2.777441	2.780859	2.776758	2.780859	2.777441
1639558219589	-928.664	-9.272	-420.656	0.35	-0.07	-0.49	292.5	-63	-1.5	0	0	2.780176	2.778809	2.778809	2.780176	2.777441	2.778125	2.780176	2.778809	2.778809	2.777441	2.778809	2.780859	2.778125	2.777441	2.780859	2.778125
1639558219598	-928.664	-6.832	-426.512	0.28	-0.07	-0.21	295.5	-60	-4.5	0	0	2.777441	2.780859	2.778809	2.777441	2.777441	2.780176	2.777441	2.780176	2.777441	2.778125	2.780176	2.780859	2.780859	2.780859	2.776758	2.780859
1639558219608	-922.32	-3.904	-424.56	0.42	-0.07	-0.42	298.5	-57	-6	0	0	2.778809	2.778809	2.782227	2.780859	2.780859	2.780859	2.78291	2.777441	2.777441	2.777441	2.777441	2.777441	2.777441	2.777441	2.778809	2.777441
1639558219618	-913.048	-4.88	-429.928	0.28	-0.07	-0.49	297	-64.5	-7.5	0	0	2.780176	2.780176	2.777441	2.777441	2.777441	2.777441	2.78291	2.781543	2.777441	2.782227	2.780859	2.778809	2.778809	2.778809	2.777441	2.778125
1639558219628	-913.536	-1.464	-431.88	0.28	-0.07	-0.42	295.5	-63	0	0	0	2.782227	2.780176	2.778809	2.777441	2.780176	2.778125	2.780176	2.778809	2.780859	2.778809	2.777441	2.777441	2.778125	2.778125	2.778809	2.777441
1639558219637	-923.296	-0.976	-433.344	0.42	-0.07	-0.42	294	-63	6	0	0	2.780176	2.780859	2.780859	2.780176	2.777441	2.780176	2.778809	2.777441	2.780176	2.778125	2.777441	2.777441	2.781543	2.777441	2.780859	2.777441
1639558219647	-923.784	-4.88	-436.272	0.35	-0.07	-0.56	300	-61.5	0	0	0	2.782227	2.780176	2.78291	2.782227	2.780176	2.777441	2.777441	2.778809	2.780176	2.780176	2.782227	2.778125	2.780859	2.780859	2.777441	2.776758
1639558219657	-922.808	-9.76	-438.224	0.35	-0.07	-0.42	294	-61.5	-1.5	0	0	2.780176	2.780859	2.780859	2.777441	2.78291	2.777441	2.777441	2.778809	2.782227	2.778809	2.777441	2.778809	2.780859	2.780859	2.777441	2.778809
1639558219667	-919.88	-3.416	-429.928	0.28	0	-0.42	294	-61.5	-1.5	0	0	2.78291	2.777441	2.780176	2.78291	2.78291	2.777441	2.778809	2.778809	2.782227	2.777441	2.777441	2.777441	2.780859	2.776758	2.778809	2.780176
1639558219677	-924.76	-0.488	-432.368	0.35	-0.14	-0.49	289.5	-66	0	0	0	2.782227	2.78291	2.780176	2.780859	2.780859	2.778809	2.780176	2.780859	2.777441	2.780859	2.777441	2.780859	2.782227	2.780859	2.780176	2.777441
1639558219686	-922.32	-4.88	-425.048	0.35	-0.07	-0.42	298.5	-67.5	-1.5	0	0	2.778809	2.780176	2.777441	2.778125	2.782227	2.777441	2.782227	2.778809	2.780176	2.776758	2.777441	2.782227	2.778809	2.780859	2.780859	2.782227
1639558219696	-924.76	-4.88	-428.464	0.35	0	-0.56	292.5	-66	-3	0	0	2.781543	2.780176	2.780176	2.780859	2.78291	2.780176	2.780176	2.780859	2.780859	2.777441	2.780859	2.778809	2.778809	2.780859	2.780859	2.778809
1639558219706	-923.784	-3.416	-427.488	0.35	-0.14	-0.49	286.5	-63	-3	0	0	2.778809	2.777441	2.778809	2.777441	2.774707	2.771289	2.780859	2.780176	2.780859	2.777441	2.778809	2.777441	2.769238	2.777441	2.778809	2.780859
1639558219716	-927.2	-14.152	-429.44	0.35	-0.07	-0.56	297	-66	-1.5	0	0	2.777441	2.782227	2.777441	2.780859	2.778809	2.780859	2.780859	2.780859	2.782227	2.777441	2.780859	2.780176	2.778125	2.778809	2.781543	2.777441
1639558219725	-920.368	-0.488	-427.976	0.35	-0.21	-0.49	292.5	-66	-3	0	0	2.782227	2.777441	2.780176	2.782227	2.782227	2.780859	2.782227	2.780176	2.778809	2.780859	2.777441	2.780176	2.778125	2.777441	2.778809	2.779492
1639558219735	-924.76	-2.44	-428.952	0.35	-0.14	-0.49	292.5	-60	-1.5	0	0	2.780176	2.780176	2.782227	2.780176	2.780859	2.778125	2.782227	2.78291	2.778125	2.778125	2.780176	2.780176	2.780859	2.780859	2.781543	2.778125
1639558219745	-923.296	1.464	-428.464	0.42	-0.14	-0.56	295.5	-63	1.5	0	0	2.778125	2.777441	2.778125	2.778125	2.782227	2.78291	2.782227	2.778809	2.778809	2.778809	2.777441	2.777441	2.780859	2.778125	2.778809	2.780859
1639558219755	-920.368	-2.44	-433.832	0.35	-0.14	-0.56	295.5	-64.5	4.5	0	0	2.782227	2.780176	2.78291	2.777441	2.782227	2.778809	2.777441	2.778125	2.780859	2.777441	2.777441	2.777441	2.777441	2.777441	2.779492	2.780859
1639558219764	-921.832	-6.344	-434.808	0.35	-0.21	-0.56	297	-61.5	0	0	0	2.782227	2.78291	2.780176	2.780176	2.778809	2.782227	2.777441	2.778125	2.780859	2.779492	2.778809	2.778809	2.778809	2.778809	2.780176	2.780859
1639558219774	-923.296	-3.416	-431.392	0.42	-0.14	-0.49	297	-66	-1.5	0	0	2.780176	2.778125	2.780176	2.780176	2.777441	2.782227	2.778809	2.778809	2.777441	2.778125	2.776758	2.778125	2.780176	2.778809	2.778809	2.778125
1639558219784	-921.344	-3.904	-424.56	0.42	-0.14	-0.49	297	-64.5	-1.5	0	0	2.78291	2.78291	2.780859	2.780176	2.778125	2.778809	2.780176	2.780859	2.778809	2.778125	2.778125	2.778809	2.780859	2.777441	2.777441	2.777441
1639558219794	-920.856	-3.904	-431.392	0.42	-0.07	-0.49	294	-61.5	-3	0	0	2.780859	2.777441	2.78291	2.778809	2.782227	2.780176	2.782227	2.78291	2.778809	2.777441	2.780859	2.778125	2.781543	2.780859	2.780859	2.777441
1639558219804	-922.32	-0.488	-431.392	0.42	-0.14	-0.49	286.5	-63	1.5	0	0	2.782227	2.778809	2.777441	2.780859	2.778125	2.778809	2.778809	2.778809	2.778809	2.780176	2.777441	2.779492	2.781543	2.777441	2.778809	2.777441
1639558219813	-919.392	0.488	-428.952	0.49	-0.14	-0.49	294	-64.5	0	0	0	2.780859	2.782227	2.780859	2.78291	2.777441	2.78291	2.778809	2.782227	2.778809	2.780859	2.780859	2.777441	2.780859	2.777441	2.778125	2.780176
1639558219823	-922.808	-4.392	-427.976	0.35	-0.07	-0.63	300	-70.5	3	0	0	2.780176	2.78291	2.778809	2.777441	2.776758	2.780176	2.777441	2.778125	2.778125	2.778809	2.778125	2.777441	2.778809	2.777441	2.777441	2.777441
1639558219833	-926.712	-7.808	-431.392	0.35	-0.14	-0.49	295.5	-73.5	4.5	0	0	2.783594	2.780859	2.780176	2.777441	2.780859	2.780859	2.78291	2.777441	2.778809	2.780176	2.781543	2.778809	2.775391	2.780859	2.777441	2.778125
1639558219843	-925.248	-11.712	-427.488	0.42	-0.14	-0.42	294	-64.5	1.5	0	0	2.782227	2.782227	2.780176	2.780859	2.777441	2.780176	2.78291	2.782227	2.777441	2.777441	2.778809	2.776074	2.778809	2.782227	2.780859	2.778125
1639558219852	-924.76	-5.368	-426.024	0.35	-0.07	-0.49	288	-67.5	7.5	0	0	2.780859	2.777441	2.778125	2.777441	2.78291	2.782227	2.783594	2.78291	2.777441	2.780859	2.777441	2.780176	2.777441	2.778809	2.778809	2.778125
1639558219862	-927.688	-4.88	-429.928	0.42	-0.07	-0.63	291	-70.5	12	0	0	2.780176	2.778125	2.778809	2.780859	2.777441	2.778809	2.778809	2.780176	2.777441	2.780859	2.778809	2.778809	2.780859	2.778809	2.780859	2.780859
1639558219872	-933.056	-2.44	-430.904	0.42	-0.14	-0.35	300	-64.5	7.5	0	0	2.780859	2.780176	2.777441	2.780859	2.780859	2.778125	2.782227	2.777441	2.778809	2.780859	2.780859	2.778809	2.778125	2.780859	2.780176	2.778125
1639558219882	-918.416	-3.416	-428.952	0.28	-0.07	-0.42	297	-63	-1.5	0	0	2.780859	2.777441	2.778809	2.777441	2.78291	2.777441	2.776758	2.777441	2.777441	2.780859	2.777441	2.777441	2.782227	2.778125	2.778125	2.778125
1639558219891	-925.248	-3.904	-429.928	0.42	-0.14	-0.42	292.5	-67.5	-7.5	0	0	2.780176	2.780859	2.780859	2.782227	2.780176	2.777441	2.777441	2.780176	2.780176	2.777441	2.777441	2.778125	2.778809	2.780859	2.778809	2.778809
1639558219901	-923.784	-3.416	-430.416	0.42	-0.14	-0.56	292.5	-69	-1.5	0	0	2.780176	2.782227	2.780176	2.780859	2.782227	2.780859	2.780176	2.780176	2.777441	2.780859	2.777441	2.778125	2.780859	2.778125	2.780859	2.780859
1639558219911	-920.368	-7.808	-428.952	0.42	-0.07	-0.49	294	-69	6	0	0	2.778809	2.776758	2.780176	2.782227	2.780176	2.782227	2.778125	2.780176	2.778125	2.780859	2.776758	2.778809	2.780859	2.777441	2.778809	2.780176
1639558219921	-927.688	0.488	-430.416	0.21	-0.14	-0.49	294	-64.5	3	0	0	2.78291	2.778809	2.780176	2.780176	2.778809	2.780859	2.778809	2.777441	2.780176	2.777441	2.776758	2.780859	2.780859	2.780859	2.780176	2.778809
1639558219930	-924.272	-0.488	-425.048	0.35	-0.07	-0.42	291	-58.5	0	0	0	2.782227	2.780859	2.78291	2.780176	2.780176	2.780176	2.777441	2.782227	2.776758	2.778125	2.778809	2.780859	2.780176	2.778125	2.778125	2.780859
1639558219940	-922.808	-7.32	-433.344	0.42	-0.14	-0.49	291	-61.5	4.5	0	0	2.780859	2.777441	2.778809	2.778809	2.782227	2.777441	2.778809	2.780859	2.780859	2.780176	2.778809	2.780859	2.778809	2.780859	2.778125	2.780859
1639558219950	-915	1.952	-430.904	0.42	-0.07	-0.56	294	-66	0	0	0	2.780176	2.777441	2.78291	2.777441	2.782227	2.782227	2.780859	2.777441	2.777441	2.780859	2.777441	2.777441	2.777441	2.777441	2.780859	2.778125
1639558219960	-924.272	-7.32	-438.712	0.35	-0.07	-0.49	297	-61.5	-3	0	0	2.780859	2.780176	2.777441	2.777441	2.780859	2.782227	2.778809	2.782227	2.778809	2.778125	2.777441	2.777441	2.780176	2.778809	2.780176	2.778809
1639558219970	-916.952	-0.488	-434.32	0.42	-0.07	-0.42	295.5	-58.5	-1.5	0	0	2.783594	2.780176	2.780859	2.782227	2.778809	2.780176	2.778125	2.777441	2.778809	2.777441	2.777441	2.780176	2.776758	2.778809	2.778125	2.777441
1639558219979	-926.712	-8.296	-432.368	0.35	-0.07	-0.49	297	-60	-4.5	0	0	2.780176	2.777441	2.780859	2.780176	2.778809	2.780859	2.780176	2.780859	2.777441	2.777441	2.777441	2.780176	2.781543	2.780859	2.780859	2.778809
1639558219989	-925.736	-5.856	-430.416	0.35	-0.14	-0.49	295.5	-61.5	-3	0	0	2.78291	2.780176	2.780859	2.783594	2.778809	2.78291	2.777441	2.780859	2.782227	2.777441	2.778809	2.778125	2.777441	2.780176	2.778809	2.778125
1639558219999	-927.2	-8.296	-431.88	0.42	-0.14	-0.42	292.5	-60	-3	0	0	2.780176	2.780176	2.782227	2.778809	2.780176	2.780176	2.778125	2.777441	2.780859	2.777441	2.780859	2.778125	2.777441	2.776758	2.778125	2.778125
1639558220009	-928.176	-4.88	-428.952	0.28	0	-0.49	294	-61.5	0	0	0	2.778809	2.780176	2.778809	2.782227	2.780176	2.780176	2.777441	2.780859	2.777441	2.780859	2.777441	2.778125	2.778809	2.778125	2.781543	2.777441
1639558220018	-921.832	-2.44	-426.512	0.42	-0.07	-0.49	289.5	-61.5	4.5	0	0	2.777441	2.780859	2.780859	2.778809	2.782227	2.78291	2.780176	2.778809	2.777441	2.777441	2.776758	2.777441	2.778125	2.777441	2.778809	2.778125
1639558220028	-923.784	-1.952	-427.976	0.35	0	-0.42	288	-60	-1.5	0	0	2.78291	2.78291	2.783594	2.777441	2.778125	2.780176	2.778125	2.776758	2.782227	2.782227	2.771289	2.769922	2.777441	2.778809	2.775391	2.778809
1639558220038	-918.416	-2.44	-423.584	0.28	-0.07	-0.49	294	-63	-3	0	0	2.782227	2.780859	2.78291	2.778809	2.780859	2.778809	2.780176	2.778809	2.780859	2.776758	2.781543	2.777441	2.780859	2.777441	2.777441	2.780176
1639558220048	-919.392	-2.928	-419.68	0.28	-0.07	-0.49	298.5	-63	-3	0	0	2.780176	2.777441	2.780859	2.78291	2.780176	2.777441	2.778125	2.78291	2.777441	2.778809	2.780859	2.780859	2.778125	2.777441	2.780859	2.777441
1639558220057	-919.392	-6.344	-426.512	0.42	-0.07	-0.49	298.5	-63	-3	0	0	2.778125	2.778125	2.780176	2.780859	2.782227	2.78291	2.782227	2.780176	2.778125	2.777441	2.780176	2.777441	2.777441	2.780859	2.777441	2.780176
1639558220067	-918.904	-8.784	-423.584	0.49	-0.14	-0.42	294	-63	-4.5	0	0	2.78291	2.782227	2.777441	2.777441	2.780176	2.780859	2.780859	2.780859	2.777441	2.780859	2.778125	2.777441	2.780859	2.780859	2.778125	2.780176
1639558220077	-922.32	-4.88	-430.416	0.42	-0.14	-0.42	289.5	-60	-1.5	0	0	2.778809	2.780176	2.780859	2.777441	2.780176	2.782227	2.78291	2.778809	2.778809	2.776074	2.778809	2.778125	2.777441	2.780176	2.777441	2.778809
1639558220087	-918.904	-6.832	-431.88	0.35	-0.07	-0.49	295.5	-61.5	-1.5	0	0	2.782227	2.783594	2.778125	2.778809	2.778125	2.777441	2.777441	2.782227	2.780859	2.778809	2.777441	2.777441	2.779492	2.778809	2.777441	2.781543
1639558220096	-921.832	-2.44	-429.44	0.49	0	-0.56	295.5	-63	-9	0	0	2.780859	2.780859	2.780859	2.78291	2.778125	2.780176	2.78291	2.781543	2.780859	2.778125	2.778125	2.781543	2.777441	2.777441	2.778809	2.777441
1639558220106	-931.592	-8.296	-438.224	0.42	-0.07	-0.56	292.5	-63	-4.5	0	0	2.780859	2.777441	2.777441	2.782227	2.780176	2.780176	2.778809	2.778809	2.780176	2.778125	2.782227	2.778125	2.778125	2.777441	2.778809	2.780176
1639558220116	-923.296	-12.2	-427	0.28	-0.07	-0.49	295.5	-64.5	-1.5	0	0	2.778809	2.780176	2.782227	2.783594	2.782227	2.778125	2.777441	2.780859	2.780859	2.780859	2.778125	2.780859	2.778809	2.780859	2.777441	2.782227
1639558220126	-921.344	-10.248	-430.416	0.42	-0.21	-0.42	289.5	-63	-1.5	0	0	2.782227	2.778809	2.778809	2.778809	2.778125	2.777441	2.782227	2.777441	2.777441	2.777441	2.780176	2.780859	2.780176	2.778125	2.778125	2.780859
1639558220136	-923.296	-3.904	-431.88	0.42	-0.14	-0.42	288	-63	-1.5	0	0	2.782227	2.777441	2.78291	2.780859	2.780176	2.777441	2.780176	2.778809	2.780176	2.780859	2.780859	2.780859	2.780859	2.778125	2.778809	2.778809
1639558220145	-925.248	0	-427	0.42	-0.14	-0.49	294	-69	-1.5	0	0	2.780176	2.780176	2.780176	2.78291	2.777441	2.782227	2.778125	2.782227	2.778809	2.778809	2.777441	2.778125	2.777441	2.778809	2.780859	2.778125
1639558220155	-922.808	-0.488	-429.928	0.28	-0.07	-0.49	298.5	-61.5	1.5	0	0	2.777441	2.780176	2.777441	2.776758	2.778125	2.78291	2.780859	2.78291	2.776758	2.778809	2.778125	2.777441	2.780859	2.780859	2.780176	2.780859
1639558220165	-915.976	-0.976	-425.048	0.35	-0.07	-0.35	297	-57	1.5	0	0	2.778125	2.780176	2.777441	2.782227	2.777441	2.778809	2.782227	2.78291	2.780176	2.778809	2.778125	2.780859	2.780176	2.778125	2.780176	2.778125
1639558220175	-929.64	-3.904	-426.024	0.28	-0.07	-0.56	294	-61.5	0	0	0	2.780176	2.778125	2.780859	2.778809	2.778809	2.780859	2.777441	2.778809	2.777441	2.780859	2.780859	2.777441	2.779492	2.777441	2.780176	2.777441
1639558220184	-930.128	-5.856	-428.952	0.28	-0.14	-0.49	295.5	-61.5	3	0	0	2.782227	2.780176	2.78291	2.778809	2.778809	2.780176	2.78291	2.78291	2.780859	2.780176	2.777441	2.777441	2.777441	2.777441	2.778809	2.778125
1639558220194	-926.712	-10.248	-428.952	0.35	-0.07	-0.42	285	-63	3	0	0	2.78291	2.780176	2.778809	2.780859	2.778125	2.780176	2.780176	2.777441	2.778125	2.780859	2.778809	2.780176	2.778125	2.777441	2.777441	2.780859
1639558220204	-921.344	-6.344	-425.536	0.35	-0.07	-0.49	286.5	-63	-1.5	0	0	2.782227	2.778809	2.782227	2.78291	2.778809	2.777441	2.78291	2.777441	2.777441	2.780859	2.778809	2.777441	2.778809	2.780859	2.778809	2.780859
1639558220214	-925.736	-4.88	-427.976	0.35	-0.14	-0.49	294	-58.5	4.5	0	0	2.778809	2.780859	2.778125	2.778125	2.780859	2.780176	2.778125	2.778809	2.777441	2.778809	2.778125	2.778125	2.778809	2.777441	2.777441	2.779492
1639558220223	-920.368	-4.88	-428.952	0.42	-0.07	-0.42	288	-61.5	7.5	0	0	2.78291	2.778809	2.778809	2.780176	2.777441	2.780859	2.780859	2.780176	2.780859	2.777441	2.778809	2.780859	2.780859	2.778125	2.777441	2.780176
1639558220233	-916.464	-9.272	-430.904	0.35	-0.14	-0.56	286.5	-64.5	7.5	0	0	2.78291	2.780176	2.778809	2.780859	2.783594	2.78291	2.778809	2.780859	2.777441	2.780859	2.776758	2.777441	2.777441	2.778125	2.777441	2.780859
1639558220243	-925.248	-11.224	-428.464	0.42	-0.14	-0.42	292.5	-63	3	0	0	2.782227	2.778125	2.780176	2.780859	2.78291	2.778809	2.777441	2.780859	2.778809	2.780859	2.778809	2.777441	2.777441	2.778809	2.780859	2.776758
1639558220253	-921.344	-5.856	-425.048	0.42	-0.07	-0.42	295.5	-64.5	0	0	0	2.776758	2.78291	2.782227	2.776758	2.780176	2.783594	2.777441	2.778809	2.778809	2.778125	2.777441	2.780176	2.778809	2.777441	2.778125	2.781543
1639558220262	-921.344	-3.416	-436.272	0.35	-0.07	-0.7	291	-58.5	3	0	0	2.777441	2.782227	2.776074	2.780176	2.777441	2.782227	2.780859	2.778125	2.778809	2.780859	2.778809	2.778125	2.777441	2.777441	2.777441	2.777441
1639558220272	-922.32	-8.784	-434.32	0.42	-0.07	-0.42	292.5	-58.5	-1.5	0	0	2.780176	2.780176	2.778809	2.782227	2.780176	2.780176	2.778809	2.777441	2.782227	2.778809	2.780859	2.778125	2.777441	2.777441	2.778809	2.777441
1639558220282	-917.928	-2.44	-425.536	0.28	-0.14	-0.49	292.5	-63	0	0	0	2.780176	2.777441	2.780859	2.780176	2.780859	2.780176	2.780176	2.780176	2.778125	2.778809	2.780859	2.778809	2.777441	2.778809	2.777441	2.780859
1639558220292	-919.392	-3.904	-431.392	0.42	-0.14	-0.49	289.5	-60	4.5	0	0	2.780859	2.780176	2.778809	2.780859	2.780859	2.78291	2.782227	2.780176	2.776758	2.780859	2.778125	2.776758	2.780859	2.780859	2.780176	2.778125
1639558220302	-921.344	2.44	-430.904	0.42	-0.07	-0.42	292.5	-60	1.5	0	0	2.780859	2.780176	2.778809	2.780176	2.778125	2.777441	2.782227	2.777441	2.780176	2.778125	2.777441	2.778809	2.778125	2.778125	2.780859	2.778809
1639558220311	-925.736	-2.928	-421.144	0.42	-0.07	-0.56	294	-63	-1.5	0	0	2.777441	2.78291	2.78291	2.778809	2.780176	2.777441	2.777441	2.780859	2.777441	2.780176	2.778809	2.778809	2.777441	2.780859	2.776758	2.778809
1639558220321	-927.2	0.488	-429.44	0.28	-0.21	-0.56	292.5	-60	-4.5	0	0	2.778809	2.782227	2.778809	2.777441	2.780176	2.780859	2.782227	2.780859	2.777441	2.777441	2.780859	2.778809	2.777441	2.778809	2.778125	2.778809
1639558220331	-929.64	-10.248	-431.88	0.42	0	-0.56	289.5	-63	-3	0	0	2.780859	2.780176	2.778125	2.777441	2.780859	2.777441	2.778809	2.778809	2.777441	2.776758	2.778125	2.778125	2.778809	2.780859	2.778809	2.778125
1639558220341	-925.248	-6.344	-427	0.42	-0.07	-0.42	289.5	-67.5	1.5	0	0	2.778125	2.780176	2.782227	2.780176	2.777441	2.780859	2.776758	2.780176	2.778809	2.777441	2.777441	2.782227	2.778125	2.778125	2.778809	2.781543
1639558220350	-920.856	-3.904	-427	0.42	-0.14	-0.56	291	-63	0	0	0	2.770605	2.780176	2.780176	2.778125	2.769922	2.778809	2.780859	2.780176	2.77334	2.776758	2.777441	2.777441	2.775391	2.776074	2.777441	2.780176
1639558220360	-920.368	-6.344	-431.88	0.42	-0.14	-0.49	292.5	-61.5	3	0	0	2.780176	2.780176	2.777441	2.780176	2.782227	2.780859	2.78291	2.78291	2.778809	2.778809	2.778809	2.778125	2.776758	2.782227	2.777441	2.778125
1639558220370	-916.952	-3.904	-430.416	0.35	-0.14	-0.49	294	-67.5	1.5	0	0	2.78291	2.780176	2.782227	2.782227	2.780176	2.780859	2.778809	2.777441	2.780859	2.778809	2.780859	2.780176	2.778125	2.778125	2.780176	2.782227
1639558220380	-922.32	-5.368	-431.392	0.28	-0.07	-0.42	297	-64.5	0	0	0	2.780859	2.783594	2.777441	2.778809	2.780859	2.780176	2.780176	2.780176	2.778125	2.781543	2.780859	2.778125	2.776758	2.778125	2.777441	2.780859
1639558220389	-913.536	-6.344	-426.512	0.35	-0.07	-0.56	298.5	-60	1.5	0	0	2.777441	2.777441	2.777441	2.782227	2.780176	2.777441	2.782227	2.780859	2.777441	2.780176	2.777441	2.778125	2.780176	2.778809	2.780176	2.777441
1639558220399	-915	-7.32	-430.416	0.35	-0.07	-0.49	294	-64.5	-1.5	0	0	2.780176	2.780176	2.778809	2.778809	2.780176	2.780176	2.782227	2.777441	2.778809	2.776758	2.780859	2.778809	2.780176	2.781543	2.778125	2.778125
1639558220409	-933.544	6.344	-428.464	0.35	-0.14	-0.42	291	-64.5	-1.5	0	0	2.780859	2.782227	2.780176	2.780176	2.782227	2.782227	2.780176	2.778125	2.780859	2.780859	2.780176	2.780859	2.781543	2.778809	2.778125	2.778809
1639558220419	-918.416	-2.44	-435.784	0.49	-0.14	-0.42	292.5	-63	-1.5	0	0	2.778125	2.778125	2.777441	2.782227	2.777441	2.780176	2.780176	2.780176	2.780859	2.778125	2.777441	2.780859	2.778809	2.780176	2.776758	2.780176
1639558220429	-916.952	-4.392	-424.56	0.42	-0.14	-0.49	288	-60	-1.5	0	0	2.780176	2.78291	2.780176	2.778809	2.780859	2.780176	2.782227	2.783594	2.778809	2.778809	2.777441	2.782227	2.780859	2.776758	2.780859	2.777441
1639558220438	-909.144	-9.76	-429.44	0.28	-0.14	-0.49	294	-61.5	-1.5	0	0	2.780176	2.780176	2.777441	2.777441	2.780176	2.78291	2.780176	2.777441	2.777441	2.776758	2.782227	2.777441	2.777441	2.778125	2.780176	2.777441
1639558220448	-917.44	-11.712	-434.32	0.49	0	-0.42	294	-61.5	-1.5	0	0	2.780176	2.780859	2.777441	2.780176	2.78291	2.777441	2.777441	2.780176	2.780859	2.780859	2.778809	2.778809	2.778125	2.777441	2.780859	2.778809
1639558220458	-903.288	-7.808	-431.88	0.35	0	-0.49	294	-67.5	-1.5	0	0	2.782227	2.780859	2.78291	2.780176	2.780176	2.782227	2.780176	2.780176	2.780176	2.780859	2.780859	2.778125	2.778125	2.778125	2.778125	2.776758
1639558220468	-917.44	-4.88	-427.976	0.28	-0.28	-0.42	292.5	-67.5	-1.5	0	0	2.777441	2.778809	2.779492	2.78291	2.777441	2.778809	2.780176	2.78291	2.778809	2.778809	2.778125	2.777441	2.778809	2.777441	2.778125	2.777441
1639558220477	-928.664	-7.808	-425.048	0.42	-0.07	-0.56	295.5	-67.5	-1.5	0	0	2.778125	2.780176	2.780859	2.780176	2.777441	2.782227	2.780176	2.782227	2.777441	2.778809	2.778125	2.777441	2.778125	2.778125	2.777441	2.778809
1639558220487	-916.952	-7.808	-427.976	0.28	-0.21	-0.35	292.5	-66	-1.5	0	0	2.78291	2.777441	2.780176	2.778125	2.778809	2.778809	2.780176	2.778809	2.778125	2.778125	2.778125	2.780859	2.778809	2.780859	2.778125	2.778809
1639558220497	-913.536	-3.904	-420.656	0.35	-0.14	-0.42	291	-63	1.5	0	0	2.780176	2.777441	2.782227	2.78291	2.778809	2.782227	2.777441	2.780176	2.778125	2.778809	2.781543	2.778125	2.778125	2.776074	2.777441	2.778125
1639558220507	-920.368	-2.928	-430.416	0.28	0	-0.49	286.5	-69	4.5	0	0	2.780176	2.780176	2.782227	2.780176	2.78291	2.780859	2.777441	2.780859	2.776758	2.778809	2.781543	2.778809	2.780859	2.777441	2.781543	2.778125
1639558220516	-929.152	4.392	-434.32	0.42	-0.07	-0.49	285	-73.5	1.5	0	0	2.777441	2.777441	2.778809	2.780859	2.780859	2.778125	2.782227	2.780859	2.782227	2.780859	2.780176	2.778809	2.778125	2.781543	2.777441	2.780859
1639558220526	-925.248	-6.344	-423.584	0.42	-0.07	-0.42	295.5	-73.5	1.5	0	0	2.782227	2.778809	2.777441	2.782227	2.778809	2.780859	2.778125	2.776758	2.780859	2.780859	2.777441	2.776758	2.778809	2.781543	2.780859	2.778809
1639558220536	-927.688	-7.32	-423.584	0.42	-0.14	-0.56	297	-67.5	6	0	0	2.777441	2.780176	2.778125	2.780859	2.778809	2.777441	2.782227	2.780176	2.777441	2.779492	2.777441	2.777441	2.779492	2.777441	2.781543	2.780859
1639558220546	-913.536	-5.856	-418.216	0.28	-0.14	-0.42	294	-64.5	1.5	0	0	2.782227	2.780859	2.777441	2.780176	2.780176	2.782227	2.78291	2.78291	2.777441	2.778809	2.776758	2.780859	2.780859	2.780176	2.777441	2.780859
1639558220555	-922.808	-8.296	-433.344	0.28	-0.21	-0.28	295.5	-64.5	1.5	0	0	2.778809	2.782227	2.780859	2.780176	2.78291	2.778809	2.780176	2.778125	2.778125	2.780859	2.778125	2.777441	2.781543	2.777441	2.780859	2.778125
1639558220565	-919.392	-1.952	-414.8	0.21	-0.14	-0.42	289.5	-64.5	7.5	0	0	2.782227	2.780859	2.778125	2.78291	2.780176	2.778809	2.781543	2.777441	2.778125	2.778125	2.778809	2.780859	2.778125	2.780859	2.780859	2.777441
1639558220575	-924.76	6.832	-436.76	0.49	0	-0.28	292.5	-61.5	3	0	0	2.780176	2.778809	2.780176	2.777441	2.778809	2.780176	2.782227	2.777441	2.780176	2.778809	2.780859	2.777441	2.777441	2.778809	2.778125	2.778809
1639558220585	-918.416	-12.688	-424.56	0.21	-0.14	-0.63	300	-61.5	0	0	0	2.780176	2.780859	2.777441	2.780859	2.777441	2.782227	2.778125	2.780859	2.778125	2.777441	2.778809	2.778809	2.777441	2.777441	2.776758	2.778125
1639558220595	-922.808	4.392	-444.08	0.56	0	-0.42	298.5	-64.5	0	0	0	2.778125	2.780176	2.778809	2.780176	2.780176	2.780859	2.778809	2.777441	2.780859	2.778809	2.777441	2.780859	2.777441	2.777441	2.780176	2.776758
1639558220604	-930.128	-9.272	-418.704	0.35	-0.07	-0.63	297	-64.5	0	0	0	2.780176	2.778809	2.780859	2.777441	2.780176	2.778809	2.778809	2.778125	2.780176	2.780176	2.778809	2.777441	2.780859	2.776758	2.778125	2.777441
1639558220614	-931.592	-10.736	-425.048	0.28	-0.07	-0.63	295.5	-60	3	0	0	2.783594	2.778809	2.777441	2.78291	2.777441	2.780859	2.780859	2.778125	2.778809	2.780859	2.780859	2.777441	2.780176	2.778809	2.778809	2.781543
1639558220624	-923.296	0	-432.856	0.56	-0.07	-0.42	292.5	-60	0	0	0	2.780176	2.777441	2.780176	2.78291	2.780859	2.778125	2.778809	2.78291	2.778809	2.778809	2.778809	2.778809	2.780176	2.780176	2.777441	2.778125
1639558220634	-920.368	-15.616	-428.464	0.28	-0.21	-0.49	292.5	-66	0	0	0	2.780859	2.780176	2.780176	2.777441	2.780859	2.777441	2.780176	2.777441	2.780859	2.780859	2.777441	2.780176	2.778809	2.780859	2.778809	2.777441
1639558220643	-917.928	-3.904	-421.144	0.49	-0.21	-0.49	295.5	-66	1.5	0	0	2.780176	2.78291	2.782227	2.782227	2.777441	2.780859	2.780176	2.782227	2.780859	2.777441	2.778125	2.778809	2.777441	2.777441	2.780176	2.777441
1639558220653	-918.904	-9.76	-429.928	0.49	-0.14	-0.49	295.5	-66	0	0	0	2.777441	2.783594	2.780859	2.780859	2.778809	2.782227	2.780859	2.780176	2.777441	2.780859	2.780859	2.778809	2.777441	2.776758	2.777441	2.778125
1639558220663	-922.32	-1.952	-429.44	0.49	-0.14	-0.49	300	-64.5	0	0	0	2.780859	2.780176	2.780176	2.78291	2.777441	2.78291	2.778809	2.780176	2.781543	2.777441	2.777441	2.776758	2.777441	2.778125	2.780859	2.780859
1639558220673	-927.2	-17.568	-432.856	0.42	-0.14	-0.49	297	-64.5	-1.5	0	0	2.777441	2.780176	2.782227	2.780859	2.780176	2.778809	2.78291	2.780176	2.780859	2.778125	2.777441	2.777441	2.777441	2.778809	2.777441	2.777441
1639558220682	-914.024	-4.88	-428.464	0.35	-0.07	-0.49	294	-67.5	4.5	0	0	2.780176	2.774707	2.78291	2.780859	2.769238	2.776758	2.782227	2.778809	2.772656	2.780176	2.780859	2.780859	2.774707	2.778809	2.778125	2.780176
1639558220692	-922.808	8.296	-428.464	0.28	-0.07	-0.42	297	-67.5	6	0	0	2.782227	2.780859	2.782227	2.780176	2.780859	2.780176	2.78291	2.780859	2.780859	2.777441	2.778809	2.776758	2.780859	2.778809	2.776758	2.778125
1639558220702	-927.2	-1.952	-429.928	0.56	0	-0.42	297	-66	3	0	0	2.777441	2.780859	2.777441	2.782227	2.780176	2.777441	2.777441	2.782227	2.778809	2.777441	2.780859	2.778809	2.777441	2.780859	2.776758	2.778125
1639558220712	-925.736	-3.904	-426.512	0.42	-0.07	-0.49	295.5	-64.5	1.5	0	0	2.782227	2.780176	2.778125	2.777441	2.777441	2.780859	2.777441	2.782227	2.776758	2.780859	2.780859	2.777441	2.780176	2.776758	2.777441	2.778809
1639558220721	-923.784	-5.368	-427.976	0.21	-0.14	-0.42	292.5	-63	1.5	0	0	2.782227	2.778809	2.778809	2.777441	2.778809	2.778809	2.778125	2.780859	2.776758	2.778125	2.780859	2.777441	2.777441	2.782227	2.778809	2.778809
1639558220731	-924.76	3.416	-427.976	0.28	0	-0.42	292.5	-61.5	0	0	0	2.782227	2.781543	2.780859	2.780859	2.780859	2.777441	2.780176	2.777441	2.778125	2.780859	2.778125	2.780859	2.780176	2.777441	2.780176	2.780176
1639558220741	-922.808	4.88	-434.32	0.42	0	-0.49	292.5	-58.5	3	0	0	2.778125	2.782227	2.78291	2.777441	2.777441	2.782227	2.780859	2.782227	2.780859	2.777441	2.777441	2.778809	2.780859	2.777441	2.777441	2.778125
1639558220751	-927.688	-4.88	-437.248	0.28	0	-0.63	292.5	-60	0	0	0	2.780176	2.780176	2.783594	2.780176	2.778809	2.782227	2.778125	2.78291	2.778809	2.778809	2.777441	2.778125	2.777441	2.778809	2.778125	2.780859
1639558220761	-922.808	-6.832	-423.096	0.14	0	-0.49	294	-61.5	0	0	0	2.780176	2.780176	2.778809	2.780176	2.782227	2.781543	2.780859	2.780859	2.782227	2.778809	2.778809	2.780859	2.780176	2.778125	2.777441	2.778125
1639558220770	-924.76	5.368	-434.808	0.42	0.07	-0.49	297	-60	1.5	0	0	2.78291	2.777441	2.780176	2.777441	2.776758	2.780176	2.778809	2.780859	2.780859	2.777441	2.778809	2.780176	2.778125	2.777441	2.778809	2.777441
1639558220780	-927.688	-1.464	-439.2	0.28	0	-0.56	292.5	-61.5	0	0	0	2.778809	2.78291	2.777441	2.778125	2.780176	2.777441	2.781543	2.777441	2.778809	2.778125	2.777441	2.778809	2.782227	2.778125	2.777441	2.777441
1639558220790	-923.784	-3.416	-424.56	0.35	-0.07	-0.49	289.5	-64.5	6	0	0	2.782227	2.780176	2.780176	2.777441	2.778809	2.778125	2.777441	2.778809	2.780859	2.778809	2.780859	2.780859	2.780859	2.778809	2.780859	2.780859
1639558220800	-918.416	-0.976	-434.808	0.42	-0.14	-0.56	286.5	-67.5	10.5	0	0	2.777441	2.782227	2.778809	2.782227	2.777441	2.777441	2.782227	2.783594	2.778125	2.778125	2.777441	2.780859	2.777441	2.780859	2.778809	2.778125
1639558220809	-922.808	-6.344	-432.368	0.49	-0.14	-0.42	291	-66	3	0	0	2.78291	2.781543	2.780859	2.777441	2.782227	2.780176	2.780859	2.780859	2.777441	2.778125	2.778125	2.782227	2.777441	2.782227	2.780176	2.777441
1639558220819	-925.248	-8.784	-426.512	0.21	-0.14	-0.56	292.5	-63	0	0	0	2.782227	2.782227	2.778125	2.780176	2.782227	2.780176	2.782227	2.777441	2.778809	2.777441	2.777441	2.778125	2.780859	2.778809	2.778125	2.782227
1639558220829	-920.368	-9.76	-431.392	0.28	-0.07	-0.63	292.5	-63	0	0	0	2.781543	2.776758	2.783594	2.780176	2.780176	2.777441	2.777441	2.778809	2.777441	2.780176	2.777441	2.778125	2.777441	2.778125	2.777441	2.778809
1639558220839	-922.808	-1.952	-426.512	0.49	0	-0.49	297	-64.5	-1.5	0	0	2.777441	2.778809	2.782227	2.780176	2.780176	2.780859	2.780859	2.778809	2.781543	2.780859	2.780176	2.780859	2.777441	2.778809	2.777441	2.778125
1639558220848	-926.224	-4.392	-431.392	0.35	-0.07	-0.56	297	-66	-1.5	0	0	2.780859	2.778125	2.782227	2.777441	2.782227	2.780176	2.782227	2.780176	2.779492	2.781543	2.780176	2.776758	2.780859	2.780859	2.778125	2.776758
1639558220858	-921.832	-11.712	-423.096	0.35	-0.14	-0.49	295.5	-61.5	-1.5	0	0	2.777441	2.778809	2.780859	2.78291	2.778809	2.777441	2.778125	2.777441	2.778809	2.780859	2.780859	2.777441	2.780859	2.780859	2.777441	2.780859
1639558220868	-921.344	-0.488	-427.976	0.42	-0.14	-0.49	294	-63	-1.5	0	0	2.778809	2.780176	2.782227	2.780176	2.777441	2.780859	2.780176	2.78291	2.777441	2.780176	2.776758	2.778809	2.778125	2.780859	2.780176	2.778125
1639558220878	-928.176	0.488	-429.44	0.42	-0.07	-0.42	291	-66	3	0	0	2.780176	2.780176	2.780176	2.782227	2.782227	2.780176	2.778809	2.780176	2.777441	2.781543	2.778125	2.777441	2.780176	2.780859	2.778809	2.780859
1639558220887	-920.856	-0.976	-437.248	0.35	-0.14	-0.49	286.5	-61.5	1.5	0	0	2.780859	2.780176	2.778809	2.778809	2.778809	2.780176	2.780176	2.78291	2.782227	2.778125	2.777441	2.778125	2.777441	2.780859	2.778125	2.777441
1639558220897	-919.88	-0.976	-432.856	0.42	-0.14	-0.56	291	-63	1.5	0	0	2.777441	2.782227	2.780176	2.778125	2.78291	2.778809	2.78291	2.780176	2.776758	2.780859	2.777441	2.778125	2.782227	2.780859	2.777441	2.780176
1639558220907	-927.688	-6.344	-432.368	0.42	-0.07	-0.49	294	-64.5	6	0	0	2.777441	2.782227	2.778809	2.780176	2.777441	2.78291	2.778125	2.777441	2.780859	2.778125	2.778809	2.776758	2.781543	2.778125	2.779492	2.780176
1639558220917	-923.784	-9.76	-430.416	0.28	-0.07	-0.42	294	-69	7.5	0	0	2.780859	2.777441	2.78291	2.777441	2.780176	2.78291	2.780176	2.78291	2.778809	2.778125	2.777441	2.778125	2.778125	2.778809	2.777441	2.780859
1639558220927	-919.392	-5.368	-430.416	0.42	0	-0.56	297	-64.5	7.5	0	0	2.780176	2.778125	2.778125	2.782227	2.780176	2.78291	2.78291	2.78291	2.777441	2.780176	2.780859	2.777441	2.782227	2.777441	2.778809	2.780176
1639558220936	-924.272	-7.32	-426.512	0.35	-0.07	-0.42	295.5	-58.5	1.5	0	0	2.781543	2.780176	2.780176	2.78291	2.777441	2.778125	2.778809	2.777441	2.780859	2.776758	2.777441	2.778809	2.777441	2.782227	2.780859	2.778125
1639558220946	-931.592	-4.392	-429.928	0.28	-0.07	-0.28	292.5	-63	-1.5	0	0	2.780176	2.778809	2.781543	2.778125	2.778809	2.780859	2.780859	2.780176	2.778809	2.780859	2.777441	2.777441	2.778125	2.780176	2.776758	2.780859
1639558220956	-921.344	-4.392	-426.024	0.28	-0.14	-0.49	297	-63	-1.5	0	0	2.777441	2.778125	2.781543	2.777441	2.782227	2.778809	2.780176	2.780176	2.778125	2.780859	2.780176	2.777441	2.778809	2.776758	2.778125	2.780176
1639558220966	-920.856	0	-425.048	0.28	-0.07	-0.35	298.5	-63	3	0	0	2.780859	2.777441	2.778125	2.780176	2.777441	2.780176	2.778125	2.782227	2.776758	2.780176	2.778125	2.777441	2.780859	2.777441	2.777441	2.780859
1639558220975	-923.296	2.44	-434.808	0.35	-0.07	-0.42	295.5	-63	1.5	0	0	2.778809	2.780176	2.780859	2.778809	2.78291	2.780859	2.778125	2.777441	2.778809	2.777441	2.780859	2.777441	2.778809	2.778125	2.780176	2.780176
1639558220985	-923.784	-4.88	-426.512	0.28	0.07	-0.49	297	-64.5	4.5	0	0	2.78291	2.780859	2.78291	2.778125	2.778125	2.782227	2.780859	2.777441	2.777441	2.777441	2.780859	2.780859	2.778125	2.780859	2.778125	2.780859
1639558220995	-928.664	-7.32	-430.904	0.28	0.07	-0.49	291	-66	7.5	0	0	2.778125	2.778809	2.777441	2.778125	2.780176	2.780859	2.78291	2.780859	2.780859	2.780859	2.780176	2.777441	2.780859	2.778809	2.778809	2.779492
1639558221005	-927.2	-7.808	-427	0.35	0.14	-0.42	289.5	-60	3	0	0	2.780176	2.772656	2.776758	2.774707	2.778125	2.780859	2.780176	2.778125	2.776758	2.776758	2.778125	2.770605	2.780859	2.777441	2.778125	2.780859
1639558221014	-927.688	-3.416	-426.512	0.35	0.07	-0.42	294	-60	0	0	0	2.778809	2.777441	2.782227	2.778809	2.777441	2.780859	2.778809	2.781543	2.778809	2.778125	2.780859	2.777441	2.778809	2.778125	2.778125	2.777441
1639558221024	-923.296	-8.296	-432.368	0.28	0.14	-0.35	295.5	-63	0	0	0	2.778809	2.778125	2.780176	2.780859	2.780859	2.780176	2.780859	2.782227	2.780859	2.778125	2.777441	2.780176	2.782227	2.778809	2.780859	2.777441
1639558221034	-912.56	-7.808	-439.688	0.28	0.21	-0.21	298.5	-67.5	-1.5	0	0	2.780176	2.778809	2.780176	2.776758	2.780859	2.778809	2.78291	2.78291	2.778809	2.777441	2.780859	2.778809	2.777441	2.780859	2.780859	2.777441
1639558221044	-895.48	-22.936	-441.64	0.21	0.28	-0.14	295.5	-73.5	-1.5	0	0	2.778809	2.782227	2.778809	2.780176	2.777441	2.780176	2.780859	2.780176	2.778809	2.777441	2.780176	2.780859	2.780859	2.778809	2.776074	2.778125
1639558221054	-888.648	-17.08	-427	0.21	0.21	-0.42	286.5	-61.5	6	0	0	2.780859	2.78291	2.777441	2.780859	2.780176	2.782227	2.780176	2.780176	2.777441	2.780859	2.776758	2.779492	2.777441	2.780859	2.778809	2.777441
1639558221063	-908.656	4.88	-424.56	0.21	-0.07	-0.49	292.5	-58.5	3	0	0	2.777441	2.781543	2.778809	2.777441	2.778809	2.777441	2.776074	2.780176	2.778125	2.777441	2.778125	2.780176	2.778125	2.777441	2.776758	2.780859
1639558221073	-928.176	-7.808	-431.88	0.35	-0.14	-0.42	292.5	-64.5	-3	0	0	2.782227	2.778809	2.778809	2.778809	2.778809	2.777441	2.780859	2.780859	2.776758	2.780859	2.778125	2.778809	2.780176	2.778809	2.782227	2.780176
1639558221083	-935.008	5.368	-432.856	0.21	0	-0.35	292.5	-58.5	3	0	0	2.778809	2.778809	2.778809	2.776758	2.777441	2.778809	2.778809	2.778125	2.778125	2.780859	2.777441	2.778809	2.777441	2.778125	2.778809	2.777441
1639558221093	-918.904	-5.368	-417.728	0.28	0.07	-0.28	298.5	-60	12	0	0	2.780859	2.778125	2.782227	2.78291	2.777441	2.780859	2.782227	2.778809	2.778809	2.780176	2.778125	2.778809	2.777441	2.780859	2.778125	2.778809
1639558221102	-912.072	9.76	-419.192	0.35	0	-0.35	295.5	-61.5	7.5	0	0	2.780859	2.782227	2.777441	2.78291	2.777441	2.778809	2.777441	2.777441	2.780859	2.778809	2.780859	2.780859	2.779492	2.780859	2.777441	2.778809
1639558221112	-909.632	6.344	-426.024	0.42	-0.21	-0.49	288	-61.5	-1.5	0	0	2.778809	2.780176	2.778125	2.780859	2.780176	2.780176	2.780176	2.78291	2.778809	2.780859	2.778809	2.778809	2.778125	2.780176	2.778125	2.778809
1639558221122	-925.248	7.808	-424.56	0.42	-0.28	-0.42	289.5	-63	-3	0	0	2.777441	2.778125	2.780176	2.780176	2.780859	2.78291	2.782227	2.780176	2.777441	2.780859	2.777441	2.777441	2.778809	2.776758	2.778809	2.778809
1639558221132	-928.664	-4.392	-430.416	0.42	-0.14	-0.49	294	-64.5	-4.5	0	0	2.777441	2.782227	2.778125	2.777441	2.778809	2.782227	2.780176	2.780176	2.780859	2.780859	2.780859	2.777441	2.780176	2.778809	2.778809	2.776758
1639558221141	-924.76	-2.928	-426.024	0.35	-0.14	-0.56	294	-63	1.5	0	0	2.778809	2.777441	2.778809	2.777441	2.777441	2.780176	2.780859	2.780859	2.778125	2.778809	2.778809	2.780859	2.776758	2.777441	2.778809	2.778125
1639558221151	-921.344	-11.712	-428.464	0.42	-0.07	-0.49	292.5	-66	4.5	0	0	2.778125	2.778809	2.780176	2.777441	2.780176	2.777441	2.780176	2.782227	2.780859	2.780859	2.778809	2.776758	2.780859	2.778125	2.776758	2.780859
1639558221161	-925.736	-10.736	-428.464	0.42	-0.21	-0.49	292.5	-66	0	0	0	2.777441	2.78291	2.780176	2.78291	2.780176	2.783594	2.778809	2.780176	2.777441	2.780859	2.778809	2.777441	2.776758	2.777441	2.777441	2.778125
1639558221171	-924.272	-1.952	-429.44	0.42	-0.21	-0.42	292.5	-63	0	0	0	2.780176	2.780176	2.78291	2.780176	2.780859	2.780859	2.778125	2.778809	2.778809	2.780859	2.780176	2.778125	2.778125	2.780859	2.780859	2.777441
1639558221180	-923.296	3.904	-434.808	0.49	-0.14	-0.42	283.5	-66	3	0	0	2.782227	2.777441	2.782227	2.777441	2.777441	2.777441	2.777441	2.780176	2.777441	2.780859	2.782227	2.777441	2.778125	2.778125	2.778809	2.780859
1639558221190	-919.88	-2.928	-427.976	0.35	-0.07	-0.49	282	-70.5	6	0	0	2.778809	2.778809	2.780176	2.777441	2.78291	2.777441	2.782227	2.778809	2.777441	2.777441	2.780859	2.780859	2.778125	2.778125	2.778809	2.776758
1639558221200	-912.072	-2.928	-422.608	0.35	-0.14	-0.56	289.5	-67.5	4.5	0	0	2.780859	2.777441	2.777441	2.777441	2.776758	2.780859	2.780176	2.778809	2.778125	2.781543	2.778125	2.780859	2.782227	2.777441	2.780176	2.778809
1639558221210	-921.344	0.976	-424.56	0.42	-0.21	-0.63	291	-60	4.5	0	0	2.780176	2.778809	2.78291	2.778809	2.780176	2.782227	2.778809	2.782227	2.777441	2.780859	2.780859	2.778809	2.778809	2.778809	2.780859	2.777441
1639558221220	-931.104	-4.88	-429.928	0.49	-0.14	-0.56	291	-60	4.5	0	0	2.780859	2.780859	2.780859	2.780859	2.780859	2.780859	2.778125	2.782227	2.782227	2.782227	2.780176	2.777441	2.777441	2.778125	2.777441	2.777441
1639558221229	-932.568	-7.808	-429.928	0.35	-0.07	-0.56	292.5	-61.5	7.5	0	0	2.778809	2.777441	2.780176	2.778125	2.780176	2.782227	2.780859	2.780176	2.780859	2.782227	2.777441	2.778125	2.778125	2.777441	2.780176	2.777441
1639558221239	-919.392	-12.688	-423.096	0.35	-0.07	-0.42	292.5	-64.5	6	0	0	2.780176	2.778125	2.778809	2.78291	2.780176	2.777441	2.780176	2.777441	2.776758	2.781543	2.777441	2.781543	2.778809	2.778809	2.778125	2.777441
1639558221249	-915.488	-4.392	-429.928	0.35	-0.07	-0.49	292.5	-64.5	4.5	0	0	2.782227	2.782227	2.778809	2.777441	2.780176	2.777441	2.777441	2.778809	2.780859	2.780859	2.780176	2.778809	2.780859	2.782227	2.777441	2.781543
1639558221259	-916.952	-4.392	-434.808	0.42	-0.14	-0.49	292.5	-66	4.5	0	0	2.782227	2.780176	2.780176	2.780859	2.782227	2.777441	2.780859	2.78291	2.778125	2.780859	2.778809	2.778809	2.778809	2.777441	2.778125	2.778125
1639558221268	-919.88	-7.32	-437.248	0.28	-0.07	-0.42	292.5	-69	0	0	0	2.778125	2.778125	2.782227	2.778125	2.780859	2.780859	2.782227	2.780859	2.780859	2.777441	2.777441	2.777441	2.779492	2.780859	2.778125	2.778809
1639558221278	-932.568	-8.296	-431.88	0.21	0.07	-0.42	292.5	-67.5	-1.5	0	0	2.780176	2.782227	2.778809	2.780859	2.777441	2.782227	2.780859	2.778809	2.777441	2.777441	2.777441	2.780859	2.778125	2.777441	2.777441	2.780859
1639558221288	-918.904	-11.224	-425.048	0.21	0	-0.42	288	-60	-4.5	0	0	2.781543	2.780176	2.780859	2.782227	2.777441	2.782227	2.782227	2.780176	2.777441	2.780859	2.778809	2.778125	2.780859	2.780859	2.777441	2.777441
1639558221298	-923.296	-9.272	-425.536	0.28	-0.07	-0.35	289.5	-57	-1.5	0	0	2.782227	2.778809	2.780859	2.780859	2.781543	2.778125	2.780859	2.780176	2.778809	2.777441	2.780859	2.778809	2.780859	2.778809	2.780859	2.780859
1639558221307	-927.688	-0.976	-430.416	0.35	-0.07	-0.49	289.5	-57	3	0	0	2.780176	2.78291	2.778125	2.778809	2.780176	2.778809	2.780176	2.780176	2.777441	2.780176	2.777441	2.778125	2.782227	2.778809	2.776758	2.778809
1639558221317	-924.272	4.88	-427.488	0.42	0	-0.35	289.5	-54	1.5	0	0	2.778125	2.778809	2.782227	2.78291	2.780176	2.780176	2.780859	2.777441	2.777441	2.777441	2.780859	2.781543	2.777441	2.777441	2.777441	2.778125
1639558221327	-916.464	9.272	-427.488	0.42	0	-0.42	289.5	-55.5	0	0	0	2.778809	2.780176	2.778125	2.778809	2.766504	2.776758	2.778125	2.778125	2.770605	2.782227	2.780176	2.778125	2.771973	2.775391	2.778809	2.778125
1639558221337	-912.56	-2.928	-427.976	0.35	-0.14	-0.56	294	-63	-1.5	0	0	2.782227	2.778809	2.780176	2.778809	2.780859	2.782227	2.780859	2.782227	2.778125	2.780176	2.778125	2.778125	2.780859	2.778125	2.778809	2.778809
1639558221346	-919.392	1.952	-428.464	0.42	-0.14	-0.63	294	-66	-1.5	0	0	2.781543	2.783594	2.78291	2.778809	2.776758	2.778809	2.777441	2.782227	2.777441	2.782227	2.776758	2.780859	2.780859	2.776758	2.778125	2.777441
1639558221356	-934.032	-0.488	-434.808	0.42	-0.21	-0.56	289.5	-60	-1.5	0	0	2.780176	2.777441	2.777441	2.782227	2.778809	2.777441	2.778809	2.778809	2.780859	2.776758	2.780859	2.780859	2.778125	2.782227	2.778125	2.780176
1639558221366	-926.712	-8.784	-434.808	0.42	-0.07	-0.49	288	-63	-1.5	0	0	2.777441	2.777441	2.780859	2.780176	2.778125	2.780859	2.780176	2.780176	2.778125	2.777441	2.778809	2.777441	2.778125	2.777441	2.778125	2.778125
1639558221376	-912.56	-9.76	-430.904	0.42	0.07	-0.42	288	-67.5	0	0	0	2.777441	2.778809	2.780859	2.780176	2.780176	2.777441	2.78291	2.780176	2.780859	2.778125	2.779492	2.780176	2.780859	2.780859	2.780176	2.778809
1639558221386	-913.048	-1.952	-431.88	0.35	-0.07	-0.49	289.5	-64.5	1.5	0	0	2.782227	2.780859	2.778125	2.78291	2.778809	2.778809	2.780176	2.780859	2.777441	2.778809	2.779492	2.780859	2.778809	2.780859	2.777441	2.778125
1639558221395	-921.344	-7.32	-435.784	0.42	-0.14	-0.56	289.5	-61.5	0	0	0	2.777441	2.780859	2.777441	2.780859	2.777441	2.78291	2.780859	2.780859	2.777441	2.780859	2.777441	2.778809	2.778125	2.777441	2.779492	2.780859
1639558221405	-927.688	0.976	-432.856	0.35	-0.07	-0.49	294	-66	6	0	0	2.778125	2.780859	2.780176	2.778809	2.778125	2.780176	2.777441	2.778125	2.777441	2.777441	2.776074	2.778809	2.780859	2.776758	2.777441	2.780176
1639558221415	-924.76	-3.416	-426.024	0.35	-0.07	-0.56	297	-66	4.5	0	0	2.778809	2.778809	2.78291	2.782227	2.778125	2.782227	2.780176	2.778809	2.778809	2.778125	2.778809	2.777441	2.780859	2.778809	2.778809	2.778809
1639558221425	-925.736	-8.784	-424.072	0.35	-0.07	-0.49	292.5	-60	-1.5	0	0	2.780859	2.782227	2.780859	2.780176	2.778809	2.778809	2.780176	2.780859	2.777441	2.777441	2.780859	2.778809	2.780176	2.777441	2.780176	2.778125
1639558221434	-928.176	-4.392	-423.584	0.28	-0.14	-0.56	294	-55.5	-1.5	0	0	2.778809	2.782227	2.780176	2.780859	2.780176	2.778125	2.780176	2.780176	2.778809	2.778809	2.780176	2.778809	2.782227	2.780176	2.778809	2.777441
1639558221444	-930.616	-1.464	-429.44	0.35	-0.14	-0.49	295.5	-60	-1.5	0	0	2.780176	2.778809	2.777441	2.782227	2.782227	2.78291	2.777441	2.782227	2.780176	2.780859	2.778809	2.780859	2.780859	2.777441	2.780859	2.776758
1639558221454	-929.152	3.416	-426.512	0.35	-0.07	-0.42	295.5	-64.5	0	0	0	2.777441	2.780176	2.777441	2.78291	2.778809	2.778809	2.780176	2.780859	2.778809	2.778125	2.780176	2.782227	2.780859	2.780176	2.777441	2.778809
1639558221464	-925.736	5.856	-427	0.28	0.07	-0.42	297	-58.5	4.5	0	0	2.778809	2.778125	2.778125	2.778809	2.778809	2.780859	2.778125	2.778809	2.782227	2.780859	2.778125	2.777441	2.777441	2.777441	2.780859	2.777441
1639558221473	-913.048	-2.44	-422.12	0.42	0.07	-0.56	292.5	-61.5	1.5	0	0	2.778809	2.780176	2.778809	2.782227	2.778809	2.778125	2.780176	2.780859	2.778125	2.780859	2.778125	2.778809	2.778809	2.778125	2.779492	2.780859
1639558221483	-915.488	-5.368	-425.536	0.42	-0.07	-0.56	289.5	-64.5	0	0	0	2.780176	2.780176	2.777441	2.778125	2.778125	2.780859	2.777441	2.777441	2.779492	2.777441	2.780859	2.780859	2.777441	2.780859	2.778125	2.780859
1639558221493	-925.248	-7.808	-432.856	0.35	-0.14	-0.56	298.5	-64.5	4.5	0	0	2.780859	2.782227	2.778125	2.780859	2.780176	2.782227	2.782227	2.780176	2.777441	2.780859	2.781543	2.780859	2.778809	2.778809	2.780859	2.777441
1639558221503	-930.616	-3.416	-434.808	0.35	-0.07	-0.42	297	-67.5	3	0	0	2.780859	2.782227	2.780859	2.777441	2.780176	2.778125	2.78291	2.780859	2.778809	2.778125	2.777441	2.780176	2.778125	2.780859	2.777441	2.777441
1639558221512	-922.32	-8.296	-433.832	0.42	0	-0.42	295.5	-66	1.5	0	0	2.78291	2.782227	2.780176	2.776758	2.777441	2.778125	2.778809	2.776758	2.777441	2.781543	2.780859	2.782227	2.778125	2.778125	2.778809	2.777441
1639558221522	-911.096	-5.368	-435.296	0.42	0	-0.42	297	-58.5	1.5	0	0	2.777441	2.780859	2.780859	2.778809	2.777441	2.780176	2.782227	2.780859	2.777441	2.780176	2.780859	2.777441	2.777441	2.780176	2.778125	2.778809
1639558221532	-917.928	-0.488	-429.928	0.42	-0.14	-0.42	298.5	-61.5	-3	0	0	2.780176	2.782227	2.776758	2.782227	2.78291	2.780859	2.782227	2.777441	2.780859	2.777441	2.780859	2.780859	2.776758	2.777441	2.777441	2.780176
1639558221542	-924.76	5.856	-431.392	0.42	-0.14	-0.49	292.5	-67.5	-1.5	0	0	2.782227	2.780859	2.776758	2.777441	2.778125	2.781543	2.780176	2.778125	2.778125	2.777441	2.780176	2.777441	2.777441	2.778809	2.777441	2.778809
1639558221552	-930.128	1.952	-432.856	0.35	-0.14	-0.56	295.5	-66	6	0	0	2.778809	2.780859	2.777441	2.782227	2.780176	2.782227	2.778809	2.780176	2.777441	2.780859	2.778125	2.778809	2.777441	2.780176	2.778125	2.777441
1639558221561	-923.296	-2.44	-425.536	0.35	-0.07	-0.56	295.5	-64.5	4.5	0	0	2.780176	2.78291	2.780176	2.778125	2.780176	2.782227	2.783594	2.780176	2.778809	2.777441	2.780859	2.777441	2.780859	2.778125	2.777441	2.780859
1639558221571	-919.88	-7.32	-426.024	0.49	-0.14	-0.49	288	-63	-4.5	0	0	2.778809	2.780859	2.78291	2.776758	2.778809	2.777441	2.777441	2.782227	2.776758	2.777441	2.778809	2.778809	2.777441	2.778125	2.777441	2.780859
1639558221581	-927.688	-4.88	-424.56	0.42	-0.28	-0.49	291	-63	-12	0	0	2.780859	2.780176	2.777441	2.780859	2.78291	2.780176	2.782227	2.778809	2.777441	2.778125	2.778809	2.778809	2.777441	2.778125	2.777441	2.778809
1639558221591	-935.008	-3.416	-429.44	0.42	-0.14	-0.49	295.5	-58.5	-6	0	0	2.780176	2.780859	2.782227	2.780176	2.780859	2.782227	2.780859	2.780176	2.778125	2.782227	2.780859	2.777441	2.776758	2.780859	2.780859	2.780859
1639558221600	-928.176	-1.464	-433.344	0.21	0	-0.49	295.5	-58.5	-6	0	0	2.780176	2.782227	2.780859	2.780176	2.778809	2.777441	2.778809	2.782227	2.778809	2.780176	2.778125	2.780176	2.777441	2.782227	2.779492	2.778125
1639558221610	-925.248	-5.856	-425.048	0.28	0.07	-0.56	295.5	-52.5	0	0	0	2.777441	2.777441	2.777441	2.780176	2.78291	2.782227	2.78291	2.778809	2.778809	2.778809	2.780176	2.778809	2.778809	2.777441	2.780859	2.778809
1639558221620	-920.856	-8.784	-427	0.35	-0.07	-0.49	291	-60	-1.5	0	0	2.78291	2.778125	2.782227	2.782227	2.778125	2.777441	2.780176	2.780176	2.777441	2.778125	2.780859	2.782227	2.777441	2.778809	2.778809	2.778809
1639558221630	-928.176	-4.88	-430.416	0.49	-0.14	-0.49	289.5	-63	-3	0	0	2.781543	2.778125	2.780176	2.777441	2.782227	2.780176	2.777441	2.780859	2.780859	2.780859	2.777441	2.778809	2.780859	2.778809	2.780859	2.778809
1639558221639	-933.544	4.392	-427.976	0.35	0	-0.56	294	-52.5	0	0	0	2.780176	2.780859	2.782227	2.780176	2.782227	2.778809	2.777441	2.777441	2.777441	2.780859	2.780859	2.778809	2.780859	2.777441	2.777441	2.777441
1639558221649	-927.2	2.928	-427	0.35	0	-0.42	295.5	-49.5	0	0	0	2.780176	2.780176	2.782227	2.780859	2.780176	2.782227	2.782227	2.780176	2.781543	2.778125	2.780859	2.778809	2.778125	2.778125	2.780859	2.777441
1639558221659	-915	-0.488	-427	0.28	-0.07	-0.35	294	-63	-1.5	0	0	2.782227	2.777441	2.778809	2.778809	2.777441	2.780176	2.780176	2.778809	2.778125	2.777441	2.777441	2.778125	2.778125	2.772656	2.778125	2.778125
1639558221669	-914.512	-4.392	-428.952	0.28	-0.14	-0.49	291	-70.5	-1.5	0	0	2.780859	2.781543	2.780176	2.782227	2.778809	2.777441	2.780176	2.777441	2.780176	2.778125	2.777441	2.777441	2.775391	2.777441	2.778809	2.778125
1639558221679	-920.856	1.952	-433.832	0.35	-0.14	-0.63	294	-67.5	-4.5	0	0	2.780859	2.777441	2.780176	2.781543	2.781543	2.778125	2.780859	2.78291	2.776074	2.776758	2.778125	2.778125	2.780859	2.778125	2.778125	2.777441
1639558221688	-923.784	-1.464	-431.88	0.35	-0.14	-0.49	295.5	-67.5	0	0	0	2.780176	2.777441	2.777441	2.778809	2.78291	2.778809	2.780176	2.777441	2.777441	2.777441	2.782227	2.778809	2.780859	2.777441	2.777441	2.780176
1639558221698	-919.88	1.952	-425.048	0.28	0	-0.49	286.5	-67.5	7.5	0	0	2.780859	2.78291	2.782227	2.778809	2.78291	2.778125	2.78291	2.778809	2.778125	2.778809	2.780859	2.781543	2.777441	2.776758	2.777441	2.778125
1639558221708	-920.368	-2.44	-428.952	0.42	-0.07	-0.42	283.5	-67.5	1.5	0	0	2.777441	2.780859	2.782227	2.780176	2.780859	2.782227	2.780859	2.778809	2.778809	2.780176	2.777441	2.778125	2.778809	2.780176	2.778809	2.778125
1639558221718	-925.248	-2.44	-428.464	0.42	-0.14	-0.42	289.5	-67.5	1.5	0	0	2.777441	2.777441	2.78291	2.780176	2.78291	2.780859	2.780859	2.778809	2.777441	2.777441	2.778125	2.780176	2.777441	2.778809	2.778125	2.777441
1639558221727	-927.688	-5.368	-431.392	0.42	-0.14	-0.35	291	-64.5	-1.5	0	0	2.778809	2.78291	2.78291	2.779492	2.777441	2.777441	2.777441	2.778809	2.778125	2.780859	2.776758	2.778125	2.777441	2.780176	2.776758	2.780859
1639558221737	-911.096	-97.6	-486.536	0.28	-0.35	-0.35	294	-63	-1.5	0	0	2.778125	2.777441	2.78291	2.780859	2.782227	2.780859	2.778125	2.778125	2.777441	2.777441	2.780859	2.777441	2.777441	2.780859	2.778125	2.778125
1639558221747	-806.176	-211.792	-792.512	-4.48	1.19	-3.85	292.5	-63	4.5	0	0	2.777441	2.780859	2.782227	2.780176	2.78291	2.780859	2.782227	2.777441	2.776758	2.777441	2.778809	2.779492	2.778809	2.778125	2.780859	2.778125
1639558221757	-1043.832	-44.896	-983.32	-9.52	-0.42	-5.25	291	-63	12	0	0	2.777441	2.78291	2.780176	2.782227	2.782227	2.780176	2.780859	2.780859	2.778809	2.778809	2.780176	2.778125	2.780859	2.778125	2.777441	2.778125
1639558221766	-844.24	-34.648	-435.784	-17.29	-4.34	-4.27	289.5	-58.5	6	0	0	2.78291	2.778809	2.780859	2.780176	2.782227	2.777441	2.782227	2.782227	2.780859	2.777441	2.778809	2.780859	2.780859	2.778125	2.777441	2.780859
1639558221776	-1053.104	34.16	-477.752	-13.37	0.42	-7.42	288	-54	-6	0	0	2.782227	2.778809	2.780859	2.781543	2.780176	2.780859	2.78291	2.780176	2.778809	2.777441	2.780176	2.780859	2.777441	2.778809	2.778125	2.780859
1639558221786	-918.416	-34.648	-382.104	-14.42	-2.73	-5.39	291	-61.5	-3	0	0	2.780176	2.778809	2.782227	2.782227	2.778125	2.777441	2.780859	2.777441	2.777441	2.776758	2.777441	2.778809	2.777441	2.780176	2.778809	2.777441
1639558221796	-962.824	-20.496	-405.528	1.19	1.89	-0.7	291	-67.5	9	0	0	2.780176	2.778125	2.777441	2.778809	2.782227	2.780176	2.778809	2.778125	2.777441	2.776758	2.778125	2.777441	2.778809	2.778125	2.777441	2.778125
1639558221805	-968.192	-29.28	-454.816	0.42	0.84	-0.42	295.5	-64.5	1.5	0	0	2.780859	2.780176	2.777441	2.78291	2.778809	2.778809	2.780176	2.780176	2.780859	2.777441	2.777441	2.782227	2.778125	2.776758	2.779492	2.780859
1639558221815	-852.048	25.864	-377.712	2.1	-0.49	1.05	295.5	-58.5	-3	0	0	2.780176	2.778809	2.78291	2.780176	2.778809	2.782227	2.780859	2.777441	2.778809	2.778809	2.778125	2.780859	2.778125	2.780859	2.778125	2.780859
1639558221825	-1011.624	62.952	-492.88	2.52	0.91	-1.26	292.5	-57	3	0	0	2.782227	2.780176	2.783594	2.780859	2.78291	2.778125	2.778809	2.780176	2.777441	2.778809	2.778809	2.780859	2.777441	2.777441	2.781543	2.780859
1639558221835	-884.744	-14.152	-406.016	-3.85	0.28	-2.17	298.5	-61.5	6	0	0	2.78291	2.778125	2.780859	2.783594	2.776074	2.780859	2.777441	2.782227	2.778809	2.780859	2.780176	2.777441	2.780859	2.780859	2.780859	2.780176
1639558221845	-925.248	14.64	-462.624	0.98	1.05	-1.4	298.5	-63	9	0	0	2.782227	2.78291	2.78291	2.780859	2.778809	2.777441	2.780176	2.780176	2.778125	2.778809	2.780176	2.780859	2.782227	2.778125	2.780859	2.778809
1639558221854	-966.24	-36.6	-382.592	-0.63	-0.14	-1.05	298.5	-63	9	0	0	2.780859	2.780176	2.782227	2.778125	2.782227	2.781543	2.780176	2.780176	2.777441	2.777441	2.778809	2.778809	2.780859	2.782227	2.782227	2.778125
1639558221864	-940.864	-10.736	-425.048	0.84	-0.21	0.21	298.5	-63	-1.5	0	0	2.778125	2.780176	2.780176	2.780859	2.780176	2.780176	2.782227	2.780859	2.778125	2.778125	2.780176	2.777441	2.780176	2.778809	2.777441	2.781543
1639558221874	-950.624	14.64	-449.448	0.28	0.21	0	295.5	-61.5	-7.5	0	0	2.781543	2.780176	2.780176	2.777441	2.780176	2.780176	2.780176	2.780176	2.777441	2.778125	2.780859	2.778125	2.778125	2.782227	2.778809	2.778809
1639558221884	-890.112	28.304	-426.024	0.42	0.28	0.49	294	-58.5	-1.5	0	0	2.778809	2.778809	2.780176	2.780859	2.782227	2.777441	2.780859	2.777441	2.777441	2.777441	2.777441	2.777441	2.777441	2.777441	2.778125	2.778125
1639558221893	-833.992	29.28	-420.656	-0.14	0.21	-0.77	288	-58.5	-1.5	0	0	2.780859	2.780176	2.782227	2.780176	2.782227	2.780859	2.78291	2.780859	2.778809	2.780859	2.778809	2.780859	2.777441	2.777441	2.777441	2.780859
1639558221903	-915.976	3.904	-434.32	0.28	-0.42	-1.4	289.5	-64.5	-9	0	0	2.78291	2.781543	2.778809	2.779492	2.78291	2.780859	2.777441	2.780176	2.778809	2.777441	2.778125	2.778809	2.777441	2.781543	2.780859	2.778809
1639558221913	-957.456	-8.296	-416.264	0.21	-0.28	-1.26	295.5	-61.5	-3	0	0	2.778125	2.777441	2.780176	2.780859	2.780176	2.777441	2.783594	2.777441	2.780859	2.778125	2.777441	2.780176	2.780176	2.780176	2.778125	2.780176
1639558221923	-1001.864	-20.008	-438.224	0.21	0.14	-0.84	295.5	-64.5	0	0	0	2.777441	2.780176	2.782227	2.779492	2.782227	2.780176	2.777441	2.778125	2.776758	2.780176	2.780176	2.777441	2.777441	2.780859	2.778125	2.780176
1639558221932	-910.608	-27.328	-399.184	0.14	0.28	0.28	294	-73.5	1.5	0	0	2.778125	2.777441	2.780176	2.782227	2.780176	2.781543	2.782227	2.778809	2.777441	2.776758	2.778809	2.778809	2.780859	2.780176	2.780859	2.780176
1639558221942	-886.696	-5.856	-405.04	0.49	-0.07	-0.07	298.5	-64.5	1.5	0	0	2.780176	2.782227	2.778809	2.777441	2.782227	2.778809	2.780176	2.780176	2.780859	2.778125	2.778125	2.781543	2.780859	2.777441	2.778125	2.778809
1639558221952	-904.752	29.28	-443.592	0.49	-0.42	-0.14	304.5	-58.5	-1.5	0	0	2.780176	2.777441	2.780859	2.782227	2.782227	2.780859	2.777441	2.777441	2.780176	2.780859	2.778125	2.778809	2.780176	2.778125	2.780859	2.777441
1639558221962	-904.752	37.088	-453.352	0.56	-0.35	-0.56	295.5	-60	0	0	0	2.778809	2.780176	2.782227	2.781543	2.780859	2.778125	2.778809	2.777441	2.776758	2.776758	2.778125	2.778125	2.781543	2.781543	2.777441	2.780859
1639558221971	-913.048	22.448	-455.792	0.21	0.21	-1.05	298.5	-61.5	3	0	0	2.782227	2.777441	2.780176	2.778809	2.780176	2.782227	2.778809	2.780859	2.777441	2.778125	2.776758	2.778809	2.778809	2.778125	2.776074	2.778809
1639558221981	-913.536	-25.864	-409.432	0.35	0	-0.84	298.5	-66	-1.5	0	0	2.777441	2.778809	2.778125	2.78291	2.780176	2.780176	2.778809	2.782227	2.771289	2.780859	2.780859	2.780176	2.780859	2.777441	2.776758	2.778125
1639558221991	-941.84	-37.576	-407.48	0.63	-0.49	-0.91	304.5	-66	-1.5	0	0	2.780859	2.778809	2.780176	2.779492	2.780176	2.780176	2.778125	2.780176	2.778809	2.777441	2.777441	2.781543	2.780859	2.776758	2.778125	2.777441
1639558222001	-970.144	-19.52	-427.976	0.7	-0.56	-0.35	294	-69	-3	0	0	2.780176	2.777441	2.777441	2.780176	2.778125	2.777441	2.777441	2.782227	2.780859	2.777441	2.778809	2.778809	2.778125	2.777441	2.782227	2.777441
1639558222011	-946.232	0.976	-444.568	0.49	-0.07	0.07	288	-66	-1.5	0	0	2.780176	2.78291	2.780176	2.780176	2.780176	2.778809	2.777441	2.780176	2.780859	2.778809	2.778809	2.780859	2.777441	2.777441	2.777441	2.777441
1639558222020	-903.776	12.2	-429.44	0.35	0.28	-0.07	288	-66	0	0	0	2.782227	2.778809	2.777441	2.778809	2.777441	2.780176	2.777441	2.778809	2.780176	2.778125	2.777441	2.778125	2.779492	2.778809	2.781543	2.780859
1639558222030	-864.248	9.76	-423.584	0.28	0	-0.35	289.5	-70.5	0	0	0	2.780176	2.777441	2.78291	2.780176	2.780176	2.78291	2.778125	2.778125	2.776758	2.777441	2.778125	2.780176	2.777441	2.780859	2.777441	2.778125
1639558222040	-897.92	5.368	-428.952	0.28	-0.28	-1.12	291	-67.5	-1.5	0	0	2.778125	2.780176	2.780859	2.778809	2.78291	2.778809	2.780176	2.777441	2.777441	2.778125	2.778125	2.778809	2.780859	2.777441	2.778125	2.780859
1639558222050	-964.776	-9.272	-442.616	0.35	-0.28	-1.05	291	-63	-3	0	0	2.780859	2.782227	2.780176	2.78291	2.78291	2.778125	2.778809	2.780859	2.777441	2.777441	2.777441	2.780176	2.777441	2.777441	2.778125	2.782227
1639558222059	-967.704	-32.696	-425.048	0.14	0.14	-0.63	289.5	-64.5	-4.5	0	0	2.78291	2.780176	2.78291	2.780176	2.778809	2.780176	2.777441	2.780176	2.778125	2.778125	2.780176	2.781543	2.777441	2.778809	2.781543	2.778809
1639558222069	-946.232	-34.16	-421.632	0.07	0.42	-0.21	291	-66	-1.5	0	0	2.780859	2.778809	2.780859	2.780176	2.778809	2.778809	2.778125	2.777441	2.777441	2.777441	2.776758	2.777441	2.777441	2.778125	2.780859	2.780859
1639558222079	-923.296	-20.008	-417.728	0.14	0.28	0.14	297	-64.5	0	0	0	2.78291	2.777441	2.780859	2.780176	2.780176	2.782227	2.778809	2.780859	2.777441	2.778125	2.778809	2.780859	2.780859	2.780859	2.776758	2.778809
1639558222089	-870.592	3.416	-411.872	0.28	-0.21	0.14	294	-64.5	-1.5	0	0	2.780176	2.777441	2.777441	2.780176	2.777441	2.780176	2.778809	2.780859	2.778809	2.778125	2.777441	2.777441	2.776758	2.778125	2.778125	2.778125
1639558222098	-904.264	48.312	-429.44	0.21	-0.49	-0.21	294	-58.5	0	0	0	2.780859	2.780176	2.778125	2.780859	2.776758	2.781543	2.780176	2.778125	2.778809	2.777441	2.778125	2.780859	2.780176	2.778125	2.781543	2.778125
1639558222108	-913.048	35.136	-441.152	0.42	0	-0.63	297	-58.5	1.5	0	0	2.777441	2.782227	2.782227	2.778809	2.777441	2.780859	2.780176	2.780859	2.778125	2.780859	2.778125	2.778809	2.777441	2.777441	2.780176	2.780859
1639558222118	-915	7.808	-421.144	0.28	0.14	-0.98	301.5	-63	1.5	0	0	2.78291	2.778125	2.777441	2.778125	2.780176	2.780176	2.780176	2.778809	2.777441	2.782227	2.781543	2.780859	2.780176	2.777441	2.782227	2.780859
1639558222128	-914.024	-18.056	-403.576	0.28	-0.14	-1.05	297	-63	4.5	0	0	2.782227	2.780176	2.780859	2.777441	2.783594	2.777441	2.777441	2.780176	2.778809	2.778125	2.780176	2.778125	2.778809	2.778125	2.780176	2.782227
1639558222137	-991.616	-35.624	-448.96	0.84	-0.07	-0.98	292.5	-64.5	3	0	0	2.778809	2.780176	2.778809	2.778809	2.781543	2.782227	2.782227	2.777441	2.778809	2.777441	2.777441	2.780176	2.782227	2.778809	2.781543	2.778809
1639558222147	-949.648	-8.784	-432.856	0.98	-0.21	-0.28	291	-63	-1.5	0	0	2.777441	2.780176	2.782227	2.777441	2.782227	2.778125	2.782227	2.777441	2.778125	2.782227	2.778809	2.778809	2.780859	2.778125	2.778125	2.777441
1639558222157	-936.96	-29.28	-451.888	0	0.21	-0.49	297	-64.5	-1.5	0	0	2.781543	2.780176	2.780176	2.782227	2.782227	2.782227	2.777441	2.780859	2.778125	2.778125	2.780176	2.781543	2.778125	2.780176	2.778809	2.778125
1639558222167	-842.288	10.248	-451.4	0.7	-0.14	0.35	300	-63	4.5	0	0	2.778809	2.781543	2.780859	2.778809	2.782227	2.780859	2.780176	2.777441	2.777441	2.780859	2.780859	2.777441	2.780859	2.780176	2.781543	2.780176
1639558222177	-874.496	3.904	-425.048	1.05	-0.56	-0.14	301.5	-61.5	-1.5	0	0	2.780176	2.777441	2.777441	2.777441	2.78291	2.777441	2.778809	2.780176	2.778809	2.778125	2.777441	2.780176	2.780859	2.778809	2.778125	2.780859
1639558222186	-934.52	-6.832	-430.416	1.4	-0.49	-0.56	301.5	-63	-6	0	0	2.78291	2.78291	2.777441	2.780859	2.778125	2.777441	2.778809	2.780859	2.778125	2.777441	2.778125	2.779492	2.781543	2.777441	2.780859	2.778809
1639558222196	-968.68	0	-453.352	0.91	0	-0.98	294	-63	-1.5	0	0	2.777441	2.782227	2.78291	2.778809	2.78291	2.782227	2.777441	2.777441	2.778125	2.778809	2.780859	2.778125	2.776758	2.780859	2.778809	2.776758
1639558222206	-960.384	-27.816	-431.392	0.84	0.14	-0.42	294	-61.5	1.5	0	0	2.782227	2.780176	2.782227	2.778125	2.783594	2.777441	2.780176	2.78291	2.778809	2.778809	2.778125	2.777441	2.778809	2.780859	2.779492	2.778125
1639558222216	-927.688	-30.256	-399.184	-0.07	-0.07	-0.35	294	-55.5	1.5	0	0	2.780859	2.780176	2.777441	2.782227	2.777441	2.778125	2.782227	2.782227	2.778125	2.777441	2.780176	2.778809	2.778809	2.777441	2.780859	2.780859
1639558222225	-910.12	-5.856	-417.728	0.56	-0.28	-0.07	295.5	-58.5	0	0	0	2.780176	2.777441	2.780176	2.780859	2.780859	2.778809	2.778809	2.780859	2.780176	2.777441	2.778125	2.778809	2.778809	2.777441	2.782227	2.778809
1639558222235	-912.56	20.984	-432.856	1.4	-0.07	0.07	295.5	-63	0	0	0	2.778809	2.778125	2.780176	2.777441	2.780176	2.780176	2.782227	2.780859	2.780859	2.777441	2.780859	2.780176	2.776758	2.778809	2.778809	2.777441
1639558222245	-918.904	23.912	-432.856	0.98	-0.14	-0.07	295.5	-67.5	3	0	0	2.778809	2.778809	2.782227	2.782227	2.780176	2.782227	2.778809	2.78291	2.780859	2.778809	2.777441	2.777441	2.776758	2.777441	2.777441	2.780859
1639558222255	-902.8	9.272	-437.248	-0.21	0.21	-1.05	300	-66	0	0	0	2.780859	2.780176	2.778809	2.780176	2.782227	2.780176	2.778809	2.777441	2.781543	2.780859	2.778125	2.777441	2.777441	2.780176	2.778809	2.780859
1639558222264	-919.88	-21.472	-413.824	-0.49	0.07	-1.33	303	-61.5	4.5	0	0	2.78291	2.782227	2.778809	2.778125	2.777441	2.777441	2.778809	2.780859	2.778125	2.780859	2.780859	2.778125	2.778125	2.777441	2.777441	2.778809
1639558222274	-943.304	-27.328	-408.944	0.21	-0.21	-0.98	300	-64.5	6	0	0	2.777441	2.78291	2.777441	2.78291	2.778809	2.777441	2.778125	2.778809	2.778809	2.780176	2.777441	2.780176	2.780176	2.780859	2.778125	2.776758
1639558222284	-962.336	-20.984	-427.976	0.21	-0.35	-0.28	294	-64.5	-1.5	0	0	2.777441	2.780859	2.782227	2.778809	2.782227	2.777441	2.780859	2.780176	2.778125	2.777441	2.780176	2.780176	2.781543	2.780176	2.780176	2.777441
1639558222294	-935.496	-8.296	-437.736	0.21	0.21	0	294	-61.5	-3	0	0	2.778809	2.778809	2.778809	2.777441	2.780859	2.778809	2.780176	2.778809	2.780176	2.778125	2.780859	2.779492	2.777441	2.777441	2.778125	2.777441
1639558222304	-901.336	5.368	-419.192	1.19	0.35	0.28	300	-58.5	-1.5	0	0	2.776758	2.78291	2.78291	2.778809	2.78291	2.77334	2.778809	2.779492	2.778125	2.780859	2.776758	2.778125	2.780859	2.776758	2.778809	2.775391
1639558222313	-887.184	-2.44	-412.36	0.63	0	-0.21	298.5	-64.5	1.5	0	0	2.777441	2.780176	2.780176	2.780859	2.780859	2.778809	2.78291	2.777441	2.777441	2.778809	2.779492	2.777441	2.780859	2.776758	2.780859	2.778125
1639558222323	-907.68	12.2	-434.808	0	-0.21	-0.91	291	-66	-1.5	0	0	2.782227	2.778809	2.78291	2.78291	2.78291	2.780859	2.780859	2.777441	2.777441	2.778809	2.778809	2.780176	2.777441	2.778809	2.780859	2.778125
1639558222333	-943.304	3.904	-446.52	-0.77	-0.21	-1.4	292.5	-63	-3	0	0	2.778125	2.777441	2.783594	2.777441	2.777441	2.780859	2.780859	2.782227	2.782227	2.777441	2.778125	2.780859	2.779492	2.780176	2.780859	2.778809
1639558222343	-941.352	-10.736	-439.2	0.77	-0.28	-0.21	298.5	-60	-1.5	0	0	2.776758	2.780859	2.78291	2.780859	2.782227	2.778809	2.777441	2.782227	2.780859	2.781543	2.777441	2.777441	2.778125	2.778809	2.780859	2.778125
1639558222352	-914.512	-38.552	-416.264	0.84	-0.21	0.14	297	-57	0	0	0	2.780176	2.780859	2.780859	2.777441	2.78291	2.778125	2.778125	2.782227	2.778809	2.776758	2.777441	2.778809	2.778809	2.778125	2.778809	2.780859
1639558222362	-926.224	-25.864	-407.968	2.17	-0.63	0.77	294	-61.5	1.5	0	0	2.78291	2.778809	2.777441	2.777441	2.777441	2.782227	2.780859	2.777441	2.778125	2.780859	2.780176	2.777441	2.778809	2.782227	2.780176	2.778809
1639558222372	-935.496	2.928	-400.16	1.75	-1.68	1.19	294	-61.5	1.5	0	0	2.778125	2.778809	2.78291	2.778125	2.778809	2.777441	2.780176	2.780859	2.778125	2.778125	2.777441	2.780176	2.777441	2.778809	2.777441	2.778809
1639558222382	-936.472	33.184	-393.328	5.81	-0.77	3.22	291	-61.5	-1.5	0	0	2.778809	2.778809	2.778809	2.782227	2.780176	2.778809	2.782227	2.78291	2.780176	2.777441	2.777441	2.778809	2.778125	2.778809	2.777441	2.777441
1639558222391	-975.512	35.136	-365.024	3.57	-1.96	1.89	292.5	-60	1.5	0	0	2.777441	2.777441	2.780859	2.780176	2.782227	2.78291	2.778809	2.780859	2.778809	2.777441	2.780859	2.778125	2.780859	2.777441	2.778809	2.780859
1639558222401	-866.688	12.688	-440.176	10.92	0.63	7.56	286.5	-64.5	6	0	0	2.778125	2.778125	2.780176	2.78291	2.778809	2.780176	2.780859	2.778809	2.780859	2.778809	2.777441	2.779492	2.778809	2.778125	2.777441	2.780859
1639558222411	-890.6	-2.928	-461.648	3.71	1.12	-2.45	286.5	-66	3	0	0	2.780859	2.782227	2.778125	2.780176	2.780176	2.778125	2.780859	2.780859	2.777441	2.778125	2.780176	2.778125	2.778125	2.777441	2.778809	2.778809
1639558222421	-960.384	-70.272	-478.24	1.47	0	-1.89	289.5	-69	7.5	0	0	2.782227	2.777441	2.778125	2.78291	2.777441	2.778809	2.778125	2.777441	2.778809	2.778809	2.777441	2.777441	2.777441	2.778125	2.777441	2.780859
1639558222430	-939.4	15.616	-424.072	-0.49	0	0.98	286.5	-69	4.5	0	0	2.778809	2.778809	2.780859	2.778809	2.782227	2.782227	2.778809	2.778809	2.777441	2.778809	2.782227	2.778809	2.780176	2.782227	2.778809	2.780859
1639558222440	-932.08	-14.152	-435.296	0.63	0.28	0.14	286.5	-66	3	0	0	2.778809	2.780176	2.778125	2.782227	2.780176	2.777441	2.777441	2.780176	2.778809	2.776758	2.777441	2.780859	2.781543	2.778125	2.780176	2.780859
1639558222450	-888.16	15.128	-422.12	-1.4	0.35	1.75	294	-69	1.5	0	0	2.778125	2.78291	2.780176	2.777441	2.780176	2.780859	2.782227	2.777441	2.780859	2.778125	2.777441	2.778125	2.780859	2.776758	2.777441	2.778809
1639558222460	-895.968	3.904	-416.752	-1.89	0.14	1.89	298.5	-66	0	0	0	2.780176	2.777441	2.78291	2.778125	2.78291	2.78291	2.782227	2.781543	2.778125	2.778809	2.778125	2.777441	2.777441	2.780859	2.780859	2.777441
1639558222470	-911.096	19.52	-421.632	0.07	0.14	-0.63	292.5	-58.5	4.5	0	0	2.78291	2.777441	2.778809	2.780176	2.777441	2.778809	2.777441	2.780176	2.777441	2.777441	2.778809	2.777441	2.777441	2.780859	2.778809	2.777441
1639558222479	-945.744	-3.416	-448.96	4.34	0.14	-4.13	294	-60	3	0	0	2.78291	2.782227	2.780859	2.782227	2.782227	2.780176	2.777441	2.778809	2.778125	2.777441	2.778125	2.780176	2.780176	2.780176	2.778125	2.778125
1639558222489	-955.504	-34.16	-439.2	3.08	0.28	-2.52	297	-61.5	4.5	0	0	2.777441	2.780859	2.777441	2.78291	2.780176	2.777441	2.780176	2.780859	2.780176	2.778125	2.778125	2.780859	2.780176	2.777441	2.780859	2.780859
1639558222499	-918.416	-25.376	-426.024	0	0.07	1.26	295.5	-64.5	4.5	0	0	2.782227	2.777441	2.781543	2.777441	2.780176	2.778809	2.778809	2.777441	2.777441	2.778125	2.777441	2.778809	2.778809	2.777441	2.777441	2.777441
1639558222509	-914.024	0.488	-425.048	-0.77	0	0.84	294	-64.5	0	0	0	2.78291	2.78291	2.777441	2.780176	2.778809	2.78291	2.782227	2.780176	2.778125	2.781543	2.780859	2.777441	2.777441	2.777441	2.778809	2.778125
1639558222518	-923.296	3.904	-411.384	-0.56	-0.21	-0.07	295.5	-58.5	-1.5	0	0	2.781543	2.778809	2.78291	2.777441	2.780176	2.777441	2.778125	2.780176	2.780176	2.778125	2.778125	2.780176	2.777441	2.776758	2.781543	2.780176
1639558222528	-919.392	18.056	-414.312	1.47	0	0.49	294	-58.5	-1.5	0	0	2.780176	2.777441	2.78291	2.78291	2.782227	2.780176	2.778125	2.777441	2.778809	2.778809	2.777441	2.780176	2.778125	2.777441	2.778125	2.778125
1639558222538	-907.192	6.832	-407.48	2.52	-1.4	-1.33	289.5	-58.5	-1.5	0	0	2.778809	2.780859	2.780859	2.778809	2.778809	2.78291	2.777441	2.782227	2.778125	2.778125	2.778809	2.778125	2.778125	2.780859	2.778125	2.777441
1639558222548	-964.288	-27.328	-489.952	4.83	-0.63	1.05	286.5	-57	1.5	0	0	2.777441	2.780859	2.780859	2.777441	2.780859	2.778809	2.780859	2.778809	2.780176	2.780859	2.777441	2.780176	2.777441	2.780859	2.780859	2.780859
1639558222557	-925.248	-11.224	-445.544	0.56	-0.77	0	289.5	-64.5	0	0	0	2.778809	2.78291	2.778809	2.777441	2.778809	2.780859	2.778125	2.778809	2.779492	2.780176	2.782227	2.777441	2.778809	2.777441	2.778809	2.778809
1639558222567	-948.672	-4.392	-423.096	0.49	-0.21	-0.35	292.5	-66	-1.5	0	0	2.778809	2.777441	2.782227	2.782227	2.780859	2.777441	2.782227	2.778125	2.780176	2.777441	2.776758	2.776074	2.781543	2.780859	2.778125	2.776758
1639558222577	-927.688	-0.976	-427	0.7	0	-0.21	292.5	-55.5	-3	0	0	2.782227	2.777441	2.780176	2.778809	2.780859	2.78291	2.778809	2.776758	2.777441	2.778125	2.778809	2.776758	2.778125	2.777441	2.777441	2.780176
1639558222587	-898.408	7.808	-419.68	1.05	0	0.07	297	-58.5	3	0	0	2.78291	2.78291	2.777441	2.781543	2.778809	2.777441	2.777441	2.780176	2.778125	2.777441	2.778125	2.777441	2.778809	2.780859	2.780176	2.778125
1639558222596	-895.968	8.784	-441.152	1.05	-0.14	-0.49	297	-55.5	3	0	0	2.780176	2.776758	2.778809	2.778809	2.782227	2.780176	2.78291	2.778809	2.778809	2.780176	2.778125	2.778125	2.778125	2.778809	2.781543	2.780176
1639558222606	-924.76	0.488	-436.76	0.49	-0.35	-0.84	292.5	-58.5	-3	0	0	2.777441	2.778809	2.782227	2.78291	2.78291	2.778125	2.782227	2.78291	2.778809	2.780859	2.778809	2.776758	2.778809	2.780859	2.778125	2.780176
1639558222616	-949.16	-2.928	-434.32	0.42	-0.07	-0.91	292.5	-66	-6	0	0	2.780176	2.780176	2.780859	2.778809	2.778809	2.780176	2.780176	2.780176	2.777441	2.777441	2.778809	2.780859	2.780859	2.778125	2.778809	2.780859
1639558222626	-935.008	-27.816	-421.144	0.35	0	-0.56	292.5	-64.5	-6	0	0	2.777441	2.776758	2.770605	2.77334	2.780859	2.778809	2.780176	2.780859	2.775391	2.774707	2.774707	2.776758	2.777441	2.778125	2.778809	2.777441
1639558222636	-927.688	-23.912	-431.88	0.35	-0.07	-0.35	297	-63	1.5	0	0	2.780859	2.778809	2.782227	2.780859	2.780176	2.780859	2.781543	2.778809	2.780859	2.778809	2.777441	2.780859	2.778125	2.778125	2.778809	2.778125
1639558222645	-919.392	-10.248	-432.368	0.49	-0.14	-0.28	295.5	-58.5	6	0	0	2.780176	2.782227	2.780176	2.782227	2.782227	2.782227	2.782227	2.78291	2.778125	2.780859	2.778125	2.777441	2.778125	2.780176	2.777441	2.780176
1639558222655	-927.688	9.76	-441.64	0.49	-0.14	-0.28	292.5	-57	0	0	0	2.780859	2.78291	2.78291	2.78291	2.777441	2.779492	2.778809	2.777441	2.778125	2.777441	2.780176	2.777441	2.778809	2.780859	2.780859	2.776758
1639558222665	-913.536	8.784	-437.248	0.28	0.07	-0.42	289.5	-61.5	0	0	0	2.777441	2.782227	2.780176	2.778125	2.776758	2.780176	2.781543	2.778809	2.777441	2.778809	2.778125	2.777441	2.778809	2.782227	2.778125	2.777441
1639558222675	-921.832	-7.32	-427	0.21	0	-0.49	294	-57	4.5	0	0	2.780176	2.778809	2.780859	2.777441	2.780176	2.778809	2.780859	2.778125	2.776758	2.777441	2.777441	2.777441	2.780859	2.778809	2.777441	2.780859
1639558222684	-915	-16.104	-420.168	0.28	-0.14	-0.56	295.5	-57	3	0	0	2.780176	2.779492	2.780176	2.780859	2.780176	2.778125	2.778809	2.780859	2.777441	2.777441	2.777441	2.780176	2.780859	2.778809	2.782227	2.778125
1639558222694	-912.56	2.928	-412.36	0.56	-0.14	-0.49	292.5	-63	3	0	0	2.778809	2.778125	2.780176	2.777441	2.777441	2.777441	2.777441	2.780859	2.777441	2.778125	2.780176	2.780859	2.780859	2.778809	2.777441	2.777441
1639558222704	-931.592	3.416	-428.464	0.56	-0.28	-0.63	295.5	-60	1.5	0	0	2.778809	2.777441	2.780176	2.780176	2.780176	2.777441	2.777441	2.778125	2.777441	2.777441	2.778125	2.777441	2.780859	2.777441	2.778125	2.778125
1639558222714	-940.376	-0.976	-434.808	0.7	-0.07	-0.35	295.5	-54	-6	0	0	2.780859	2.780176	2.780176	2.780859	2.777441	2.78291	2.777441	2.780859	2.777441	2.777441	2.779492	2.776074	2.777441	2.777441	2.780859	2.777441
1639558222723	-911.584	18.056	-427.488	0.42	-0.14	-0.28	294	-57	-6	0	0	2.78291	2.780176	2.777441	2.782227	2.780176	2.780176	2.780859	2.780859	2.778125	2.777441	2.780176	2.777441	2.780176	2.777441	2.778809	2.778125
1639558222733	-908.656	-5.368	-418.216	0.63	0	-0.7	295.5	-61.5	-1.5	0	0	2.780176	2.782227	2.780176	2.780859	2.782227	2.777441	2.778809	2.612012	2.778125	2.780176	2.780859	2.777441	2.776758	2.778809	2.778809	2.778809
1639558222743	-922.808	-9.76	-447.496	0.56	-0.28	-0.49	295.5	-60	-1.5	0	0	2.780176	2.780176	2.777441	2.778809	2.780176	2.777441	2.778125	2.549121	2.778125	2.777441	2.778809	2.780859	2.778809	2.778125	2.777441	2.780859
1639558222753	-943.304	-8.784	-428.464	0.28	-0.35	-0.7	295.5	-60	-1.5	0	0	2.780176	2.777441	2.780859	2.782227	2.78291	2.78291	2.782227	2.367969	2.778125	2.780859	2.778809	2.778125	2.778809	2.780176	2.778809	2.777441
1639558222762	-931.104	-6.344	-428.464	0.49	-0.14	-0.42	292.5	-58.5	-1.5	0	0	2.778125	2.778809	2.780859	2.777441	2.777441	2.777441	2.780859	2.307129	2.778809	2.780859	2.778125	2.781543	2.778809	2.778809	2.780176	2.778809
1639558222772	-918.904	-23.424	-426.024	0.28	0.07	-0.42	295.5	-66	-6	0	0	2.778809	2.782227	2.780176	2.782227	2.780176	2.778125	2.777441	2.257226	2.778809	2.777441	2.780859	2.780176	2.777441	2.777441	2.780859	2.780176
1639558222782	-910.12	1.952	-432.856	0.35	-0.14	-0.28	300	-69	-7.5	0	0	2.778809	2.778809	2.777441	2.780176	2.782227	2.782227	2.782227	2.197754	2.777441	2.776758	2.778809	2.780176	2.780859	2.777441	2.778125	2.778125
1639558222792	-915	4.88	-424.072	0.35	-0.21	-0.56	300	-66	-9	0	0	2.777441	2.777441	2.780859	2.782227	2.780859	2.778809	2.780176	2.268848	2.777441	2.780859	2.778809	2.780176	2.777441	2.778809	2.778809	2.778125
1639558222802	-927.688	4.88	-436.76	0.49	0	-0.42	294	-61.5	-3	0	0	2.780176	2.780859	2.780176	2.778809	2.778809	2.780176	2.782227	2.178613	2.777441	2.778125	2.778125	2.778809	2.780859	2.780176	2.777441	2.778809
1639558222811	-922.808	7.32	-425.048	0.21	0.07	-0.49	295.5	-57	-1.5	0	0	2.780176	2.778809	2.780176	2.780176	2.778125	2.780176	2.778809	2.119141	2.780176	2.780176	2.778125	2.777441	2.778809	2.777441	2.777441	2.778125
1639558222821	-916.464	-12.688	-416.752	0.42	-0.14	-0.56	292.5	-57	3	0	0	2.777441	2.782227	2.780176	2.782227	2.780859	2.78291	2.78291	2.127344	2.777441	2.780176	2.778809	2.778809	2.780859	2.778125	2.778125	2.777441
1639558222831	-924.76	-6.832	-423.096	0.35	-0.21	-0.49	288	-61.5	4.5	0	0	2.780859	2.777441	2.78291	2.778809	2.78291	2.780859	2.782227	2.043262	2.778809	2.778125	2.777441	2.780859	2.777441	2.782227	2.780859	2.776758
1639558222841	-933.056	-2.44	-427.976	0.49	-0.21	-0.49	291	-60	1.5	0	0	2.777441	2.778125	2.782227	2.777441	2.782227	2.782227	2.777441	1.998145	2.780859	2.777441	2.780859	2.777441	2.778809	2.777441	2.780859	2.777441
1639558222850	-927.2	2.928	-430.904	0.35	-0.14	-0.28	295.5	-57	3	0	0	2.780859	2.778809	2.778809	2.780176	2.777441	2.78291	2.780859	1.944141	2.778125	2.776758	2.777441	2.780859	2.780859	2.780859	2.782227	2.778809
1639558222860	-909.144	-1.464	-429.928	0.35	0.07	-0.35	297	-63	0	0	0	2.782227	2.780176	2.780176	2.777441	2.780176	2.78291	2.783594	1.921582	2.778125	2.778125	2.778809	2.778125	2.777441	2.780176	2.782227	2.777441
1639558222870	-907.192	-2.44	-420.656	0.28	-0.07	-0.63	294	-61.5	-1.5	0	0	2.782227	2.778809	2.782227	2.780176	2.780859	2.780176	2.778809	1.887402	2.778809	2.778809	2.778125	2.778125	2.778809	2.780176	2.777441	2.777441
1639558222880	-928.176	-0.488	-428.464	0.42	-0.14	-0.56	289.5	-55.5	3	0	0	2.780176	2.780859	2.778809	2.781543	2.778125	2.781543	2.780859	1.896289	2.778809	2.778125	2.777441	2.780859	2.777441	2.777441	2.777441	2.780859
1639558222889	-933.544	-8.296	-427	0.28	-0.14	-0.56	295.5	-57	1.5	0	0	2.78291	2.782227	2.78291	2.778809	2.778809	2.778809	2.780859	1.883984	2.777441	2.780859	2.778809	2.778125	2.778125	2.780176	2.778809	2.778809
1639558222899	-928.664	2.44	-430.416	0.35	0.07	-0.35	297	-55.5	0	0	0	2.782227	2.778809	2.777441	2.780176	2.782227	2.777441	2.778809	1.892187	2.777441	2.778125	2.780859	2.778809	2.777441	2.778809	2.778809	2.780176
1639558222909	-907.68	-8.784	-426.024	0.42	0.07	-0.42	294	-57	-1.5	0	0	2.781543	2.780859	2.778809	2.778809	2.780859	2.778809	2.778125	1.875098	2.777441	2.778125	2.778125	2.778125	2.777441	2.777441	2.778125	2.777441
1639558222919	-912.072	9.272	-424.072	0.42	-0.21	-0.35	292.5	-58.5	1.5	0	0	2.777441	2.780176	2.777441	2.778809	2.778809	2.777441	2.780176	1.86416	2.776758	2.778125	2.777441	2.780859	2.780859	2.778809	2.778809	2.780859
1639558222929	-914.024	6.344	-427.976	0.56	-0.14	-0.63	292.5	-60	3	0	0	2.780859	2.777441	2.777441	2.778809	2.777441	2.78291	2.782227	1.877832	2.776758	2.778809	2.778809	2.778809	2.777441	2.777441	2.777441	2.778809
1639558222938	-914.512	1.464	-436.272	0.49	-0.28	-0.56	294	-64.5	1.5	0	0	2.781543	2.778809	2.779492	2.780859	2.778809	2.778809	2.782227	1.903125	2.780859	2.777441	2.777441	2.782227	2.780859	2.780859	2.776758	2.780859
1639558222948	-943.792	-10.248	-434.808	0.42	-0.07	-0.56	295.5	-70.5	4.5	0	0	2.778809	2.78291	2.782227	2.783594	2.782227	2.780859	2.782227	1.93252	2.780859	2.778809	2.777441	2.778125	2.778125	2.780859	2.780859	2.781543
1639558222958	-913.536	-8.784	-413.336	0.42	-0.21	-0.56	294	-69	0	0	0	2.779492	2.778809	2.778809	2.782227	2.780859	2.777441	2.777441	1.955078	2.769238	2.777441	2.778809	2.780176	2.778125	2.777441	2.778809	2.777441
1639558222968	-928.664	-12.2	-427.976	0.56	-0.21	-0.56	294	-63	-1.5	0	0	2.782227	2.781543	2.777441	2.778125	2.780859	2.778809	2.780176	1.930469	2.777441	2.780859	2.776758	2.777441	2.778125	2.780859	2.780859	2.777441
1639558222977	-929.64	-10.248	-431.88	0.42	-0.28	-0.49	298.5	-60	3	0	0	2.780859	2.780176	2.780176	2.782227	2.780176	2.780859	2.778809	1.93252	2.778125	2.778809	2.780859	2.780176	2.780859	2.778809	2.777441	2.778809
1639558222987	-924.76	-1.464	-430.904	0.49	-0.28	-0.42	294	-57	4.5	0	0	2.777441	2.780859	2.780176	2.780859	2.777441	2.778809	2.777441	1.935254	2.778125	2.776758	2.777441	2.778809	2.780176	2.776074	2.778125	2.778125
1639558222997	-925.248	2.44	-430.416	0.49	-0.07	-0.56	295.5	-64.5	7.5	0	0	2.780176	2.780176	2.778809	2.780176	2.78291	2.78291	2.780176	1.913379	2.780176	2.780859	2.776758	2.777441	2.780859	2.777441	2.780176	2.782227
1639558223007	-911.096	-10.248	-429.928	0.42	-0.14	-0.63	297	-66	4.5	0	0	2.781543	2.78291	2.782227	2.778809	2.777441	2.782227	2.780859	1.914063	2.777441	2.778125	2.780859	2.778125	2.778125	2.780859	2.780176	2.780859
1639558223016	-923.296	-4.392	-420.168	0.42	-0.14	-0.7	295.5	-60	-1.5	0	0	2.777441	2.778809	2.782227	2.777441	2.777441	2.777441	2.780176	1.916113	2.778125	2.777441	2.780859	2.778809	2.777441	2.777441	2.777441	2.780176
1639558223026	-927.2	-3.904	-430.904	0.42	-0.21	-0.7	297	-60	0	0	0	2.780176	2.777441	2.777441	2.780859	2.780859	2.778809	2.777441	1.937988	2.780859	2.778809	2.778125	2.777441	2.780859	2.777441	2.777441	2.780859
1639558223036	-931.104	0.976	-422.608	0.35	-0.21	-0.56	294	-54	4.5	0	0	2.782227	2.780176	2.78291	2.777441	2.78291	2.780859	2.778809	1.940723	2.777441	2.780859	2.778809	2.778125	2.777441	2.780859	2.777441	2.778125
1639558223046	-931.104	-5.368	-428.464	0.35	-0.07	-0.42	294	-52.5	0	0	0	2.778125	2.778809	2.778809	2.778125	2.780176	2.778809	2.780176	1.907227	2.777441	2.777441	2.780859	2.780176	2.778809	2.778809	2.777441	2.782227
1639558223055	-917.928	-0.976	-423.584	0.28	-0.21	-0.49	295.5	-58.5	0	0	0	2.782227	2.778809	2.78291	2.780859	2.783594	2.782227	2.781543	1.939355	2.776758	2.778809	2.780859	2.778809	2.776758	2.777441	2.778125	2.777441
1639558223065	-918.416	0.976	-422.608	0.49	-0.21	-0.56	292.5	-69	-1.5	0	0	2.782227	2.780176	2.780176	2.782227	2.780859	2.782227	2.780176	1.989941	2.780176	2.780859	2.778809	2.777441	2.780176	2.778125	2.777441	2.777441
1639558223075	-920.856	-3.904	-436.76	0.49	-0.14	-0.7	291	-64.5	-3	0	0	2.780176	2.777441	2.778809	2.780859	2.778125	2.780859	2.778809	2.017969	2.777441	2.778125	2.777441	2.778125	2.776758	2.780859	2.782227	2.776758
1639558223085	-931.104	-2.44	-432.368	0.28	-0.07	-0.56	294	-60	-1.5	0	0	2.780859	2.78291	2.777441	2.777441	2.780859	2.782227	2.778809	2.048047	2.777441	2.780859	2.780176	2.777441	2.778809	2.777441	2.778125	2.778809
1639558223095	-923.296	-1.952	-429.928	0.21	0	-0.42	295.5	-63	3	0	0	2.780176	2.777441	2.78291	2.780859	2.782227	2.778125	2.777441	2.086328	2.780859	2.777441	2.780859	2.778125	2.777441	2.778125	2.777441	2.777441
1639558223104	-918.416	-7.808	-432.856	0.21	-0.07	-0.49	294	-63	4.5	0	0	2.778809	2.778809	2.778809	2.777441	2.78291	2.778125	2.778809	2.110254	2.782227	2.782227	2.780176	2.778809	2.778809	2.778125	2.778809	2.776758
1639558223114	-923.296	-5.368	-432.368	0.42	0	-0.56	297	-61.5	-1.5	0	0	2.780176	2.782227	2.777441	2.780176	2.780176	2.780859	2.778809	2.138965	2.780859	2.780859	2.780859	2.782227	2.780859	2.777441	2.778809	2.776758
1639558223124	-928.664	-7.808	-435.296	0.42	-0.07	-0.49	289.5	-61.5	-1.5	0	0	2.778809	2.78291	2.778125	2.78291	2.780859	2.780176	2.777441	2.225781	2.780859	2.776758	2.780859	2.777441	2.778809	2.780176	2.777441	2.777441
1639558223134	-919.88	-2.928	-427.488	0.28	0	-0.49	289.5	-61.5	4.5	0	0	2.782227	2.780176	2.777441	2.777441	2.780176	2.782227	2.779492	2.258594	2.780859	2.778809	2.780859	2.777441	2.777441	2.780859	2.780859	2.778809
1639558223143	-927.688	-2.928	-427.488	0.28	-0.14	-0.42	294	-60	4.5	0	0	2.778125	2.782227	2.777441	2.777441	2.780176	2.78291	2.778809	2.25791	2.780859	2.777441	2.780859	2.780176	2.780176	2.780859	2.778809	2.778809
1639558223153	-915	-3.904	-418.704	0.42	-0.21	-0.56	292.5	-60	3	0	0	2.78291	2.777441	2.778809	2.780176	2.778809	2.782227	2.782227	2.24082	2.778125	2.780859	2.778809	2.777441	2.780859	2.777441	2.777441	2.780859
1639558223163	-933.056	-3.416	-427.976	0.49	-0.14	-0.49	285	-66	-3	0	0	2.782227	2.780859	2.782227	2.780176	2.778809	2.78291	2.780176	2.273633	2.778809	2.776758	2.777441	2.777441	2.778809	2.780176	2.778125	2.777441
1639558223173	-928.176	3.416	-427.488	0.49	-0.14	-0.42	294	-66	-4.5	0	0	2.780176	2.778809	2.780176	2.777441	2.781543	2.778125	2.777441	2.275684	2.778125	2.778809	2.780859	2.780859	2.780176	2.780859	2.778125	2.778125
1639558223182	-925.248	-1.952	-426.512	0.42	-0.07	-0.49	295.5	-63	-3	0	0	2.782227	2.777441	2.778809	2.780176	2.780176	2.777441	2.777441	2.348828	2.780859	2.777441	2.778809	2.778125	2.777441	2.778809	2.777441	2.778809
1639558223192	-910.12	-1.464	-423.096	0.42	-0.07	-0.49	294	-60	-1.5	0	0	2.776758	2.782227	2.78291	2.780176	2.780859	2.778809	2.780176	2.482129	2.778125	2.778125	2.780859	2.778125	2.777441	2.780859	2.777441	2.777441
1639558223202	-922.32	-2.928	-427.976	0.28	-0.07	-0.49	295.5	-57	-1.5	0	0	2.777441	2.780176	2.778125	2.778125	2.777441	2.782227	2.777441	2.443164	2.778809	2.782227	2.777441	2.776758	2.780176	2.777441	2.777441	2.778125
1639558223212	-932.08	-2.44	-433.344	0.35	-0.07	-0.56	295.5	-58.5	-6	0	0	2.777441	2.777441	2.780859	2.780859	2.780176	2.78291	2.778125	2.45	2.780176	2.778125	2.778809	2.776758	2.777441	2.777441	2.777441	2.778125
1639558223221	-920.856	-8.296	-428.464	0.35	-0.14	-0.35	300	-64.5	-7.5	0	0	2.782227	2.778809	2.780176	2.780859	2.778125	2.780176	2.777441	2.40625	2.781543	2.777441	2.780176	2.778125	2.777441	2.780859	2.782227	2.780859
1639558223231	-922.808	-8.784	-426.024	0.35	-0.07	-0.42	294	-63	-1.5	0	0	2.777441	2.78291	2.780176	2.777441	2.778809	2.780176	2.777441	2.38916	2.778809	2.778125	2.780176	2.777441	2.777441	2.778809	2.778809	2.777441
1639558223241	-917.928	0	-428.952	0.28	0	-0.49	288	-60	6	0	0	2.777441	2.780176	2.778809	2.780859	2.778125	2.780176	2.778125	2.400098	2.777441	2.782227	2.778125	2.778809	2.781543	2.778809	2.780859	2.777441
1639558223251	-921.344	-2.44	-431.392	0.28	-0.07	-0.49	288	-55.5	-1.5	0	0	2.782227	2.780859	2.778809	2.780859	2.777441	2.778809	2.780859	2.410352	2.782227	2.780859	2.777441	2.777441	2.778125	2.781543	2.778809	2.777441
1639558223261	-924.76	-1.952	-432.368	0.35	-0.14	-0.49	292.5	-51	-1.5	0	0	2.780859	2.778809	2.778809	2.778125	2.780176	2.780176	2.782227	2.41582	2.780859	2.778809	2.780859	2.778809	2.778125	2.776758	2.780859	2.780176
1639558223270	-915.488	-3.904	-435.784	0.35	-0.07	-0.56	297	-58.5	0	0	0	2.780176	2.777441	2.78291	2.780176	2.778125	2.78291	2.777441	2.487598	2.777441	2.776758	2.780859	2.780859	2.778125	2.777441	2.777441	2.780859
1639558223280	-915.976	-1.464	-426.024	0.35	-0.07	-0.49	297	-63	4.5	0	0	2.780176	2.778125	2.771973	2.771973	2.78291	2.778809	2.777441	2.509473	2.778125	2.777441	2.77334	2.780176	2.778809	2.778809	2.780859	2.777441
1639558223290	-919.392	-0.488	-424.072	0.42	0	-0.49	300	-61.5	3	0	0	2.78291	2.780859	2.777441	2.780859	2.780176	2.780859	2.782227	2.572363	2.778809	2.777441	2.778125	2.778125	2.778125	2.778125	2.780176	2.778125
1639558223300	-920.856	-5.856	-428.952	0.49	-0.21	-0.49	295.5	-64.5	0	0	0	2.780176	2.778125	2.78291	2.778125	2.782227	2.778809	2.777441	2.538183	2.778125	2.780176	2.780859	2.780859	2.778809	2.780176	2.780176	2.778125
1639558223309	-919.88	1.464	-427	0.42	-0.07	-0.49	291	-66	-1.5	0	0	2.782227	2.778809	2.780859	2.778809	2.780176	2.780176	2.78291	2.523828	2.777441	2.778809	2.777441	2.780859	2.778125	2.778809	2.778125	2.778125
1639558223319	-918.904	-5.856	-433.832	0.56	-0.14	-0.49	297	-61.5	-1.5	0	0	2.78291	2.780176	2.777441	2.777441	2.778125	2.782227	2.780176	2.493066	2.778809	2.777441	2.780859	2.777441	2.777441	2.777441	2.776758	2.780176
1639558223329	-917.928	-2.44	-428.464	0.35	-0.07	-0.56	298.5	-60	-1.5	0	0	2.782227	2.782227	2.778125	2.778125	2.780859	2.780859	2.777441	2.504004	2.778809	2.778809	2.778125	2.780859	2.780859	2.777441	2.778809	2.777441
1639558223339	-925.248	-7.808	-429.928	0.42	-0.21	-0.42	297	-61.5	-1.5	0	0	2.782227	2.777441	2.782227	2.782227	2.780859	2.780176	2.78291	2.475976	2.780859	2.780859	2.778125	2.780176	2.778809	2.777441	2.780176	2.780859
1639558223348	-930.616	1.464	-430.904	0.35	-0.14	-0.49	300	-66	3	0	0	2.780176	2.783594	2.780176	2.782227	2.782227	2.780176	2.777441	2.506738	2.777441	2.780176	2.782227	2.778125	2.778125	2.780176	2.778809	2.780859
1639558223358	-925.248	-8.296	-430.416	0.35	-0.07	-0.42	294	-63	-1.5	0	0	2.780176	2.780859	2.777441	2.778809	2.778125	2.78291	2.780176	2.473926	2.780859	2.777441	2.776074	2.778809	2.776758	2.778809	2.780859	2.776758
1639558223368	-915.488	-6.832	-427	0.49	-0.07	-0.42	295.5	-57	0	0	0	2.778809	2.780859	2.780176	2.780176	2.782227	2.780859	2.780176	2.495801	2.780176	2.778125	2.778809	2.778809	2.778125	2.777441	2.777441	2.777441
1639558223378	-915.488	-1.952	-427	0.49	-0.14	-0.42	295.5	-57	4.5	0	0	2.782227	2.778809	2.78291	2.778809	2.780176	2.782227	2.780859	2.553223	2.777441	2.776758	2.778809	2.782227	2.780859	2.780859	2.777441	2.778809
1639558223387	-919.88	-3.416	-430.904	0.49	-0.14	-0.56	295.5	-57	0	0	0	2.78291	2.778809	2.777441	2.782227	2.777441	2.782227	2.780859	2.603125	2.777441	2.777441	2.778125	2.778809	2.780176	2.780859	2.778809	2.778809
1639558223397	-919.392	-1.464	-431.88	0.35	-0.14	-0.56	297	-55.5	-7.5	0	0	2.780176	2.780176	2.780176	2.782227	2.778125	2.780859	2.780176	2.583301	2.778809	2.777441	2.777441	2.777441	2.780859	2.780859	2.778809	2.778125
1639558223407	-920.368	-0.488	-426.024	0.42	-0.14	-0.49	292.5	-57	-4.5	0	0	2.777441	2.778125	2.780859	2.780176	2.780176	2.780176	2.778125	2.579883	2.780859	2.778125	2.777441	2.780859	2.778125	2.778809	2.777441	2.777441
1639558223417	-912.56	-5.856	-427	0.35	-0.07	-0.49	291	-61.5	0	0	0	2.778809	2.780176	2.780176	2.780176	2.778809	2.78291	2.777441	2.575098	2.777441	2.778809	2.781543	2.778809	2.778809	2.777441	2.776074	2.782227
1639558223427	-930.616	-6.344	-428.952	0.35	-0.07	-0.42	297	-61.5	-1.5	0	0	2.780176	2.780859	2.780859	2.778809	2.780859	2.777441	2.780859	2.538183	2.778125	2.778809	2.780859	2.778809	2.78291	2.780859	2.778809	2.778809
1639558223436	-918.416	-0.976	-428.952	0.42	-0.14	-0.42	294	-57	0	0	0	2.780176	2.778809	2.778125	2.780176	2.782227	2.777441	2.776758	2.514941	2.778125	2.776758	2.778125	2.778125	2.777441	2.778809	2.778809	2.780176
1639558223446	-917.44	-4.392	-429.928	0.28	-0.07	-0.42	289.5	-55.5	-1.5	0	0	2.782227	2.778809	2.776758	2.778125	2.777441	2.78291	2.781543	2.492383	2.778809	2.776758	2.780176	2.778125	2.778809	2.780176	2.780859	2.778809
1639558223456	-925.248	1.952	-425.536	0.35	-0.07	-0.56	289.5	-61.5	1.5	0	0	2.780176	2.780176	2.778809	2.780176	2.778809	2.778809	2.777441	2.504004	2.777441	2.780859	2.778809	2.776758	2.780176	2.780859	2.780176	2.778809
1639558223466	-921.832	1.464	-426.512	0.28	-0.14	-0.56	295.5	-63	3	0	0	2.780859	2.781543	2.780176	2.778125	2.780176	2.782227	2.778809	2.52041	2.778125	2.778809	2.777441	2.778125	2.777441	2.777441	2.778809	2.777441
1639558223475	-922.808	-3.904	-431.392	0.28	-0.14	-0.42	297	-61.5	1.5	0	0	2.778809	2.778809	2.780859	2.783594	2.780859	2.777441	2.782227	2.469141	2.778125	2.778809	2.778809	2.780859	2.778125	2.778809	2.780176	2.778809
1639558223485	-922.808	2.44	-424.072	0.28	-0.14	-0.49	292.5	-63	-1.5	0	0	2.777441	2.780176	2.781543	2.782227	2.778809	2.78291	2.777441	2.504004	2.778809	2.778809	2.780859	2.776758	2.777441	2.778125	2.777441	2.778809
1639558223495	-922.32	-1.952	-425.536	0.28	-0.07	-0.35	297	-63	-4.5	0	0	2.778125	2.778809	2.780859	2.777441	2.778809	2.778125	2.780176	2.498535	2.777441	2.780859	2.778809	2.776758	2.778125	2.778125	2.776758	2.782227
1639558223505	-917.44	0.488	-427.488	0.28	-0.14	-0.49	298.5	-66	0	0	0	2.778809	2.780859	2.78291	2.782227	2.777441	2.778809	2.778809	2.540234	2.777441	2.778125	2.780859	2.781543	2.777441	2.777441	2.778809	2.777441
1639558223514	-919.88	-4.392	-428.952	0.42	-0.14	-0.63	297	-60	3	0	0	2.780176	2.78291	2.777441	2.777441	2.780176	2.780859	2.778809	2.479394	2.776758	2.778809	2.778125	2.782227	2.780176	2.778809	2.777441	2.777441
1639558223524	-916.952	-1.464	-428.952	0.42	-0.07	-0.49	297	-60	3	0	0	2.778809	2.778809	2.781543	2.782227	2.780859	2.778125	2.78291	2.482129	2.777441	2.780859	2.778809	2.776074	2.782227	2.777441	2.780859	2.780859
1639558223534	-922.32	-2.928	-429.44	0.35	-0.14	-0.49	300	-54	1.5	0	0	2.780176	2.782227	2.780176	2.780176	2.780859	2.782227	2.777441	2.460254	2.780859	2.780176	2.780176	2.780859	2.780859	2.780176	2.777441	2.778809
1639558223544	-923.296	-4.392	-427.488	0.35	-0.21	-0.49	297	-64.5	1.5	0	0	2.782227	2.78291	2.778809	2.780859	2.783594	2.782227	2.782227	2.447266	2.777441	2.778125	2.777441	2.778809	2.778809	2.782227	2.777441	2.777441
1639558223554	-931.104	-3.904	-428.952	0.49	-0.07	-0.56	292.5	-63	-1.5	0	0	2.780176	2.777441	2.777441	2.780176	2.780176	2.777441	2.782227	2.506738	2.780859	2.780176	2.778125	2.780176	2.776758	2.777441	2.780859	2.777441
1639558223563	-923.784	-3.416	-439.2	0.49	0	-0.63	289.5	-60	-1.5	0	0	2.778809	2.782227	2.780176	2.777441	2.780176	2.778809	2.780176	2.497168	2.781543	2.780176	2.778809	2.780859	2.777441	2.778809	2.778809	2.778125
1639558223573	-920.856	-2.928	-431.392	0.49	-0.14	-0.49	292.5	-63	1.5	0	0	2.777441	2.777441	2.778809	2.777441	2.778125	2.778809	2.780176	2.50127	2.778125	2.778125	2.777441	2.777441	2.780859	2.777441	2.777441	2.778809
1639558223583	-918.416	-7.808	-430.904	0.42	-0.07	-0.42	298.5	-63	1.5	0	0	2.782227	2.777441	2.78291	2.780176	2.780176	2.780176	2.778125	2.494434	2.780859	2.778125	2.780176	2.780859	2.778809	2.778809	2.778125	2.777441
1639558223593	-920.368	-4.392	-427.976	0.42	-0.14	-0.42	297	-61.5	6	0	0	2.782227	2.780176	2.777441	2.780176	2.779492	2.78291	2.777441	2.47666	2.776758	2.778125	2.778125	2.777441	2.780176	2.778809	2.778125	2.781543
1639558223602	-923.296	0.976	-429.44	0.35	-0.14	-0.49	295.5	-63	0	0	0	2.776758	2.778125	2.780859	2.78291	2.778125	2.778809	2.777441	2.472558	2.777441	2.780859	2.778809	2.780859	2.766504	2.778809	2.780859	2.778125
1639558223612	-924.76	-1.952	-424.56	0.28	-0.14	-0.49	295.5	-61.5	-3	0	0	2.780176	2.780859	2.777441	2.78291	2.780176	2.778809	2.778809	2.49375	2.780859	2.780176	2.778125	2.780859	2.780859	2.778809	2.780859	2.780859
1639558223622	-924.76	0.488	-424.072	0.42	-0.21	-0.35	291	-57	3	0	0	2.782227	2.780859	2.780176	2.78291	2.778809	2.778809	2.777441	2.506738	2.780859	2.777441	2.777441	2.777441	2.780859	2.778809	2.778125	2.778125
1639558223632	-920.368	-4.88	-427	0.35	-0.14	-0.42	288	-55.5	3	0	0	2.778809	2.778809	2.782227	2.780859	2.778809	2.780176	2.780176	2.47666	2.778809	2.780176	2.778125	2.780176	2.778809	2.777441	2.776758	2.778125
1639558223641	-921.832	0	-422.12	0.42	-0.07	-0.56	289.5	-58.5	3	0	0	2.782227	2.778809	2.778809	2.780176	2.778125	2.78291	2.778809	2.473926	2.780859	2.778125	2.778809	2.780859	2.777441	2.776758	2.778809	2.778125
1639558223651	-921.344	1.464	-425.048	0.56	-0.14	-0.56	294	-64.5	3	0	0	2.780176	2.782227	2.780859	2.780859	2.780859	2.780859	2.778125	2.495801	2.777441	2.778125	2.780859	2.777441	2.778809	2.780859	2.777441	2.777441
1639558223661	-925.248	-6.344	-428.464	0.42	-0.14	-0.56	295.5	-63	0	0	0	2.780176	2.778809	2.782227	2.780859	2.78291	2.778125	2.782227	2.492383	2.780859	2.778809	2.780859	2.780176	2.782227	2.778125	2.778809	2.778809
1639558223671	-923.296	-4.88	-431.392	0.35	-0.14	-0.56	295.5	-60	-3	0	0	2.780176	2.780176	2.777441	2.782227	2.78291	2.782227	2.778125	2.498535	2.778809	2.778125	2.780859	2.778125	2.778809	2.777441	2.778125	2.782227
1639558223680	-919.88	-3.904	-434.32	0.35	-0.21	-0.49	295.5	-63	-1.5	0	0	2.781543	2.778125	2.782227	2.78291	2.778125	2.78291	2.782227	2.473926	2.781543	2.777441	2.778809	2.777441	2.778809	2.780176	2.780176	2.780859
1639558223690	-919.88	0.488	-431.88	0.35	-0.14	-0.63	298.5	-61.5	1.5	0	0	2.780176	2.778809	2.78291	2.778809	2.777441	2.783594	2.778125	2.470508	2.780859	2.780859	2.778125	2.778125	2.778809	2.778809	2.782227	2.781543
1639558223700	-930.128	-6.344	-427	0.42	-0.14	-0.49	297	-60	3	0	0	2.78291	2.777441	2.778125	2.780176	2.778809	2.778125	2.781543	2.445215	2.777441	2.777441	2.780859	2.776758	2.777441	2.78291	2.778125	2.778125
1639558223710	-923.296	-2.928	-427	0.42	-0.14	-0.63	294	-63	0	0	0	2.782227	2.778809	2.780176	2.780859	2.778125	2.780176	2.777441	2.441113	2.778809	2.780176	2.778809	2.778809	2.782227	2.778125	2.780859	2.780176
1639558223720	-924.76	4.88	-424.072	0.42	-0.07	-0.49	291	-64.5	-3	0	0	2.780859	2.777441	2.777441	2.777441	2.782227	2.778809	2.780176	2.438379	2.778809	2.780176	2.780176	2.777441	2.777441	2.778809	2.779492	2.778125
1639558223729	-917.928	-6.344	-426.512	0.49	-0.07	-0.56	289.5	-63	-1.5	0	0	2.777441	2.778125	2.782227	2.780859	2.777441	2.780859	2.78291	2.441113	2.778809	2.780859	2.780859	2.777441	2.778125	2.778125	2.778809	2.782227
1639558223739	-918.904	-4.88	-423.096	0.49	-0.14	-0.63	291	-63	-1.5	0	0	2.777441	2.777441	2.778809	2.778809	2.780176	2.780176	2.778809	2.438379	2.780176	2.776758	2.776758	2.778809	2.778125	2.778125	2.777441	2.777441
1639558223749	-920.856	0.488	-426.024	0.49	-0.07	-0.56	292.5	-60	-3	0	0	2.778125	2.777441	2.780176	2.777441	2.780176	2.778809	2.782227	2.44043	2.780859	2.778809	2.776758	2.776758	2.777441	2.780859	2.777441	2.776758
1639558223759	-926.712	-2.928	-427.488	0.35	-0.14	-0.56	294	-57	3	0	0	2.782227	2.780176	2.777441	2.782227	2.780859	2.777441	2.780859	2.47666	2.776074	2.776758	2.777441	2.777441	2.778809	2.780859	2.780859	2.777441
1639558223768	-922.808	-4.88	-427	0.49	-0.07	-0.49	289.5	-58.5	4.5	0	0	2.777441	2.778809	2.777441	2.778809	2.782227	2.778125	2.778125	2.482812	2.778809	2.777441	2.777441	2.778809	2.782227	2.778809	2.777441	2.778125
1639558223778	-925.248	-8.296	-427	0.35	-0.07	-0.49	300	-61.5	-1.5	0	0	2.782227	2.780176	2.777441	2.778809	2.78291	2.778125	2.778809	2.468457	2.778809	2.780859	2.777441	2.778809	2.778809	2.777441	2.776758	2.780859
1639558223788	-923.296	-2.928	-428.952	0.35	-0.07	-0.56	301.5	-64.5	0	0	0	2.778809	2.777441	2.782227	2.782227	2.778125	2.782227	2.778809	2.46709	2.778125	2.780859	2.777441	2.778125	2.780859	2.778809	2.780176	2.778809
1639558223798	-926.712	-4.392	-427.976	0.35	-0.14	-0.56	295.5	-64.5	3	0	0	2.777441	2.78291	2.777441	2.780859	2.780859	2.780176	2.782227	2.468457	2.780176	2.778809	2.776758	2.777441	2.780859	2.778809	2.780859	2.780859
1639558223807	-935.008	-8.296	-433.344	0.35	-0.07	-0.56	297	-64.5	-1.5	0	0	2.778809	2.782227	2.782227	2.780176	2.78291	2.782227	2.780176	2.471191	2.778125	2.780859	2.777441	2.780859	2.778809	2.777441	2.777441	2.780859
1639558223817	-918.416	2.928	-420.168	-0.07	-0.07	-0.7	289.5	-64.5	1.5	0	0	2.782227	2.78291	2.783594	2.777441	2.782227	2.780859	2.777441	2.475976	2.778125	2.777441	2.777441	2.780176	2.782227	2.778125	2.778809	2.778809
1639558223827	-919.88	0	-441.64	0.35	0.07	-0.7	288	-66	3	0	0	2.778809	2.780176	2.78291	2.777441	2.777441	2.780176	2.780176	2.455469	2.780859	2.779492	2.777441	2.782227	2.777441	2.778809	2.777441	2.780176
1639558223837	-924.76	-4.88	-410.408	-0.35	0	-0.7	292.5	-61.5	-1.5	0	0	2.777441	2.778809	2.778125	2.780859	2.778809	2.777441	2.780176	2.482812	2.777441	2.776758	2.777441	2.780176	2.780176	2.780859	2.782227	2.777441
1639558223846	-919.392	-2.928	-426.512	-0.07	0.21	-0.84	294	-61.5	3	0	0	2.782227	2.78291	2.780859	2.777441	2.782227	2.778125	2.777441	2.514941	2.777441	2.780176	2.777441	2.776074	2.777441	2.780176	2.778809	2.779492
1639558223856	-931.592	-0.976	-438.224	-0.21	0.28	-0.98	291	-64.5	0	0	0	2.777441	2.778809	2.780859	2.780859	2.780176	2.778809	2.778809	2.526562	2.777441	2.778125	2.778809	2.777441	2.780176	2.778809	2.780859	2.780859
1639558223866	-926.712	-6.344	-432.368	0.42	-0.07	-0.49	292.5	-69	-1.5	0	0	2.780176	2.78291	2.782227	2.778809	2.782227	2.777441	2.778809	2.603809	2.778809	2.780176	2.778809	2.778125	2.780859	2.777441	2.778125	2.778809
1639558223876	-925.736	0.488	-428.464	0.35	-0.14	-0.49	297	-67.5	-1.5	0	0	2.780176	2.777441	2.778809	2.777441	2.778809	2.778125	2.777441	2.706348	2.778809	2.780176	2.780176	2.777441	2.778125	2.777441	2.777441	2.777441
1639558223886	-923.296	-3.904	-421.144	0.35	-0.21	-0.42	297	-63	-1.5	0	0	2.782227	2.778809	2.780176	2.778809	2.78291	2.782227	2.782227	2.588769	2.781543	2.778809	2.776758	2.776758	2.781543	2.778809	2.778809	2.776758
1639558223895	-922.808	1.464	-419.68	0.77	-0.14	-0.35	294	-61.5	3	0	0	2.781543	2.778125	2.780859	2.781543	2.782227	2.780859	2.780859	2.577832	2.777441	2.780859	2.779492	2.777441	2.778125	2.780176	2.780176	2.780176
1639558223905	-924.272	-9.76	-427.976	0.77	-0.14	-0.28	294	-61.5	3	0	0	2.780176	2.780859	2.780176	2.780176	2.778809	2.777441	2.778125	2.579883	2.780859	2.778125	2.778125	2.778125	2.780176	2.780859	2.777441	2.777441
1639558223915	-922.808	1.952	-420.168	0.42	-0.21	-0.42	289.5	-60	4.5	0	0	2.778809	2.777441	2.778809	2.782227	2.778809	2.780859	2.780859	2.603125	2.778125	2.777441	2.776758	2.778809	2.780859	2.778125	2.778125	2.777441
1639558223925	-930.128	-5.368	-431.88	0.35	-0.14	-0.42	289.5	-63	1.5	0	0	2.780176	2.78291	2.777441	2.780176	2.780176	2.780176	2.780176	2.583301	2.777441	2.778125	2.776758	2.777441	2.778125	2.780176	2.769922	2.772656
1639558223934	-935.008	-7.808	-432.856	0.07	-0.07	-0.7	292.5	-63	3	0	0	2.781543	2.782227	2.780859	2.778125	2.777441	2.780176	2.778809	2.601758	2.777441	2.782227	2.780859	2.780859	2.780859	2.776758	2.780859	2.778809
1639558223944	-915.488	-12.2	-415.288	0.14	-0.21	-0.49	294	-63	6	0	0	2.778809	2.780176	2.782227	2.780176	2.780859	2.780859	2.780859	2.55459	2.780859	2.776758	2.777441	2.778809	2.780859	2.780859	2.780859	2.777441
1639558223954	-926.712	1.952	-426.512	0	0	-0.7	292.5	-63	-1.5	0	0	2.778125	2.778809	2.778809	2.778809	2.778125	2.78291	2.777441	2.588769	2.778125	2.777441	2.780859	2.776758	2.778125	2.777441	2.777441	2.778125
1639558223964	-935.008	7.32	-419.68	-0.42	-0.07	-0.77	292.5	-63	6	0	0	2.777441	2.778125	2.781543	2.78291	2.778125	2.780176	2.780176	2.608594	2.778809	2.777441	2.779492	2.777441	2.778809	2.778125	2.780859	2.778809
1639558223973	-931.104	-11.224	-427.976	0.35	0	-0.7	295.5	-63	10.5	0	0	2.782227	2.777441	2.782227	2.782227	2.780859	2.782227	2.777441	2.623633	2.778125	2.777441	2.778125	2.777441	2.777441	2.778809	2.778125	2.778809
1639558223983	-909.632	-9.272	-440.664	0.56	-0.49	0.07	294	-61.5	-1.5	0	0	2.780176	2.782227	2.778809	2.778809	2.780176	2.780859	2.778809	2.633203	2.777441	2.780859	2.778809	2.778809	2.780859	2.780176	2.777441	2.781543
1639558223993	-929.64	2.928	-434.808	0.7	-0.07	-0.49	289.5	-61.5	-1.5	0	0	2.778125	2.778809	2.780859	2.778809	2.780176	2.777441	2.78291	2.654394	2.778125	2.781543	2.778809	2.777441	2.778125	2.778809	2.778809	2.780176
1639558224003	-935.984	-0.976	-433.832	0.42	-0.07	-0.49	289.5	-64.5	4.5	0	0	2.782227	2.780176	2.778125	2.777441	2.782227	2.782227	2.780176	2.562109	2.780859	2.777441	2.778125	2.777441	2.776758	2.780176	2.777441	2.780859
1639558224012	-927.688	9.76	-431.392	0.7	-0.14	-0.14	288	-64.5	-3	0	0	2.780176	2.778809	2.777441	2.780176	2.782227	2.782227	2.777441	2.492383	2.780176	2.780859	2.777441	2.780859	2.778809	2.777441	2.777441	2.777441
1639558224022	-918.416	-1.464	-412.848	0.14	-0.28	-0.49	286.5	-66	-3	0	0	2.782227	2.778809	2.777441	2.780176	2.780176	2.780176	2.777441	2.451367	2.778125	2.780859	2.777441	2.780859	2.777441	2.778125	2.778809	2.777441
1639558224032	-932.568	23.424	-414.312	0.07	-0.21	-0.14	289.5	-67.5	3	0	0	2.778809	2.778125	2.780176	2.780859	2.778809	2.780176	2.778809	2.421973	2.777441	2.780859	2.777441	2.780859	2.780859	2.777441	2.780859	2.780859
1639558224042	-918.904	-16.104	-412.36	0.49	0	-0.35	294	-64.5	1.5	0	0	2.78291	2.778125	2.777441	2.781543	2.782227	2.778809	2.778125	2.292773	2.778809	2.780859	2.780176	2.780859	2.778809	2.776074	2.778125	2.778125
1639558224052	-919.392	22.936	-390.888	0.28	0.07	-0.63	294	-55.5	1.5	0	0	2.778809	2.78291	2.777441	2.78291	2.78291	2.780859	2.78291	2.290723	2.777441	2.780859	2.780859	2.777441	2.777441	2.778125	2.779492	2.782227
1639558224061	-928.664	-21.96	-440.664	0.77	0.35	-0.7	294	-60	4.5	0	0	2.778809	2.78291	2.778809	2.778809	2.78291	2.782227	2.780859	2.285938	2.780176	2.778125	2.778125	2.780859	2.780859	2.777441	2.780859	2.780859
1639558224071	-918.904	-11.224	-474.824	1.05	-0.14	-0.35	294	-67.5	-3	0	0	2.778125	2.780859	2.777441	2.778125	2.780859	2.777441	2.778809	2.226465	2.780859	2.778809	2.780859	2.780859	2.777441	2.776758	2.778125	2.778809
1639558224081	-930.128	11.224	-425.048	0.21	-0.35	-0.28	295.5	-60	-1.5	0	0	2.780859	2.782227	2.778809	2.778125	2.778809	2.780859	2.780859	2.132129	2.777441	2.777441	2.777441	2.780859	2.778809	2.778809	2.778125	2.777441
1639558224091	-918.904	7.32	-419.68	0.56	-0.14	-0.56	300	-58.5	3	0	0	2.782227	2.778809	2.777441	2.780176	2.778809	2.78291	2.780859	2.097265	2.780859	2.777441	2.781543	2.782227	2.777441	2.777441	2.781543	2.778125
1639558224100	-918.904	10.736	-419.192	0.42	0	-0.42	297	-60	0	0	0	2.781543	2.777441	2.780859	2.777441	2.778809	2.780859	2.780859	2.040527	2.777441	2.780176	2.780859	2.777441	2.778125	2.782227	2.780176	2.778125
1639558224110	-929.152	-16.592	-442.616	0.42	0.14	-0.49	294	-66	6	0	0	2.780859	2.782227	2.780176	2.780859	2.780176	2.780859	2.780176	1.958496	2.780859	2.780176	2.778809	2.777441	2.778809	2.780176	2.780859	2.777441
1639558224120	-918.904	16.104	-435.784	0.14	-0.42	-0.28	294	-70.5	12	0	0	2.777441	2.780176	2.782227	2.778125	2.780176	2.780176	2.777441	1.870312	2.778809	2.780176	2.780859	2.780176	2.776758	2.778809	2.777441	2.777441
1639558224130	-916.952	-4.392	-409.92	0.21	0	-0.63	295.5	-69	7.5	0	0	2.778809	2.782227	2.778809	2.778809	2.778809	2.782227	2.782227	1.814941	2.778125	2.777441	2.778809	2.778809	2.779492	2.778809	2.778125	2.778125
1639558224139	-920.856	1.464	-443.104	0.7	0.07	-0.35	295.5	-64.5	-1.5	0	0	2.78291	2.778125	2.778809	2.778809	2.780176	2.778809	2.780859	1.781445	2.777441	2.777441	2.780176	2.776758	2.777441	2.777441	2.777441	2.777441
1639558224149	-924.272	-7.32	-430.904	0.21	-0.14	-0.49	291	-55.5	-3	0	0	2.782227	2.780176	2.778809	2.778125	2.778809	2.780859	2.778809	1.745898	2.778809	2.780176	2.778809	2.777441	2.776758	2.780859	2.777441	2.777441
1639558224159	-922.808	3.904	-428.464	0.35	-0.21	-0.28	292.5	-57	-1.5	0	0	2.780176	2.780859	2.780859	2.780176	2.783594	2.780176	2.780859	1.685059	2.778809	2.777441	2.780176	2.779492	2.780859	2.778125	2.780859	2.778125
1639558224169	-902.312	10.736	-424.072	0.35	-0.07	-0.42	291	-61.5	6	0	0	2.780176	2.780176	2.780176	2.780859	2.778809	2.784961	2.778809	1.612598	2.780176	2.780176	2.778809	2.778125	2.778125	2.778125	2.778809	2.777441
1639558224179	-926.712	-8.784	-420.656	0.21	0	-0.77	289.5	-58.5	4.5	0	0	2.782227	2.778125	2.778809	2.780176	2.778809	2.780859	2.780859	1.503223	2.780176	2.778809	2.777441	2.782227	2.777441	2.777441	2.778809	2.778809
1639558224188	-921.832	-7.32	-438.224	0.49	0	-0.28	292.5	-58.5	-1.5	0	0	2.78291	2.780859	2.777441	2.780176	2.78291	2.780176	2.780859	1.4875	2.780176	2.780859	2.780859	2.781543	2.778125	2.778809	2.780176	2.778125
1639558224198	-920.856	-10.736	-421.632	0.07	-0.14	-0.49	295.5	-63	-1.5	0	0	2.783594	2.780176	2.780859	2.780176	2.782227	2.780176	2.782227	1.388379	2.780859	2.778125	2.777441	2.780176	2.778125	2.778125	2.777441	2.778125
1639558224208	-931.592	-16.592	-429.44	0.42	0.07	-0.63	292.5	-66	1.5	0	0	2.780859	2.78291	2.778809	2.782227	2.780859	2.778125	2.780176	1.323437	2.780859	2.777441	2.777441	2.778809	2.778125	2.777441	2.780176	2.780859
1639558224218	-935.984	-12.688	-439.2	0.56	0	-0.7	297	-60	-1.5	0	0	2.780859	2.780176	2.781543	2.778809	2.777441	2.778809	2.778809	1.300879	2.780176	2.780859	2.781543	2.781543	2.778809	2.778809	2.778809	2.780859
1639558224227	-893.528	-2.928	-429.928	0.21	-0.14	-0.35	300	-63	0	0	0	2.780176	2.778809	2.780859	2.78291	2.780859	2.782227	2.78291	1.252344	2.777441	2.778125	2.777441	2.778809	2.778125	2.778809	2.780176	2.778125
1639558224237	-900.36	0.488	-403.576	0.07	-0.07	-0.35	289.5	-66	9	0	0	2.782227	2.780176	2.778809	2.782227	2.778809	2.78291	2.782227	1.199023	2.777441	2.778125	2.776758	2.780176	2.780859	2.778125	2.778809	2.777441
1639558224247	-931.104	16.104	-443.592	0.7	0.14	-0.28	285	-67.5	10.5	0	0	2.78291	2.78291	2.782227	2.778809	2.78291	2.780859	2.781543	1.181934	2.777441	2.781543	2.776758	2.777441	2.780859	2.780176	2.777441	2.782227
1639558224257	-944.768	-0.976	-398.208	0.14	0.07	-0.49	289.5	-67.5	3	0	0	2.780859	2.778809	2.778809	2.778125	2.778809	2.780176	2.780859	1.159375	2.777441	2.778125	2.777441	2.771289	2.778809	2.777441	2.780859	2.778809
1639558224266	-926.224	-4.392	-436.272	0.49	0.07	-0.63	289.5	-64.5	1.5	0	0	2.780176	2.780859	2.78291	2.777441	2.782227	2.780176	2.778809	1.140918	2.778809	2.776074	2.778125	2.780176	2.778809	2.778809	2.780859	2.781543
1639558224276	-922.32	-5.856	-444.08	0.42	-0.14	-0.49	295.5	-61.5	1.5	0	0	2.782227	2.778125	2.780176	2.777441	2.782227	2.780176	2.778809	1.116309	2.777441	2.780176	2.778125	2.778809	2.778809	2.782227	2.782227	2.780176
1639558224286	-923.784	0	-420.168	0.14	-0.21	-0.56	295.5	-61.5	1.5	0	0	2.780176	2.777441	2.782227	2.777441	2.78291	2.778809	2.782227	1.109473	2.782227	2.778125	2.780859	2.779492	2.778809	2.780859	2.777441	2.777441
1639558224296	-919.88	7.808	-435.784	0.56	-0.07	-0.35	298.5	-61.5	0	0	0	2.780176	2.780859	2.778809	2.777441	2.780176	2.777441	2.780859	1.109473	2.777441	2.777441	2.778125	2.777441	2.780859	2.780176	2.777441	2.778809
1639558224305	-926.712	-11.712	-439.2	0.35	-0.14	-0.56	297	-64.5	-1.5	0	0	2.780859	2.777441	2.780176	2.778809	2.777441	2.777441	2.780176	1.075976	2.777441	2.777441	2.776758	2.778809	2.778125	2.781543	2.780859	2.778125
1639558224315	-924.76	-2.44	-421.144	0.28	-0.21	-0.49	291	-61.5	-1.5	0	0	2.780859	2.78291	2.780176	2.780859	2.778125	2.78291	2.78291	1.145703	2.777441	2.777441	2.778809	2.777441	2.780859	2.776758	2.778809	2.780176
1639558224325	-924.76	-1.952	-426.512	0.56	-0.14	-0.42	286.5	-61.5	0	0	0	2.780859	2.78291	2.782227	2.778809	2.777441	2.780176	2.78291	1.153906	2.778809	2.778125	2.781543	2.778809	2.778809	2.778809	2.780859	2.778809
1639558224335	-931.104	-7.32	-429.928	0.35	-0.14	-0.56	288	-60	0	0	0	2.780859	2.780176	2.78291	2.778809	2.780176	2.777441	2.78291	1.214746	2.780859	2.776758	2.777441	2.781543	2.779492	2.780859	2.777441	2.780176
1639558224345	-922.32	6.344	-425.536	0.28	-0.28	-0.28	295.5	-54	-1.5	0	0	2.778125	2.780859	2.78291	2.780859	2.778809	2.780176	2.780859	1.213379	2.778125	2.780859	2.780176	2.776758	2.778809	2.780859	2.777441	2.777441
1639558224354	-908.168	-0.976	-433.344	0.63	0	-0.21	297	-57	4.5	0	0	2.780176	2.777441	2.778125	2.778809	2.78291	2.78291	2.780859	1.270801	2.777441	2.777441	2.780859	2.778809	2.778809	2.778125	2.777441	2.777441
1639558224364	-933.544	0	-423.096	0.56	-0.21	-0.28	297	-60	6	0	0	2.778125	2.780176	2.782227	2.778809	2.780176	2.777441	2.780859	1.422559	2.782227	2.780859	2.778125	2.780859	2.777441	2.780176	2.778809	2.782227
1639558224374	-924.76	-2.928	-417.24	0.91	-0.14	-0.07	297	-60	-3	0	0	2.780859	2.780859	2.778809	2.782227	2.782227	2.780859	2.781543	1.486133	2.777441	2.778809	2.780859	2.780859	2.777441	2.777441	2.777441	2.780859
1639558224384	-922.32	-9.76	-438.224	0.84	0	-0.14	292.5	-61.5	-1.5	0	0	2.778809	2.777441	2.782227	2.780176	2.780176	2.782227	2.780859	1.543555	2.778125	2.777441	2.778809	2.780176	2.780176	2.780859	2.778809	2.778809
1639558224393	-925.248	-21.472	-428.464	1.4	-0.14	0.28	288	-60	0	0	0	2.780859	2.782227	2.777441	2.780176	2.780176	2.778125	2.782227	1.632422	2.777441	2.777441	2.777441	2.778125	2.780859	2.778809	2.778809	2.777441
1639558224403	-932.568	2.928	-414.8	1.54	0.49	2.31	292.5	-64.5	1.5	0	0	2.782227	2.778125	2.780859	2.78291	2.78291	2.780859	2.777441	1.758203	2.777441	2.777441	2.781543	2.780859	2.778809	2.780176	2.778125	2.777441
1639558224413	-974.048	2.928	-380.64	1.61	1.33	4.06	292.5	-57	10.5	0	0	2.780859	2.780176	2.78291	2.777441	2.777441	2.780859	2.78291	1.883301	2.780859	2.777441	2.777441	2.777441	2.780859	2.778809	2.782227	2.780859
1639558224423	-982.832	-13.664	-399.184	1.68	-0.7	12.25	292.5	-55.5	7.5	0	0	2.782227	2.780859	2.780176	2.778125	2.777441	2.778809	2.780859	2.077441	2.780859	2.782227	2.778809	2.777441	2.778809	2.777441	2.780859	2.778809
1639558224432	-936.472	-3.904	-398.696	8.12	1.4	10.08	294	-64.5	6	0	0	2.780176	2.778125	2.780176	2.778809	2.78291	2.778809	2.780176	2.778125	2.777441	2.777441	2.778809	2.780859	2.777441	2.778809	2.780176	2.777441
1639558224442	-915	51.24	-358.192	11.97	-1.26	15.05	295.5	-60	1.5	0	0	2.780176	2.778809	2.782227	2.778809	2.777441	2.782227	2.78291	2.778125	2.776758	2.777441	2.780176	2.777441	2.780176	2.777441	2.778809	2.778125
1639558224452	-979.416	18.544	-333.304	5.32	0.35	21.84	292.5	-60	-9	0	0	2.78291	2.778125	2.780176	2.780176	2.778809	2.778125	2.782227	2.777441	2.781543	2.778125	2.776758	2.780859	2.778125	2.780859	2.777441	2.778125
1639558224462	-952.576	-53.192	-427.976	9.59	2.03	17.57	291	-58.5	-4.5	0	0	2.781543	2.778809	2.780859	2.778809	2.780859	2.780859	2.777441	2.780176	2.777441	2.778125	2.780859	2.778125	2.778125	2.778125	2.778125	2.782227
1639558224471	-815.448	-24.4	-288.408	13.51	-7.7	-1.19	288	-61.5	-3	0	0	2.778809	2.78291	2.78291	2.777441	2.777441	2.778809	2.78291	2.78291	2.778809	2.781543	2.777441	2.777441	2.777441	2.777441	2.780859	2.777441
1639558224481	-1047.248	43.432	-467.016	28.7	8.61	-3.29	286.5	-67.5	-3	0	0	2.776758	2.777441	2.782227	2.780859	2.778125	2.780176	2.778809	2.782227	2.777441	2.780859	2.777441	2.776758	2.777441	2.778125	2.780859	2.778125
1639558224491	-1239.032	-40.992	-478.24	20.16	15.61	-9.66	286.5	-66	9	0	0	2.780176	2.780859	2.780859	2.780859	2.777441	2.778809	2.778809	2.778809	2.780176	2.778125	2.778809	2.777441	2.777441	2.778125	2.777441	2.781543
1639558224501	-963.8	-53.68	-496.784	13.44	0.28	8.26	288	-60	10.5	0	0	2.778809	2.778125	2.780859	2.778125	2.780859	2.777441	2.780859	2.777441	2.782227	2.778125	2.778125	2.777441	2.779492	2.782227	2.778809	2.778809
1639558224511	-903.776	25.376	-480.68	4.41	-0.7	1.12	291	-55.5	0	0	0	2.780859	2.780859	2.780859	2.777441	2.780176	2.780859	2.777441	2.777441	2.778809	2.777441	2.780859	2.782227	2.780859	2.777441	2.780859	2.777441
1639558224520	-870.592	80.52	-483.12	10.29	-2.45	-2.17	286.5	-57	4.5	0	0	2.777441	2.780859	2.780859	2.780176	2.780176	2.780859	2.777441	2.778125	2.778809	2.778809	2.777441	2.778809	2.780859	2.782227	2.780859	2.778809
1639558224530	-970.144	-24.888	-503.128	10.36	0.98	-4.06	289.5	-60	10.5	0	0	2.777441	2.778125	2.783594	2.777441	2.778125	2.78291	2.780859	2.782227	2.781543	2.777441	2.778809	2.778125	2.778809	2.778809	2.777441	2.778809
1639558224540	-966.24	0	-456.768	6.44	-0.63	-2.8	291	-54	6	0	0	2.777441	2.780859	2.777441	2.782227	2.778809	2.778809	2.777441	2.778809	2.780859	2.777441	2.777441	2.777441	2.778809	2.778809	2.781543	2.778809
1639558224550	-894.504	36.112	-436.272	4.34	-2.66	-2.52	288	-52.5	3	0	0	2.778809	2.780859	2.778809	2.780176	2.778809	2.780176	2.780176	2.78291	2.777441	2.780859	2.777441	2.778125	2.782227	2.777441	2.777441	2.778809
1639558224559	-853.512	22.936	-484.096	2.66	0.84	4.48	288	-54	1.5	0	0	2.778809	2.780176	2.780176	2.780859	2.780176	2.780859	2.780176	2.778125	2.780859	2.778809	2.778809	2.778809	2.777441	2.777441	2.777441	2.778809
1639558224569	-885.72	20.496	-466.528	-0.35	0.07	0.98	289.5	-58.5	1.5	0	0	2.778125	2.783594	2.778809	2.78291	2.778809	2.778809	2.778809	2.782227	2.780859	2.778809	2.780176	2.778125	2.776758	2.778125	2.778809	2.776758
1639558224579	-924.76	-7.32	-445.544	1.12	-0.14	-2.03	291	-63	4.5	0	0	2.771973	2.770605	2.782227	2.77334	2.778809	2.780859	2.780859	2.777441	2.775391	2.77334	2.777441	2.777441	2.778809	2.777441	2.778809	2.776758
1639558224589	-918.416	3.904	-433.832	-0.07	-0.28	0.42	286.5	-60	3	0	0	2.782227	2.780176	2.780176	2.780859	2.78291	2.780859	2.777441	2.780859	2.780176	2.777441	2.780859	2.780859	2.777441	2.780176	2.778125	2.777441
1639558224598	-916.952	7.32	-426.512	0.42	-0.28	-0.42	285	-54	3	0	0	2.781543	2.780859	2.778809	2.780176	2.778125	2.778125	2.780859	2.778809	2.778809	2.780859	2.776758	2.780859	2.777441	2.778809	2.778809	2.778809
1639558224608	-925.248	-0.488	-428.464	0.84	-0.21	-1.54	283.5	-55.5	6	0	0	2.780176	2.778125	2.777441	2.780859	2.780176	2.777441	2.778125	2.780859	2.780859	2.778125	2.778809	2.777441	2.780859	2.778809	2.777441	2.780859
1639558224618	-928.176	-8.784	-427.976	0.42	0	-0.56	291	-60	3	0	0	2.778809	2.780176	2.780859	2.777441	2.780176	2.778809	2.778809	2.778125	2.776758	2.778809	2.777441	2.777441	2.778809	2.780859	2.778809	2.778809
