/**
 * General Information:
 * 	UI version: 1.0
 * Device information:
 * 	Id: Mitch_2
 * 	Hardware Version: 2.0
 * 	Firmware Version: 5.3.0
 * Acquisition Information:
 * 	Mode: MIMU + Pressure Insole + Distance Sensors
 * 	Sampling frequency: 100Hz
 * 	Axl_FS: 16g
 * 	Gyro_FS: 2000dps
 * 	Magn_FS: 50Gauss
 * 	DS1_FS: 0mm
 * 	DS1_Offset: 0mm
 * 	DS2_FS: 0mm
 * 	DS2_Offset: 0mm
 */
Timestamp	Acc.X	Acc.Y	Acc.Z	Gyro.X	Gyro.Y	Gyro.Z	Magn.X	Magn.Y	Magn.Z	Distance.1	Distance.2	P.0	P.1	P.2	P.3	P.4	P.5	P.6	P.7	P.8	P.9	P.10	P.11	P.12	P.13	P.14	P.15
(ms)	(mG)	(mG)	(mG)	(dps)	(dps)	(dps)	(mGauss)	(mGauss)	(mGauss)	(mm)	(mm)	(V)	(V)	(V)	(V)	(V)	(V)	(V)	(V)	(V)	(V)	(V)	(V)	(V)	(V)	(V)	(V)
1639558929926	-126.88	14.64	997.96	-1.96	5.25	0	459	-46.5	-451.5	0	0	2.780859	2.780859	2.780176	2.780859	2.780859	2.778809	2.783594	2.780176	2.778809	2.776758	2.778809	2.777441	2.780859	2.778809	2.780859	2.780176
1639558929935	-131.272	16.592	1000.888	29.82	121.52	-57.82	-22.5	-180	-112.5	0	0	2.776758	2.776758	2.778809	2.780176	2.777441	2.78291	2.780859	2.780176	2.776758	2.780176	2.782227	2.780859	2.778809	2.782227	2.780176	2.778809
1639558929945	-123.952	17.08	999.912	-19.25	-24.15	13.51	-18	-178.5	-118.5	0	0	2.780859	2.782227	2.780176	2.783594	2.780176	2.783594	2.782227	2.78291	2.780176	2.780176	2.776758	2.776758	2.780859	2.777441	2.780176	2.780176
1639558929955	-127.368	14.64	996.008	-17.15	-25.83	12.95	-16.5	-180	-120	0	0	2.777441	2.777441	2.783594	2.778809	2.780176	2.780176	2.780859	2.783594	2.778809	2.780859	2.778809	2.78291	2.777441	2.780859	2.777441	2.780176
1639558929965	-124.928	14.64	1001.376	-0.7	-1.19	-0.07	-18	-178.5	-114	0	0	2.782227	2.780859	2.778809	2.780176	2.776758	2.780176	2.781543	2.780176	2.777441	2.778809	2.780859	2.777441	2.777441	2.776074	2.778809	2.780176
1639558929974	-120.536	6.832	1002.84	-0.49	-0.91	-0.28	-18	-175.5	-114	0	0	2.780176	2.782227	2.780176	2.780859	2.780176	2.780176	2.777441	2.778809	2.778809	2.778809	2.778125	2.780859	2.778809	2.778125	2.777441	2.777441
1639558929984	-126.88	13.176	1000.888	-0.42	-1.19	-0.21	-19.5	-178.5	-117	0	0	2.780859	2.783594	2.780176	2.783594	2.778809	2.778809	2.780176	2.778809	2.778125	2.776758	2.777441	2.780859	2.777441	2.778125	2.778809	2.778125
1639558929994	-120.536	13.664	1003.328	-0.56	-1.19	-0.07	-25.5	-177	-115.5	0	0	2.78291	2.777441	2.780176	2.778809	2.778809	2.780176	2.782227	2.780176	2.778125	2.780859	2.778809	2.778809	2.778809	2.780176	2.780176	2.780859
1639558930004	-128.344	16.592	1000.888	-0.49	-1.05	-0.21	-22.5	-177	-114	0	0	2.780176	2.78291	2.782227	2.78291	2.777441	2.777441	2.780859	2.782227	2.778809	2.780176	2.778125	2.778809	2.776758	2.776758	2.781543	2.777441
1639558930013	-125.416	14.152	1002.352	-0.56	-0.84	-0.21	-21	-180	-117	0	0	2.780176	2.778809	2.780176	2.780859	2.777441	2.782227	2.780859	2.780859	2.780176	2.780176	2.778809	2.776758	2.780859	2.777441	2.780859	2.777441
1639558930023	-121.024	17.568	996.984	-0.35	-0.84	-0.14	-18	-181.5	-118.5	0	0	2.778809	2.779492	2.780176	2.780176	2.78291	2.780176	2.783594	2.780176	2.780176	2.778809	2.777441	2.780859	2.780859	2.777441	2.782227	2.780859
1639558930033	-129.808	13.664	998.936	-0.49	-1.05	-0.21	-18	-178.5	-115.5	0	0	2.778809	2.780859	2.777441	2.778809	2.780176	2.782227	2.777441	2.777441	2.778809	2.781543	2.780176	2.780859	2.780176	2.778809	2.776758	2.776758
1639558930043	-127.368	16.104	1000.4	-0.49	-0.84	-0.21	-21	-177	-117	0	0	2.780859	2.777441	2.778809	2.778809	2.782227	2.778809	2.780859	2.778809	2.780176	2.778809	2.778125	2.778809	2.778809	2.780176	2.777441	2.780859
1639558930053	-127.368	22.936	1003.328	-0.56	-0.91	-0.14	-21	-177	-115.5	0	0	2.776758	2.780859	2.780176	2.780176	2.778809	2.778809	2.778809	2.778809	2.780176	2.776758	2.777441	2.777441	2.777441	2.780859	2.780859	2.777441
1639558930062	-124.928	13.176	1004.792	-0.56	-1.26	-0.28	-18	-180	-115.5	0	0	2.778809	2.782227	2.777441	2.780176	2.780176	2.778809	2.777441	2.777441	2.777441	2.778125	2.777441	2.778125	2.778125	2.778809	2.776758	2.777441
1639558930072	-128.832	11.224	1000.4	-0.49	-1.33	-0.28	-15	-184.5	-115.5	0	0	2.780176	2.782227	2.780176	2.780176	2.777441	2.777441	2.780176	2.782227	2.780859	2.780176	2.778125	2.777441	2.780176	2.778809	2.778809	2.778809
1639558930082	-121.512	12.2	1003.328	-0.49	-1.33	-0.21	-16.5	-180	-115.5	0	0	2.780859	2.777441	2.78291	2.780176	2.776758	2.777441	2.778809	2.782227	2.777441	2.777441	2.778125	2.778125	2.778809	2.780859	2.778809	2.778809
1639558930092	-125.416	13.176	1000.888	-0.63	-1.33	-0.21	-19.5	-177	-117	0	0	2.778809	2.778809	2.780176	2.774707	2.782227	2.78291	2.778809	2.782227	2.780859	2.775391	2.772656	2.770605	2.777441	2.778809	2.780859	2.777441
1639558930101	-126.88	13.176	1002.352	-0.56	-1.12	-0.21	-16.5	-177	-118.5	0	0	2.783594	2.780176	2.777441	2.780176	2.780176	2.78291	2.780176	2.780859	2.780859	2.778125	2.780859	2.777441	2.780859	2.780859	2.778809	2.776758
1639558930111	-125.904	11.224	1001.376	-0.42	-0.7	-0.28	-16.5	-177	-120	0	0	2.782227	2.782227	2.780859	2.780859	2.778809	2.777441	2.777441	2.780176	2.778125	2.778809	2.780859	2.777441	2.780859	2.777441	2.778125	2.777441
1639558930121	-128.832	8.784	998.936	-0.35	-0.63	-0.28	-21	-178.5	-118.5	0	0	2.780176	2.780176	2.782227	2.780176	2.782227	2.777441	2.780859	2.780176	2.780176	2.777441	2.777441	2.780176	2.778809	2.780859	2.778125	2.780859
1639558930131	-129.808	11.224	1007.72	-0.35	-0.28	-0.21	-22.5	-180	-114	0	0	2.778809	2.780176	2.780176	2.780859	2.780859	2.78291	2.777441	2.778809	2.778809	2.777441	2.778809	2.777441	2.778125	2.777441	2.776758	2.778125
1639558930140	-125.904	12.2	1001.864	-0.35	-0.28	-0.21	-15	-178.5	-115.5	0	0	2.778809	2.778809	2.780859	2.782227	2.777441	2.780859	2.780176	2.780859	2.782227	2.780859	2.780859	2.777441	2.782227	2.781543	2.780176	2.777441
1639558930150	-126.392	15.616	997.96	-0.42	-0.49	-0.28	-13.5	-180	-118.5	0	0	2.778809	2.78291	2.782227	2.780176	2.780176	2.78291	2.777441	2.780859	2.778125	2.778809	2.779492	2.777441	2.778809	2.778809	2.777441	2.778809
1639558930160	-127.368	20.008	996.984	-0.42	-0.63	-0.28	-19.5	-177	-117	0	0	2.780176	2.780859	2.780859	2.780859	2.782227	2.780859	2.78291	2.779492	2.776758	2.777441	2.777441	2.777441	2.777441	2.778125	2.778125	2.777441
1639558930170	-127.368	14.152	995.52	-0.49	-1.26	-0.21	-21	-180	-114	0	0	2.778809	2.778809	2.780176	2.777441	2.780176	2.782227	2.780176	2.782227	2.778125	2.778809	2.780176	2.780859	2.778125	2.777441	2.780859	2.777441
1639558930179	-122.976	18.544	996.496	-0.7	-1.89	-0.21	-22.5	-180	-118.5	0	0	2.78291	2.780859	2.778809	2.780176	2.782227	2.780859	2.780176	2.780176	2.778125	2.780859	2.780859	2.777441	2.777441	2.777441	2.780176	2.776758
1639558930189	-126.88	21.472	996.496	-0.63	-2.03	-0.21	-19.5	-181.5	-117	0	0	2.782227	2.780176	2.777441	2.780176	2.780176	2.777441	2.778809	2.78291	2.778809	2.778125	2.777441	2.777441	2.778809	2.778809	2.778809	2.778809
1639558930199	-126.392	17.568	996.984	-0.63	-1.68	-0.35	-24	-183	-114	0	0	2.780859	2.780176	2.780176	2.78291	2.780176	2.780176	2.782227	2.780176	2.780176	2.780176	2.782227	2.780859	2.778125	2.781543	2.778125	2.780176
1639558930209	-121.512	20.008	1001.376	-0.49	-1.54	-0.28	-27	-180	-111	0	0	2.780859	2.780859	2.777441	2.782227	2.780859	2.780859	2.782227	2.782227	2.778125	2.777441	2.777441	2.780859	2.777441	2.782227	2.778125	2.778809
1639558930219	-122.976	16.592	1000.888	-0.49	-0.91	-0.14	-24	-180	-114	0	0	2.782227	2.782227	2.778809	2.782227	2.782227	2.780859	2.78291	2.780176	2.777441	2.780859	2.778809	2.781543	2.780859	2.778125	2.777441	2.776758
1639558930228	-123.464	14.152	997.96	-0.42	-0.42	-0.21	-19.5	-181.5	-120	0	0	2.778809	2.776758	2.782227	2.778809	2.780176	2.783594	2.778809	2.78291	2.778809	2.780859	2.780859	2.782227	2.778809	2.778809	2.781543	2.777441
1639558930238	-123.952	8.784	998.448	-0.35	-0.35	-0.14	-10.5	-178.5	-114	0	0	2.780176	2.782227	2.782227	2.780176	2.782227	2.782227	2.782227	2.780859	2.778809	2.780176	2.780176	2.780176	2.778809	2.777441	2.777441	2.777441
1639558930248	-125.904	11.712	1000.888	-0.42	-0.35	-0.14	-16.5	-181.5	-118.5	0	0	2.778809	2.78291	2.782227	2.778809	2.780176	2.78291	2.780176	2.780176	2.778125	2.778809	2.780859	2.780176	2.782227	2.778125	2.780859	2.780859
1639558930258	-124.44	15.616	1001.376	-0.49	-0.49	-0.21	-25.5	-184.5	-121.5	0	0	2.778809	2.777441	2.780176	2.778809	2.780176	2.780176	2.778809	2.780176	2.778125	2.781543	2.778809	2.778125	2.780859	2.780176	2.780859	2.778809
1639558930267	-124.44	20.984	994.544	-0.49	-0.7	-0.28	-16.5	-180	-111	0	0	2.779492	2.777441	2.780859	2.780859	2.778809	2.778809	2.778809	2.780176	2.778809	2.778125	2.778125	2.776758	2.777441	2.779492	2.778125	2.780859
1639558930277	-128.832	15.616	1000.4	-0.42	-0.84	-0.14	-13.5	-175.5	-106.5	0	0	2.778809	2.780859	2.780176	2.783594	2.780859	2.780859	2.777441	2.778809	2.777441	2.778809	2.780859	2.777441	2.778125	2.777441	2.777441	2.778809
1639558930287	-130.784	12.2	1003.816	-0.56	-1.05	-0.21	-13.5	-178.5	-118.5	0	0	2.78291	2.780176	2.778809	2.777441	2.777441	2.780176	2.782227	2.780859	2.777441	2.778809	2.780176	2.782227	2.778809	2.778125	2.776758	2.780859
1639558930297	-126.392	7.32	996.984	-0.63	-1.4	-0.35	-12	-180	-121.5	0	0	2.778809	2.780859	2.778809	2.782227	2.777441	2.782227	2.78291	2.782227	2.778809	2.777441	2.777441	2.780859	2.782227	2.780859	2.777441	2.778809
1639558930306	-126.392	14.152	1001.376	-0.49	-1.68	-0.28	-16.5	-175.5	-121.5	0	0	2.777441	2.777441	2.782227	2.781543	2.782227	2.78291	2.777441	2.780176	2.780176	2.780859	2.780176	2.780859	2.778809	2.777441	2.778809	2.777441
1639558930316	-127.368	17.08	1000.4	-0.63	-1.89	-0.21	-19.5	-177	-117	0	0	2.777441	2.780176	2.783594	2.780176	2.778809	2.777441	2.782227	2.78291	2.777441	2.780176	2.776758	2.780176	2.780859	2.778125	2.780859	2.777441
1639558930326	-122	14.152	998.448	-0.63	-1.54	-0.14	-18	-180	-115.5	0	0	2.782227	2.782227	2.780176	2.780859	2.778809	2.778125	2.780176	2.780859	2.777441	2.777441	2.780859	2.780859	2.777441	2.778809	2.780176	2.778809
1639558930336	-122.488	13.176	1004.304	-0.49	-1.19	-0.21	-22.5	-181.5	-120	0	0	2.780176	2.778809	2.780859	2.778809	2.780176	2.777441	2.783594	2.782227	2.778125	2.777441	2.782227	2.782227	2.780859	2.776758	2.777441	2.777441
1639558930346	-126.392	17.08	1007.232	-0.49	-0.77	-0.21	-24	-184.5	-118.5	0	0	2.780176	2.780176	2.780859	2.778809	2.780176	2.778809	2.780859	2.778809	2.780176	2.780859	2.778125	2.778125	2.780859	2.778809	2.780859	2.778809
1639558930355	-125.416	20.984	1004.304	-0.42	-0.49	-0.21	-24	-183	-118.5	0	0	2.778809	2.778809	2.780176	2.781543	2.780859	2.78291	2.777441	2.780859	2.780176	2.778125	2.778809	2.780859	2.780859	2.781543	2.781543	2.777441
1639558930365	-124.44	14.64	1000.888	-0.35	-0.35	-0.21	-21	-180	-114	0	0	2.778809	2.778809	2.780859	2.778809	2.776758	2.78291	2.776758	2.780859	2.780859	2.780859	2.780859	2.778125	2.778809	2.776758	2.778809	2.780859
1639558930375	-127.856	20.496	998.448	-0.42	-0.21	-0.21	-19.5	-184.5	-111	0	0	2.780859	2.778809	2.780176	2.777441	2.780176	2.782227	2.778809	2.780176	2.782227	2.777441	2.780859	2.777441	2.777441	2.777441	2.780176	2.778809
1639558930385	-129.808	19.032	998.448	-0.42	-0.35	-0.28	-24	-181.5	-114	0	0	2.780176	2.780859	2.78291	2.780859	2.78291	2.780859	2.78291	2.780176	2.777441	2.778809	2.780859	2.776758	2.778809	2.778125	2.777441	2.780859
1639558930394	-119.072	15.128	998.448	-0.42	-0.35	-0.28	-27	-180	-112.5	0	0	2.778809	2.777441	2.782227	2.782227	2.78291	2.782227	2.777441	2.780859	2.777441	2.780176	2.780859	2.778809	2.778125	2.777441	2.780859	2.778125
1639558930404	-125.904	19.032	996.984	-0.42	-0.56	-0.28	-19.5	-184.5	-111	0	0	2.780176	2.780859	2.782227	2.780176	2.780859	2.780176	2.780176	2.780859	2.777441	2.777441	2.780859	2.780859	2.777441	2.780859	2.776758	2.776758
1639558930414	-127.856	16.104	995.52	-0.63	-1.12	-0.35	-18	-177	-115.5	0	0	2.783594	2.78291	2.780176	2.782227	2.780859	2.782227	2.777441	2.776758	2.778809	2.778809	2.780859	2.780859	2.778809	2.780176	2.780859	2.778809
1639558930424	-126.392	12.688	995.032	-0.63	-1.54	-0.21	-19.5	-181.5	-115.5	0	0	2.779492	2.780859	2.778809	2.780859	2.780859	2.78291	2.780859	2.78291	2.782227	2.780859	2.780859	2.780859	2.780859	2.778125	2.780859	2.777441
1639558930433	-126.88	15.128	1002.352	-0.7	-1.54	-0.21	-19.5	-178.5	-115.5	0	0	2.780176	2.78291	2.780176	2.783594	2.782227	2.778809	2.780176	2.778809	2.778809	2.777441	2.776758	2.776758	2.778125	2.780176	2.778809	2.778809
1639558930443	-126.392	9.272	1007.72	-0.63	-1.4	-0.21	-19.5	-177	-115.5	0	0	2.777441	2.78291	2.782227	2.78291	2.778809	2.780176	2.776758	2.782227	2.780859	2.777441	2.777441	2.778125	2.778809	2.780859	2.778809	2.778809
1639558930453	-120.048	10.736	999.912	-0.63	-1.33	-0.21	-18	-180	-114	0	0	2.783594	2.777441	2.782227	2.78291	2.780176	2.778809	2.780859	2.777441	2.777441	2.778125	2.781543	2.782227	2.778809	2.780859	2.780859	2.777441
1639558930463	-122	16.104	999.912	-0.42	-1.26	-0.21	-22.5	-180	-118.5	0	0	2.780859	2.780176	2.782227	2.780859	2.780859	2.778809	2.780176	2.778809	2.780859	2.780176	2.778125	2.778809	2.777441	2.780859	2.778809	2.780859
1639558930472	-122	18.544	997.96	-0.56	-1.19	-0.28	-22.5	-184.5	-120	0	0	2.780859	2.780859	2.780176	2.783594	2.782227	2.782227	2.780859	2.780859	2.777441	2.780176	2.780176	2.778809	2.780859	2.778125	2.780176	2.780859
1639558930482	-122.488	17.08	1003.816	-0.56	-1.19	-0.21	-24	-183	-120	0	0	2.777441	2.778809	2.779492	2.78291	2.778809	2.780859	2.780176	2.780176	2.778125	2.778125	2.780859	2.777441	2.776758	2.778809	2.776758	2.780176
1639558930492	-120.536	15.128	1001.376	-0.42	-0.98	-0.21	-27	-180	-115.5	0	0	2.778809	2.782227	2.780859	2.777441	2.778809	2.780176	2.782227	2.777441	2.776758	2.780859	2.780859	2.780176	2.780859	2.778809	2.778125	2.778125
1639558930502	-121.024	13.664	996.984	-0.49	-0.91	-0.28	-22.5	-183	-114	0	0	2.782227	2.778809	2.782227	2.780859	2.778809	2.777441	2.777441	2.783594	2.777441	2.777441	2.776074	2.777441	2.778809	2.778809	2.780859	2.780859
1639558930512	-122.976	15.128	1002.352	-0.49	-0.91	-0.21	-21	-181.5	-112.5	0	0	2.780859	2.780176	2.783594	2.780859	2.777441	2.780859	2.777441	2.782227	2.780859	2.777441	2.777441	2.776758	2.777441	2.780859	2.777441	2.780176
1639558930521	-124.928	17.568	1001.376	-0.49	-0.84	-0.21	-22.5	-178.5	-115.5	0	0	2.777441	2.778809	2.780859	2.780176	2.783594	2.780176	2.780176	2.780176	2.780859	2.782227	2.778809	2.780859	2.777441	2.777441	2.778809	2.776758
1639558930531	-130.296	15.128	1000.888	-0.49	-0.91	-0.28	-19.5	-175.5	-123	0	0	2.780176	2.780859	2.780859	2.78291	2.778809	2.777441	2.782227	2.78291	2.778809	2.780859	2.781543	2.780859	2.778809	2.777441	2.778809	2.780859
1639558930541	-129.32	14.64	1000.888	-0.56	-0.84	-0.28	-19.5	-180	-123	0	0	2.777441	2.782227	2.777441	2.781543	2.78291	2.780859	2.783594	2.777441	2.778809	2.780176	2.780859	2.780176	2.777441	2.781543	2.777441	2.778809
1639558930551	-126.88	13.176	1002.352	-0.42	-0.7	-0.28	-24	-186	-118.5	0	0	2.778809	2.780176	2.777441	2.780176	2.78291	2.777441	2.782227	2.780176	2.777441	2.780859	2.780176	2.777441	2.778125	2.780859	2.776758	2.777441
1639558930560	-122	13.176	1000.4	-0.56	-0.77	-0.21	-27	-186	-115.5	0	0	2.780859	2.780176	2.78291	2.778809	2.783594	2.782227	2.782227	2.781543	2.780176	2.777441	2.780176	2.780859	2.780176	2.776758	2.777441	2.777441
1639558930570	-129.808	12.688	998.448	-0.56	-0.98	-0.21	-22.5	-181.5	-114	0	0	2.777441	2.776758	2.778809	2.777441	2.780176	2.780176	2.782227	2.780176	2.778809	2.780176	2.780859	2.780176	2.777441	2.778809	2.780859	2.778125
1639558930580	-120.536	17.08	1005.768	-0.56	-1.12	-0.14	-22.5	-174	-111	0	0	2.780176	2.776074	2.780176	2.777441	2.782227	2.780176	2.777441	2.777441	2.778125	2.776758	2.778809	2.778809	2.780859	2.777441	2.778809	2.780859
1639558930590	-126.88	13.664	997.472	-0.42	-1.05	-0.28	-24	-174	-111	0	0	2.780859	2.78291	2.777441	2.782227	2.780859	2.783594	2.780176	2.780176	2.777441	2.780176	2.780176	2.778125	2.777441	2.780859	2.777441	2.780859
1639558930599	-126.392	17.568	996.984	-0.49	-0.91	-0.21	-22.5	-175.5	-117	0	0	2.780176	2.777441	2.78291	2.780176	2.780176	2.778809	2.78291	2.782227	2.780176	2.778125	2.778809	2.780859	2.778809	2.777441	2.778125	2.778809
1639558930609	-125.416	15.616	1001.864	-0.42	-1.33	-0.21	-21	-177	-117	0	0	2.781543	2.780176	2.778809	2.780176	2.783594	2.778809	2.780859	2.78291	2.780176	2.776758	2.780176	2.777441	2.777441	2.777441	2.777441	2.777441
1639558930619	-127.368	22.936	998.448	-0.56	-1.33	-0.21	-19.5	-183	-118.5	0	0	2.78291	2.780859	2.780859	2.776758	2.779492	2.778809	2.780176	2.780176	2.781543	2.780176	2.778125	2.778809	2.780176	2.777441	2.780859	2.778809
1639558930629	-126.88	13.176	998.448	-0.49	-1.19	-0.14	-18	-181.5	-123	0	0	2.780859	2.778809	2.782227	2.778809	2.780176	2.783594	2.780859	2.780859	2.777441	2.778809	2.778125	2.778125	2.778809	2.780859	2.777441	2.777441
1639558930638	-128.832	19.52	1002.352	-0.42	-1.12	-0.21	-19.5	-175.5	-123	0	0	2.782227	2.780859	2.777441	2.780859	2.782227	2.780859	2.779492	2.780859	2.778809	2.777441	2.777441	2.780176	2.780859	2.780859	2.782227	2.777441
1639558930648	-125.904	22.448	1000.4	-0.49	-0.98	-0.21	-22.5	-180	-118.5	0	0	2.780176	2.776758	2.780859	2.780176	2.782227	2.780176	2.78291	2.780859	2.778809	2.780176	2.776074	2.774707	2.780859	2.777441	2.780859	2.778809
1639558930658	-126.392	21.472	998.936	-0.56	-0.98	-0.21	-24	-183	-117	0	0	2.780176	2.780859	2.780859	2.782227	2.778809	2.780859	2.782227	2.780176	2.779492	2.777441	2.776758	2.776758	2.777441	2.780859	2.778809	2.782227
1639558930668	-122.488	17.568	1002.84	-0.49	-0.91	-0.21	-25.5	-172.5	-115.5	0	0	2.780859	2.780859	2.78291	2.778809	2.780176	2.780176	2.780176	2.780176	2.778809	2.778809	2.778809	2.780176	2.778809	2.780176	2.780176	2.780859
1639558930678	-126.88	15.616	1004.304	-0.56	-0.91	-0.21	-25.5	-180	-115.5	0	0	2.777441	2.780176	2.778809	2.780176	2.780176	2.780859	2.778809	2.78291	2.778809	2.778809	2.778809	2.782227	2.780859	2.778125	2.780859	2.777441
1639558930687	-123.464	19.032	998.936	-0.35	-0.56	-0.14	-19.5	-186	-118.5	0	0	2.778809	2.777441	2.780176	2.780859	2.778809	2.780859	2.780859	2.78291	2.778809	2.777441	2.777441	2.780859	2.780176	2.780859	2.782227	2.777441
1639558930697	-128.344	11.224	1001.376	-0.56	-0.42	-0.21	-24	-177	-120	0	0	2.777441	2.782227	2.780176	2.780859	2.777441	2.782227	2.782227	2.781543	2.777441	2.780176	2.777441	2.778809	2.781543	2.776758	2.780859	2.778125
1639558930707	-128.832	18.544	1004.792	-0.49	-0.56	-0.28	-24	-175.5	-126	0	0	2.778809	2.777441	2.782227	2.780176	2.780859	2.780859	2.778809	2.780176	2.777441	2.780176	2.777441	2.781543	2.777441	2.780859	2.780859	2.776758
1639558930717	-128.344	12.2	1007.72	-0.49	-0.7	-0.14	-16.5	-180	-129	0	0	2.783594	2.780176	2.780176	2.780176	2.780176	2.780176	2.782227	2.778809	2.777441	2.779492	2.780859	2.778809	2.778809	2.778125	2.782227	2.778125
1639558930726	-123.952	16.592	1002.352	-0.63	-1.19	-0.21	-16.5	-177	-124.5	0	0	2.780176	2.783594	2.780176	2.780176	2.782227	2.778809	2.781543	2.783594	2.777441	2.778809	2.780176	2.778809	2.780859	2.780176	2.778809	2.777441
1639558930736	-128.344	12.688	1005.28	-0.63	-1.54	-0.28	-21	-175.5	-123	0	0	2.777441	2.780859	2.780176	2.780859	2.782227	2.780176	2.780859	2.778809	2.778125	2.780859	2.778809	2.777441	2.778125	2.778809	2.776758	2.778809
1639558930746	-126.88	17.08	997.96	-0.63	-1.47	-0.28	-19.5	-181.5	-121.5	0	0	2.780176	2.782227	2.782227	2.778809	2.780176	2.770605	2.778809	2.780859	2.778809	2.778809	2.780859	2.777441	2.776074	2.774023	2.778809	2.769238
1639558930756	-128.832	10.736	997.96	-0.56	-1.47	-0.21	-19.5	-180	-118.5	0	0	2.783594	2.780176	2.780176	2.776758	2.782227	2.779492	2.778809	2.778809	2.777441	2.778809	2.778809	2.780176	2.777441	2.780176	2.778125	2.778809
1639558930765	-127.368	18.056	1000.4	-0.49	-1.33	-0.07	-22.5	-177	-118.5	0	0	2.778809	2.780176	2.780859	2.780176	2.778809	2.780859	2.780859	2.780176	2.777441	2.778125	2.780176	2.778809	2.780859	2.780859	2.777441	2.780176
1639558930775	-125.904	16.592	1001.376	-0.49	-0.98	-0.07	-21	-180	-112.5	0	0	2.78291	2.780176	2.778125	2.777441	2.782227	2.780176	2.777441	2.782227	2.781543	2.777441	2.776758	2.782227	2.777441	2.777441	2.778809	2.776758
1639558930785	-124.928	13.176	1002.352	-0.42	-0.84	0	-21	-180	-117	0	0	2.780176	2.780176	2.780859	2.778809	2.777441	2.783594	2.778809	2.782227	2.778809	2.777441	2.782227	2.780859	2.780859	2.778809	2.777441	2.777441
1639558930795	-130.784	22.936	999.912	-0.21	-0.77	0.84	-25.5	-183	-121.5	0	0	2.782227	2.777441	2.780176	2.78291	2.777441	2.780859	2.778809	2.780176	2.778809	2.778809	2.780176	2.780859	2.779492	2.776758	2.780859	2.778125
1639558930804	-128.344	11.224	997.472	0	-1.26	2.59	-25.5	-183	-121.5	0	0	2.778809	2.778809	2.778809	2.780176	2.783594	2.78291	2.780176	2.776758	2.778125	2.778809	2.776758	2.780859	2.778125	2.777441	2.778809	2.780176
1639558930814	-120.536	19.032	993.568	-0.91	-2.8	2.38	-18	-181.5	-115.5	0	0	2.780176	2.782227	2.777441	2.778809	2.780859	2.780859	2.783594	2.783594	2.782227	2.778125	2.781543	2.778809	2.780176	2.777441	2.777441	2.780176
1639558930824	-123.952	19.032	994.544	-0.91	-4.55	0.35	-13.5	-180	-117	0	0	2.780176	2.777441	2.78291	2.782227	2.780176	2.780176	2.778809	2.78291	2.778125	2.778809	2.782227	2.777441	2.778809	2.778125	2.778809	2.780176
1639558930834	-129.808	16.104	996.496	-1.05	-5.6	-0.77	-19.5	-187.5	-118.5	0	0	2.778809	2.778809	2.780859	2.783594	2.780176	2.781543	2.78291	2.778809	2.780176	2.778809	2.780176	2.780859	2.780859	2.778125	2.778125	2.780859
1639558930844	-121.024	19.032	1001.864	-0.98	-5.67	0.28	-21	-184.5	-120	0	0	2.782227	2.782227	2.780859	2.780176	2.782227	2.780176	2.778809	2.783594	2.777441	2.777441	2.776758	2.780859	2.777441	2.780859	2.778809	2.776074
1639558930853	-121.512	22.936	998.936	-0.7	-5.11	1.68	-24	-178.5	-120	0	0	2.78291	2.779492	2.78291	2.780859	2.780176	2.780176	2.78291	2.782227	2.778125	2.777441	2.780859	2.777441	2.780859	2.778809	2.780859	2.776758
1639558930863	-127.856	21.472	1004.304	-1.12	-4.48	1.96	-22.5	-177	-117	0	0	2.777441	2.780859	2.777441	2.777441	2.780176	2.780859	2.782227	2.78291	2.777441	2.780859	2.780859	2.777441	2.778809	2.778809	2.780859	2.778125
1639558930873	-139.08	20.984	1007.232	-0.63	-3.29	2.03	-22.5	-180	-115.5	0	0	2.78291	2.778809	2.776758	2.782227	2.780859	2.78291	2.778809	2.780176	2.777441	2.777441	2.778809	2.780859	2.778125	2.778125	2.778125	2.777441
1639558930883	-123.464	9.76	999.424	-0.63	-1.75	2.17	-25.5	-184.5	-114	0	0	2.780176	2.780859	2.780176	2.78291	2.778809	2.782227	2.777441	2.780176	2.777441	2.780859	2.776758	2.777441	2.778125	2.776074	2.778809	2.780859
1639558930892	-142.008	11.224	1022.36	-0.49	-0.84	3.5	-27	-183	-112.5	0	0	2.780859	2.780859	2.78291	2.783594	2.780176	2.777441	2.778809	2.777441	2.777441	2.777441	2.777441	2.777441	2.780859	2.778809	2.777441	2.778125
1639558930902	-153.232	9.272	1011.624	-1.54	0.84	5.25	-25.5	-181.5	-115.5	0	0	2.780176	2.778809	2.783594	2.780859	2.780859	2.778809	2.778809	2.778809	2.778809	2.777441	2.780176	2.778809	2.777441	2.778125	2.778125	2.778125
1639558930912	-105.408	37.576	990.64	0	1.05	3.15	-18	-187.5	-123	0	0	2.78291	2.778809	2.780176	2.780176	2.778809	2.78291	2.780859	2.778809	2.782227	2.776758	2.778809	2.782227	2.778125	2.778809	2.777441	2.778125
1639558930922	-122.976	-9.272	991.616	-1.75	-1.47	2.1	-16.5	-184.5	-124.5	0	0	2.782227	2.780176	2.782227	2.778809	2.781543	2.780859	2.783594	2.780859	2.777441	2.780859	2.778125	2.778125	2.780859	2.782227	2.778809	2.776758
1639558930931	-104.432	3.416	984.296	-1.26	-3.78	3.78	-18	-180	-121.5	0	0	2.780859	2.780176	2.778809	2.78291	2.777441	2.780176	2.778809	2.777441	2.777441	2.777441	2.777441	2.777441	2.776758	2.778809	2.780859	2.778125
1639558930941	-70.76	17.08	996.008	-1.47	-5.88	3.01	-15	-181.5	-124.5	0	0	2.780859	2.783594	2.780859	2.780859	2.777441	2.780176	2.78291	2.778809	2.780859	2.776758	2.777441	2.777441	2.777441	2.780176	2.779492	2.778125
1639558930951	-122	6.344	1000.4	-1.82	-8.19	-1.33	-25.5	-181.5	-126	0	0	2.78291	2.78291	2.782227	2.780176	2.78291	2.780859	2.783594	2.780859	2.777441	2.779492	2.780176	2.777441	2.782227	2.781543	2.778809	2.778125
1639558930961	-111.264	10.248	1009.184	-1.05	-7.14	0	-24	-177	-117	0	0	2.780176	2.777441	2.777441	2.780176	2.780859	2.777441	2.777441	2.780176	2.777441	2.780176	2.780859	2.777441	2.778809	2.777441	2.778809	2.780176
1639558930971	-113.704	3.416	1019.432	-1.61	-4.69	0.35	-21	-175.5	-118.5	0	0	2.782227	2.778809	2.777441	2.780176	2.780176	2.780176	2.780859	2.777441	2.778809	2.778125	2.777441	2.777441	2.777441	2.777441	2.776074	2.778809
1639558930980	-141.032	19.52	1018.456	-0.42	-1.33	-0.56	-22.5	-178.5	-117	0	0	2.783594	2.780176	2.780176	2.783594	2.777441	2.778809	2.780859	2.78291	2.777441	2.780176	2.778809	2.777441	2.778125	2.782227	2.778809	2.777441
1639558930990	-105.896	21.96	1008.696	-0.42	1.26	-0.7	-27	-177	-114	0	0	2.782227	2.780176	2.783594	2.78291	2.778809	2.780176	2.780176	2.778809	2.777441	2.778809	2.778809	2.781543	2.777441	2.780176	2.778809	2.778809
1639558931000	-117.608	21.96	1003.328	0.35	2.94	-0.14	-28.5	-175.5	-117	0	0	2.778809	2.780176	2.778809	2.777441	2.780176	2.780176	2.777441	2.780176	2.780859	2.780859	2.780859	2.778125	2.777441	2.778809	2.778125	2.780859
1639558931010	-128.344	16.592	1006.744	0.28	4.06	-0.28	-27	-180	-115.5	0	0	2.780176	2.78291	2.78291	2.780176	2.780859	2.780859	2.78291	2.780176	2.778809	2.780859	2.780859	2.780859	2.778809	2.778809	2.777441	2.778125
1639558931019	-123.952	7.32	1000.888	0.14	4.41	-0.28	-24	-180	-118.5	0	0	2.778809	2.780176	2.777441	2.780176	2.782227	2.78291	2.778809	2.778809	2.777441	2.780859	2.778809	2.778809	2.780176	2.778125	2.776758	2.777441
1639558931029	-119.072	19.52	995.52	0.49	3.01	-0.21	-24	-181.5	-123	0	0	2.778809	2.780176	2.780859	2.78291	2.780859	2.780176	2.782227	2.78291	2.777441	2.778125	2.777441	2.777441	2.778125	2.777441	2.776758	2.780859
1639558931039	-124.44	10.736	994.544	-0.35	-0.91	-0.28	-25.5	-186	-120	0	0	2.78291	2.782227	2.782227	2.777441	2.778809	2.783594	2.782227	2.780176	2.780859	2.778809	2.777441	2.778125	2.777441	2.780859	2.780859	2.778809
1639558931049	-122	16.104	994.056	-1.05	-3.78	-0.28	-22.5	-181.5	-120	0	0	2.780176	2.781543	2.778809	2.778809	2.78291	2.780176	2.782227	2.778809	2.780176	2.780176	2.780859	2.780859	2.780859	2.780859	2.780859	2.777441
1639558931058	-128.344	12.688	997.96	-1.47	-5.6	-0.21	-24	-183	-115.5	0	0	2.782227	2.777441	2.780859	2.780176	2.78291	2.778809	2.78291	2.777441	2.777441	2.78291	2.776758	2.780859	2.778125	2.778125	2.778125	2.780859
1639558931068	-121.512	15.128	1005.768	-1.26	-6.09	-0.21	-24	-186	-108	0	0	2.780176	2.772656	2.778809	2.777441	2.780176	2.780859	2.783594	2.780176	2.769238	2.778125	2.777441	2.778125	2.775391	2.780859	2.777441	2.778809
1639558931078	-118.096	20.496	1010.16	-1.12	-5.39	-0.21	-15	-181.5	-115.5	0	0	2.778809	2.778809	2.780176	2.778809	2.783594	2.780176	2.780859	2.782227	2.777441	2.778809	2.778125	2.778809	2.777441	2.780176	2.778125	2.776758
1639558931088	-115.656	19.032	1012.112	-0.91	-3.36	-0.14	-15	-181.5	-117	0	0	2.782227	2.780176	2.780176	2.778809	2.778809	2.780176	2.78291	2.780859	2.780859	2.780859	2.778125	2.778809	2.780859	2.778125	2.778125	2.777441
1639558931097	-118.584	13.176	1007.72	-0.49	-0.7	-0.21	-19.5	-184.5	-121.5	0	0	2.78291	2.778809	2.780176	2.780176	2.777441	2.778809	2.777441	2.780859	2.778125	2.778809	2.780176	2.780176	2.777441	2.777441	2.778125	2.778809
1639558931107	-115.168	13.176	1014.552	-0.07	1.47	-0.21	-27	-184.5	-123	0	0	2.778809	2.782227	2.778809	2.778809	2.780176	2.780176	2.780176	2.782227	2.778809	2.777441	2.778125	2.781543	2.778809	2.778809	2.780859	2.778809
1639558931117	-120.536	15.128	1011.136	0.14	2.73	-0.28	-33	-184.5	-121.5	0	0	2.780176	2.782227	2.777441	2.778809	2.777441	2.780859	2.782227	2.78291	2.778809	2.778809	2.777441	2.778125	2.778809	2.779492	2.777441	2.778125
1639558931127	-123.952	15.128	1007.232	0.14	2.8	-0.28	-34.5	-184.5	-126	0	0	2.778809	2.780859	2.778809	2.778809	2.78291	2.777441	2.780859	2.778125	2.778809	2.780859	2.780176	2.777441	2.778809	2.777441	2.778125	2.782227
1639558931137	-122.488	15.616	996.984	0.14	1.96	-0.35	-30	-187.5	-124.5	0	0	2.782227	2.780176	2.782227	2.780176	2.780176	2.777441	2.778809	2.778809	2.778125	2.782227	2.782227	2.776758	2.778125	2.778125	2.776758	2.780176
1639558931146	-128.344	15.616	993.568	-0.35	0.35	-0.28	-15	-186	-120	0	0	2.780176	2.780859	2.78291	2.78291	2.777441	2.782227	2.780176	2.780176	2.780859	2.778809	2.781543	2.780176	2.778809	2.776074	2.780176	2.777441
1639558931156	-121.024	11.224	993.08	-0.56	-1.05	-0.28	-10.5	-184.5	-120	0	0	2.777441	2.78291	2.780176	2.780859	2.780176	2.778809	2.778809	2.78291	2.780176	2.778125	2.778809	2.780859	2.780176	2.778809	2.778809	2.776758
1639558931166	-115.168	14.152	999.912	-0.77	-2.66	-0.21	-21	-184.5	-124.5	0	0	2.780176	2.780176	2.782227	2.783594	2.778809	2.780859	2.782227	2.780176	2.776074	2.778809	2.777441	2.778809	2.777441	2.780859	2.780859	2.778125
1639558931176	-120.536	18.544	998.936	-0.91	-3.71	-0.28	-22.5	-181.5	-123	0	0	2.778809	2.777441	2.780176	2.780859	2.78291	2.78291	2.780176	2.78291	2.777441	2.777441	2.780859	2.780176	2.780859	2.777441	2.776758	2.778809
1639558931185	-117.12	15.128	1001.864	-0.84	-3.78	-0.21	-22.5	-181.5	-120	0	0	2.782227	2.777441	2.780859	2.782227	2.778809	2.780176	2.782227	2.782227	2.777441	2.777441	2.777441	2.780859	2.777441	2.778809	2.782227	2.780176
1639558931195	-116.144	9.76	1002.352	-0.77	-2.87	-0.21	-25.5	-186	-123	0	0	2.783594	2.782227	2.780859	2.780176	2.780859	2.783594	2.778809	2.780859	2.780859	2.782227	2.777441	2.778809	2.778809	2.778809	2.778125	2.780859
1639558931205	-109.8	16.592	1004.792	-0.56	-1.61	-0.35	-25.5	-187.5	-124.5	0	0	2.777441	2.782227	2.778809	2.782227	2.780859	2.780176	2.78291	2.781543	2.777441	2.778809	2.782227	2.777441	2.778809	2.778809	2.776758	2.778809
1639558931215	-112.24	17.568	1004.792	-0.35	-0.35	-0.28	-27	-183	-121.5	0	0	2.780176	2.778809	2.780176	2.776758	2.782227	2.780176	2.780176	2.780859	2.778809	2.778125	2.778809	2.780859	2.777441	2.777441	2.778809	2.778809
1639558931224	-115.168	9.76	1002.84	-0.21	0.77	-0.35	-22.5	-175.5	-117	0	0	2.778809	2.777441	2.782227	2.778809	2.780176	2.780859	2.783594	2.782227	2.778809	2.780176	2.780859	2.778125	2.778809	2.778809	2.778809	2.778809
1639558931234	-122.488	3.904	999.912	-0.14	1.19	-0.35	-21	-175.5	-121.5	0	0	2.782227	2.78291	2.780176	2.778809	2.780859	2.777441	2.780859	2.78291	2.777441	2.777441	2.780859	2.780176	2.780859	2.780859	2.780859	2.778125
1639558931244	-122.488	10.248	1004.304	0	1.19	-0.21	-22.5	-186	-123	0	0	2.778809	2.780176	2.780176	2.780176	2.778809	2.778809	2.777441	2.783594	2.778809	2.776758	2.777441	2.776758	2.780176	2.778809	2.781543	2.777441
1639558931254	-119.072	13.176	995.032	-0.28	0.56	-0.21	-22.5	-181.5	-121.5	0	0	2.779492	2.778809	2.776758	2.782227	2.780176	2.780176	2.776758	2.776758	2.777441	2.780859	2.778809	2.778809	2.782227	2.778125	2.778809	2.777441
1639558931263	-120.048	16.104	995.52	-0.42	-0.28	-0.21	-24	-177	-118.5	0	0	2.780859	2.78291	2.780176	2.777441	2.780859	2.780176	2.777441	2.783594	2.778125	2.780176	2.777441	2.778809	2.776758	2.780176	2.777441	2.778809
1639558931273	-121.512	20.984	995.52	-0.49	-1.12	-0.21	-22.5	-183	-117	0	0	2.780176	2.777441	2.780859	2.782227	2.777441	2.78291	2.778809	2.780176	2.780859	2.778809	2.780859	2.778809	2.778809	2.777441	2.781543	2.777441
1639558931283	-116.632	21.472	997.472	-0.63	-1.89	-0.28	-28.5	-181.5	-123	0	0	2.780176	2.778809	2.780859	2.782227	2.780176	2.777441	2.780176	2.783594	2.778125	2.778125	2.778809	2.776758	2.780859	2.778125	2.780176	2.778809
1639558931293	-119.56	18.544	1000.888	-0.7	-2.17	-0.21	-31.5	-181.5	-118.5	0	0	2.780176	2.78291	2.780176	2.780176	2.780176	2.777441	2.780176	2.777441	2.778809	2.780859	2.777441	2.780859	2.782227	2.778809	2.778809	2.777441
1639558931303	-121.024	21.96	1008.208	-0.77	-2.24	-0.21	-27	-187.5	-115.5	0	0	2.780176	2.780859	2.777441	2.780859	2.783594	2.780859	2.777441	2.777441	2.778809	2.777441	2.778809	2.778809	2.776758	2.778809	2.780176	2.778809
1639558931312	-117.12	13.176	1006.256	-0.7	-2.1	-0.14	-28.5	-183	-120	0	0	2.777441	2.780859	2.78291	2.782227	2.780859	2.777441	2.782227	2.778809	2.777441	2.780176	2.780859	2.776758	2.777441	2.780859	2.778809	2.778125
1639558931322	-117.608	18.544	1004.304	-0.63	-1.68	-0.28	-24	-181.5	-121.5	0	0	2.778809	2.776758	2.780176	2.783594	2.780859	2.777441	2.780176	2.777441	2.780859	2.778809	2.776074	2.777441	2.778125	2.780176	2.777441	2.780859
1639558931332	-117.12	17.08	1003.816	-0.49	-1.05	-0.28	-22.5	-180	-117	0	0	2.780859	2.78291	2.782227	2.78291	2.777441	2.780859	2.780859	2.777441	2.780859	2.782227	2.778809	2.778809	2.778125	2.777441	2.780859	2.777441
1639558931342	-120.048	14.152	1003.328	-0.42	-0.28	-0.28	-28.5	-181.5	-115.5	0	0	2.782227	2.777441	2.782227	2.778809	2.783594	2.783594	2.782227	2.780859	2.776758	2.778125	2.778809	2.776758	2.777441	2.777441	2.778809	2.778125
1639558931351	-116.144	6.832	1004.792	-0.42	0.07	-0.28	-30	-181.5	-127.5	0	0	2.780176	2.780176	2.778809	2.780859	2.780859	2.783594	2.780176	2.78291	2.776758	2.778809	2.778809	2.780176	2.778809	2.780176	2.778809	2.780859
1639558931361	-119.072	14.152	1003.328	-0.28	0.42	-0.21	-24	-177	-127.5	0	0	2.778809	2.780859	2.780176	2.783594	2.777441	2.780859	2.780176	2.782227	2.780176	2.777441	2.778809	2.778809	2.780859	2.777441	2.780176	2.778809
1639558931371	-121.512	14.152	1006.744	-0.28	0.49	-0.28	-22.5	-178.5	-121.5	0	0	2.780176	2.777441	2.782227	2.778809	2.780859	2.780176	2.780176	2.782227	2.780176	2.778809	2.779492	2.778809	2.778125	2.780176	2.778809	2.778809
1639558931381	-118.096	7.32	999.912	-0.14	-0.21	-0.35	-24	-184.5	-121.5	0	0	2.780176	2.780859	2.778809	2.778809	2.780176	2.780176	2.778809	2.780176	2.777441	2.780859	2.778125	2.778125	2.780176	2.777441	2.778809	2.778809
1639558931390	-114.68	19.52	1002.352	-0.28	-0.77	-0.28	-21	-184.5	-121.5	0	0	2.778809	2.780176	2.780859	2.780859	2.782227	2.778809	2.782227	2.778809	2.778809	2.780176	2.780859	2.778809	2.778125	2.778125	2.778809	2.780176
1639558931400	-118.584	24.4	999.424	-0.56	-1.4	-0.21	-22.5	-180	-120	0	0	2.780859	2.777441	2.783594	2.782227	2.78291	2.778809	2.780859	2.778809	2.778125	2.780859	2.778809	2.777441	2.777441	2.778125	2.778809	2.780859
1639558931410	-122	16.592	1000.4	-0.77	-1.89	-0.28	-28.5	-180	-123	0	0	2.780859	2.783594	2.78291	2.78291	2.777441	2.780176	2.782227	2.780176	2.777441	2.780859	2.778125	2.778125	2.780176	2.777441	2.780176	2.778809
1639558931420	-115.656	20.984	1007.232	-0.7	-2.1	-0.21	-28.5	-181.5	-124.5	0	0	2.780176	2.782227	2.782227	2.780176	2.777441	2.780176	2.780859	2.78291	2.776074	2.780176	2.780859	2.778809	2.778809	2.780859	2.778125	2.780859
1639558931429	-111.264	11.712	998.936	-0.77	-2.24	-0.28	-28.5	-180	-121.5	0	0	2.776758	2.780176	2.780859	2.783594	2.778809	2.778809	2.781543	2.780176	2.780859	2.778809	2.780176	2.778125	2.777441	2.780176	2.778809	2.778809
1639558931439	-117.608	13.176	1000.4	-0.56	-2.1	-0.28	-27	-175.5	-115.5	0	0	2.782227	2.78291	2.777441	2.780859	2.780176	2.780176	2.780176	2.783594	2.782227	2.778809	2.780176	2.776758	2.778809	2.778809	2.780859	2.780859
1639558931449	-109.312	19.032	1013.576	-0.56	-1.47	-0.21	-27	-180	-112.5	0	0	2.777441	2.782227	2.782227	2.782227	2.780176	2.780176	2.778809	2.780176	2.780176	2.778809	2.780176	2.780859	2.778809	2.780176	2.778809	2.778809
1639558931459	-120.536	14.152	1007.72	-0.7	-0.84	-0.28	-30	-183	-115.5	0	0	2.777441	2.780176	2.780176	2.782227	2.783594	2.780176	2.78291	2.780176	2.778809	2.777441	2.777441	2.782227	2.776758	2.778809	2.780859	2.782227
1639558931469	-114.68	18.056	1002.84	-0.42	0.21	-0.28	-28.5	-175.5	-117	0	0	2.78291	2.782227	2.777441	2.780176	2.782227	2.777441	2.780176	2.778809	2.782227	2.780859	2.780176	2.778809	2.780859	2.778809	2.780859	2.778125
1639558931478	-117.608	19.52	1000.888	-0.07	0.84	-0.28	-27	-177	-114	0	0	2.777441	2.777441	2.778809	2.778809	2.778809	2.783594	2.780176	2.777441	2.778125	2.778809	2.776758	2.776758	2.778125	2.776758	2.776758	2.778809
1639558931488	-130.296	13.664	1000.4	-0.35	0.63	-0.28	-27	-180	-115.5	0	0	2.780176	2.780859	2.780859	2.780176	2.780176	2.780176	2.780859	2.778809	2.778809	2.777441	2.778125	2.777441	2.777441	2.780859	2.780859	2.778809
1639558931498	-120.048	19.032	1000.888	-0.35	0.28	-0.35	-27	-180	-124.5	0	0	2.777441	2.780859	2.780176	2.780176	2.780176	2.778809	2.780859	2.778809	2.776758	2.778809	2.777441	2.778809	2.778809	2.778809	2.776758	2.780859
1639558931508	-121.512	22.448	1000.888	-0.35	-0.77	-0.14	-21	-181.5	-121.5	0	0	2.780859	2.780176	2.777441	2.783594	2.780176	2.778809	2.780176	2.780176	2.777441	2.782227	2.778809	2.778809	2.778809	2.780176	2.780176	2.782227
1639558931517	-116.632	14.64	1002.352	-0.56	-1.82	-0.28	-21	-178.5	-114	0	0	2.778809	2.780859	2.778809	2.78291	2.777441	2.783594	2.78291	2.780176	2.777441	2.780859	2.778809	2.780176	2.782227	2.780176	2.780859	2.780859
1639558931527	-117.608	11.712	1003.328	-0.84	-2.45	-0.28	-21	-180	-117	0	0	2.782227	2.782227	2.780859	2.782227	2.778809	2.780176	2.780859	2.778809	2.777441	2.778809	2.777441	2.776758	2.780859	2.780859	2.781543	2.778809
1639558931537	-113.704	11.224	1009.184	-0.77	-2.66	-0.21	-19.5	-180	-118.5	0	0	2.780176	2.781543	2.777441	2.780176	2.778809	2.782227	2.781543	2.778809	2.778809	2.780859	2.776074	2.778809	2.777441	2.780859	2.777441	2.777441
1639558931547	-119.56	11.712	1002.84	-0.63	-2.1	-0.28	-19.5	-180	-118.5	0	0	2.780859	2.780859	2.783594	2.777441	2.780176	2.777441	2.780176	2.780176	2.780176	2.780176	2.777441	2.780176	2.777441	2.778125	2.778809	2.780859
1639558931556	-113.216	18.544	1006.256	-0.63	-1.54	-0.28	-21	-181.5	-120	0	0	2.780859	2.778809	2.778809	2.778809	2.776758	2.780176	2.780176	2.777441	2.780859	2.780859	2.780859	2.777441	2.780859	2.782227	2.78291	2.780859
1639558931566	-111.264	15.616	1010.16	-0.56	-0.98	-0.21	-22.5	-183	-123	0	0	2.777441	2.777441	2.780176	2.778809	2.782227	2.780176	2.777441	2.777441	2.778809	2.778809	2.778809	2.778125	2.778809	2.780859	2.782227	2.777441
1639558931576	-110.288	11.712	1002.352	-0.56	-0.49	-0.28	-19.5	-183	-117	0	0	2.780176	2.780176	2.782227	2.780176	2.777441	2.782227	2.780176	2.780176	2.780176	2.776758	2.778809	2.778809	2.780859	2.780859	2.780859	2.780176
1639558931586	-121.024	12.688	1007.72	-0.14	0.14	-0.28	-22.5	-183	-114	0	0	2.777441	2.780859	2.780176	2.777441	2.777441	2.780859	2.780859	2.782227	2.777441	2.778809	2.780859	2.777441	2.780176	2.780859	2.780176	2.780176
1639558931596	-115.656	12.2	1005.28	-0.49	0.35	-0.21	-25.5	-181.5	-118.5	0	0	2.778809	2.777441	2.780859	2.780176	2.783594	2.777441	2.780859	2.780176	2.780859	2.777441	2.780859	2.780859	2.780176	2.780176	2.778125	2.777441
1639558931605	-114.68	10.736	1001.376	-0.21	0.42	-0.28	-27	-181.5	-117	0	0	2.780176	2.776758	2.778809	2.782227	2.780176	2.777441	2.778809	2.778809	2.778809	2.778809	2.778125	2.782227	2.778809	2.780859	2.780859	2.781543
1639558931615	-114.68	13.176	998.936	-0.42	-0.42	-0.21	-27	-178.5	-118.5	0	0	2.780859	2.780176	2.780176	2.780859	2.782227	2.778809	2.78291	2.78291	2.777441	2.777441	2.776758	2.778809	2.777441	2.781543	2.777441	2.778125
1639558931625	-117.608	18.544	999.424	-0.42	-1.26	-0.21	-27	-184.5	-124.5	0	0	2.782227	2.778809	2.780176	2.780859	2.780859	2.78291	2.780176	2.780859	2.778125	2.780176	2.778809	2.780859	2.778125	2.776758	2.778809	2.780859
1639558931635	-122	14.64	996.984	-0.63	-1.96	-0.21	-28.5	-186	-123	0	0	2.780859	2.777441	2.778809	2.782227	2.780176	2.783594	2.780859	2.780859	2.778125	2.778809	2.780176	2.777441	2.780859	2.776758	2.778125	2.777441
1639558931644	-120.536	17.08	1005.28	-0.56	-1.61	-0.21	-25.5	-181.5	-123	0	0	2.780176	2.780176	2.778809	2.782227	2.779492	2.778809	2.778809	2.78291	2.777441	2.778809	2.780859	2.777441	2.778809	2.778809	2.778809	2.780859
1639558931654	-115.656	15.616	1005.768	-0.56	-1.33	-0.07	-25.5	-177	-121.5	0	0	2.780859	2.780859	2.780176	2.780176	2.782227	2.778809	2.780859	2.777441	2.777441	2.778809	2.780176	2.778809	2.782227	2.780176	2.780176	2.778809
1639558931664	-116.632	22.936	1004.304	-0.56	-1.33	-0.21	-24	-178.5	-120	0	0	2.777441	2.780176	2.778809	2.778809	2.776758	2.783594	2.780176	2.780176	2.777441	2.778125	2.780176	2.778125	2.777441	2.777441	2.780859	2.778809
1639558931674	-115.656	12.688	1005.768	-0.49	-1.47	-0.28	-24	-181.5	-121.5	0	0	2.780176	2.78291	2.780859	2.778809	2.780176	2.783594	2.777441	2.783594	2.777441	2.778809	2.778125	2.780859	2.780176	2.777441	2.778125	2.782227
1639558931683	-116.144	16.592	1004.792	-0.63	-1.68	-0.28	-27	-181.5	-118.5	0	0	2.776758	2.780859	2.780176	2.777441	2.78291	2.780176	2.780859	2.778809	2.777441	2.776758	2.780859	2.777441	2.780859	2.778125	2.780859	2.780859
1639558931693	-115.656	18.056	997.96	-0.7	-1.75	-0.21	-28.5	-183	-114	0	0	2.777441	2.78291	2.783594	2.780859	2.780859	2.780176	2.78291	2.783594	2.778809	2.782227	2.778809	2.776758	2.780859	2.778125	2.778125	2.777441
1639558931703	-113.704	12.2	1003.328	-0.42	-0.98	-0.28	-24	-183	-115.5	0	0	2.78291	2.778809	2.780176	2.777441	2.778809	2.78291	2.780176	2.780176	2.778809	2.778809	2.778809	2.780176	2.780176	2.777441	2.778809	2.778809
1639558931713	-113.216	18.544	1005.28	-0.28	0	-0.28	-28.5	-178.5	-117	0	0	2.780176	2.782227	2.778809	2.780859	2.783594	2.780859	2.777441	2.780176	2.777441	2.777441	2.778125	2.782227	2.778809	2.778809	2.778809	2.780859
1639558931722	-115.656	13.176	1000.4	-0.14	1.12	-0.21	-30	-175.5	-115.5	0	0	2.78291	2.778809	2.771289	2.776758	2.78291	2.778809	2.771289	2.774707	2.777441	2.780176	2.774707	2.777441	2.780859	2.778125	2.770605	2.782227
1639558931732	-115.656	19.52	1005.768	-0.21	0.91	-0.14	-30	-184.5	-117	0	0	2.778809	2.78291	2.782227	2.778809	2.78291	2.782227	2.780859	2.779492	2.780176	2.780859	2.777441	2.778125	2.777441	2.777441	2.777441	2.778809
1639558931742	-117.608	17.568	1002.352	-0.42	-0.28	-0.21	-28.5	-183	-118.5	0	0	2.778809	2.782227	2.782227	2.779492	2.783594	2.777441	2.778809	2.782227	2.778809	2.777441	2.778125	2.778809	2.777441	2.776758	2.778809	2.780176
1639558931752	-118.584	20.008	999.912	-0.63	-1.54	-0.35	-22.5	-181.5	-115.5	0	0	2.782227	2.777441	2.780859	2.78291	2.780859	2.780859	2.782227	2.780176	2.780859	2.780859	2.780176	2.778125	2.780176	2.782227	2.777441	2.782227
1639558931762	-115.656	17.568	1005.28	-0.84	-2.45	-0.21	-19.5	-181.5	-109.5	0	0	2.78291	2.780176	2.780859	2.780176	2.783594	2.777441	2.778809	2.781543	2.777441	2.778809	2.777441	2.778809	2.780859	2.778125	2.780176	2.778809
1639558931771	-118.096	12.688	1004.304	-0.7	-2.52	-0.21	-27	-181.5	-115.5	0	0	2.778809	2.780176	2.778809	2.778809	2.778125	2.780176	2.776758	2.780176	2.780859	2.777441	2.778809	2.778809	2.780859	2.778125	2.780859	2.780859
1639558931781	-113.216	0.488	1006.256	-0.77	-2.94	-0.21	-27	-183	-121.5	0	0	2.777441	2.781543	2.782227	2.782227	2.780859	2.781543	2.777441	2.780176	2.777441	2.778125	2.777441	2.778125	2.780176	2.776758	2.780176	2.776758
1639558931791	-109.8	4.88	1008.696	-0.91	-2.17	-0.56	-21	-186	-118.5	0	0	2.778809	2.780176	2.778125	2.780176	2.782227	2.782227	2.780176	2.78291	2.776758	2.780859	2.778809	2.780859	2.778809	2.778125	2.778809	2.777441
1639558931801	-112.24	8.784	1004.792	-0.84	-1.54	0.07	-25.5	-190.5	-118.5	0	0	2.777441	2.777441	2.78291	2.783594	2.782227	2.780859	2.777441	2.782227	2.778125	2.777441	2.778809	2.776758	2.780859	2.780859	2.778125	2.778125
1639558931810	-108.824	12.2	1007.232	-0.35	-0.28	-0.07	-28.5	-181.5	-121.5	0	0	2.78291	2.780176	2.776758	2.777441	2.782227	2.782227	2.777441	2.782227	2.777441	2.777441	2.780859	2.782227	2.778809	2.776758	2.778809	2.778809
1639558931820	-121.024	15.128	1005.768	-0.35	0.84	-0.14	-24	-181.5	-118.5	0	0	2.781543	2.778809	2.78291	2.78291	2.778809	2.780176	2.780176	2.782227	2.778809	2.777441	2.777441	2.777441	2.778809	2.782227	2.778125	2.778125
1639558931830	-124.928	14.152	1004.304	0	1.54	-0.07	-27	-187.5	-121.5	0	0	2.777441	2.780176	2.778809	2.777441	2.782227	2.778809	2.782227	2.780176	2.778809	2.778809	2.777441	2.777441	2.778809	2.778125	2.777441	2.778125
1639558931840	-107.36	18.056	999.912	-0.42	1.4	-0.21	-30	-186	-120	0	0	2.780859	2.78291	2.777441	2.78291	2.78291	2.778809	2.782227	2.778809	2.777441	2.780859	2.780176	2.777441	2.778809	2.777441	2.778125	2.780176
1639558931849	-122.488	26.352	994.544	0	0.98	-0.28	-24	-186	-121.5	0	0	2.778809	2.780176	2.778125	2.778809	2.782227	2.780859	2.780176	2.783594	2.780176	2.780859	2.780859	2.777441	2.780859	2.780176	2.778809	2.780176
1639558931859	-118.584	15.128	999.912	-0.63	-0.07	-0.28	-24	-180	-121.5	0	0	2.780176	2.777441	2.778809	2.780859	2.783594	2.780859	2.778809	2.780176	2.777441	2.777441	2.780176	2.778125	2.780859	2.776758	2.781543	2.778125
1639558931869	-120.536	19.032	999.912	-0.49	-1.19	-0.07	-25.5	-178.5	-118.5	0	0	2.780176	2.777441	2.780176	2.780176	2.781543	2.778809	2.780176	2.778125	2.778809	2.780176	2.780859	2.778125	2.776758	2.778809	2.779492	2.778125
1639558931879	-122	14.152	998.936	-1.05	-1.96	-0.21	-19.5	-183	-118.5	0	0	2.782227	2.78291	2.778809	2.780176	2.78291	2.778809	2.780859	2.780859	2.782227	2.778809	2.780859	2.778809	2.779492	2.778125	2.777441	2.779492
1639558931888	-120.536	13.664	1000.888	-0.77	-2.03	-0.14	-24	-183	-118.5	0	0	2.780859	2.777441	2.778809	2.778809	2.780859	2.782227	2.776758	2.780859	2.782227	2.778125	2.780859	2.780859	2.777441	2.780176	2.778809	2.777441
1639558931898	-116.144	11.224	1003.816	-0.63	-1.05	-0.07	-27	-187.5	-118.5	0	0	2.780176	2.780176	2.778809	2.78291	2.780176	2.777441	2.78291	2.782227	2.777441	2.777441	2.782227	2.777441	2.780859	2.776758	2.776758	2.778809
1639558931908	-118.584	16.592	1002.352	-0.42	-0.77	-0.07	-24	-187.5	-117	0	0	2.780176	2.782227	2.778809	2.782227	2.782227	2.777441	2.778809	2.780176	2.778809	2.778809	2.777441	2.780859	2.780859	2.777441	2.781543	2.778809
1639558931918	-118.096	9.272	1003.816	-0.63	-0.98	-0.07	-24	-186	-120	0	0	2.782227	2.78291	2.780176	2.776758	2.777441	2.78291	2.780176	2.78291	2.780859	2.780859	2.777441	2.778809	2.780859	2.777441	2.780176	2.777441
1639558931928	-118.096	8.784	1001.376	-0.91	-0.98	-0.28	-24	-187.5	-123	0	0	2.778809	2.778809	2.778809	2.782227	2.778809	2.780859	2.780176	2.78291	2.777441	2.777441	2.778125	2.777441	2.780176	2.778809	2.780859	2.780176
1639558931937	-111.752	4.88	1002.84	0.21	1.33	-0.28	-22.5	-183	-118.5	0	0	2.783594	2.780859	2.778809	2.776074	2.777441	2.780859	2.78291	2.78291	2.776758	2.778809	2.782227	2.777441	2.780176	2.780176	2.778125	2.780859
1639558931947	-130.296	11.712	1001.376	-0.21	2.1	0.07	-18	-183	-114	0	0	2.777441	2.780176	2.780176	2.778809	2.778809	2.780859	2.78291	2.778809	2.780859	2.778809	2.778809	2.778125	2.778125	2.777441	2.780176	2.777441
1639558931957	-122.488	8.296	995.032	-0.14	0.77	-0.21	-22.5	-181.5	-115.5	0	0	2.780859	2.778809	2.782227	2.780859	2.777441	2.779492	2.777441	2.780176	2.777441	2.778125	2.778809	2.776758	2.781543	2.780859	2.780859	2.777441
1639558931967	-117.12	19.52	994.544	-0.42	-0.98	-0.14	-30	-175.5	-118.5	0	0	2.778809	2.78291	2.780176	2.778809	2.78291	2.776758	2.777441	2.780859	2.780859	2.782227	2.782227	2.780859	2.776758	2.776758	2.777441	2.780859
1639558931976	-111.752	20.984	995.52	-0.84	-2.1	-0.07	-25.5	-178.5	-120	0	0	2.780176	2.78291	2.78291	2.782227	2.777441	2.776758	2.778809	2.781543	2.776758	2.780859	2.777441	2.777441	2.780176	2.778809	2.780859	2.778125
1639558931986	-118.584	17.08	996.496	-0.63	-2.87	-0.21	-25.5	-184.5	-115.5	0	0	2.780859	2.780859	2.780176	2.782227	2.778809	2.780859	2.780859	2.778809	2.780176	2.777441	2.777441	2.777441	2.780859	2.778125	2.777441	2.782227
1639558931996	-122	16.104	1004.304	-0.63	-2.45	-0.14	-24	-187.5	-117	0	0	2.780859	2.777441	2.777441	2.780176	2.778809	2.780859	2.780176	2.780176	2.777441	2.780859	2.778809	2.777441	2.777441	2.781543	2.776758	2.777441
1639558932006	-124.928	19.52	1006.256	-0.7	-2.03	-0.07	-24	-183	-121.5	0	0	2.780176	2.780859	2.777441	2.780176	2.778809	2.776758	2.782227	2.778809	2.777441	2.782227	2.780176	2.780859	2.778809	2.778809	2.780176	2.778809
1639558932015	-114.68	19.52	1000.888	-0.42	-0.98	-0.28	-24	-180	-118.5	0	0	2.783594	2.780176	2.780859	2.778809	2.780176	2.780176	2.780176	2.782227	2.780176	2.777441	2.777441	2.776758	2.777441	2.780176	2.777441	2.778125
1639558932025	-111.264	20.496	999.424	-0.63	-0.14	-0.28	-24	-181.5	-117	0	0	2.776758	2.777441	2.782227	2.780176	2.783594	2.780176	2.776758	2.780176	2.782227	2.778809	2.780859	2.778809	2.782227	2.777441	2.780176	2.776758
1639558932035	-115.656	24.4	990.64	-0.07	-0.56	-0.28	-27	-178.5	-120	0	0	2.78291	2.783594	2.780176	2.776074	2.78291	2.778809	2.776758	2.777441	2.781543	2.777441	2.778809	2.778125	2.778809	2.778809	2.777441	2.780859
1639558932045	-118.096	22.448	996.008	-0.98	-3.36	-0.28	-28.5	-175.5	-123	0	0	2.775391	2.780176	2.780176	2.780859	2.779492	2.771289	2.778809	2.779492	2.776758	2.780859	2.777441	2.782227	2.766504	2.774023	2.778809	2.776758
1639558932054	-117.608	12.688	1012.112	-1.12	-3.85	-0.56	-27	-180	-118.5	0	0	2.777441	2.782227	2.782227	2.780176	2.780176	2.782227	2.780176	2.778809	2.780859	2.780176	2.778125	2.778809	2.778809	2.782227	2.780859	2.777441
1639558932064	-109.312	9.272	1010.16	-1.12	-2.38	-0.49	-25.5	-183	-115.5	0	0	2.780859	2.780176	2.780176	2.780176	2.780859	2.780176	2.783594	2.778809	2.777441	2.777441	2.780176	2.776758	2.777441	2.780176	2.780176	2.780176
1639558932074	-113.216	5.368	997.472	-0.21	-0.49	-0.35	-22.5	-184.5	-120	0	0	2.782227	2.78291	2.78291	2.780176	2.778809	2.777441	2.777441	2.776758	2.777441	2.780176	2.780859	2.778125	2.776758	2.780176	2.776758	2.780176
1639558932084	-110.776	-2.44	1006.256	-0.21	0.84	0.28	-24	-183	-118.5	0	0	2.780859	2.782227	2.778125	2.780176	2.780176	2.780176	2.777441	2.782227	2.776758	2.778125	2.778125	2.778809	2.777441	2.778809	2.778125	2.778125
1639558932094	-125.416	10.248	1002.84	-0.07	0.77	0.21	-25.5	-181.5	-121.5	0	0	2.780176	2.780176	2.780176	2.777441	2.780176	2.781543	2.780176	2.777441	2.780176	2.780176	2.778809	2.780859	2.780859	2.782227	2.778125	2.777441
1639558932103	-115.656	11.712	1015.528	-0.7	-0.84	-0.63	-25.5	-187.5	-118.5	0	0	2.780176	2.777441	2.777441	2.780176	2.778809	2.777441	2.780176	2.780176	2.777441	2.778809	2.777441	2.780176	2.778125	2.781543	2.778125	2.776758
1639558932113	-112.24	8.784	995.032	-0.35	-1.54	-0.56	-19.5	-187.5	-108	0	0	2.780859	2.782227	2.782227	2.778809	2.783594	2.780859	2.777441	2.780176	2.778809	2.778125	2.778125	2.778125	2.778809	2.777441	2.780176	2.777441
1639558932123	-116.144	14.64	1007.232	-0.91	-1.96	0.42	-21	-187.5	-112.5	0	0	2.782227	2.780176	2.780176	2.780176	2.780176	2.783594	2.780176	2.780176	2.780859	2.777441	2.781543	2.780176	2.776074	2.776758	2.780859	2.777441
1639558932133	-121.512	16.592	1010.16	-0.84	-1.68	-0.49	-30	-183	-115.5	0	0	2.780176	2.777441	2.780859	2.780176	2.782227	2.778809	2.780176	2.78291	2.777441	2.778809	2.782227	2.780176	2.777441	2.778125	2.778809	2.777441
1639558932142	-114.192	10.248	993.08	-0.28	-1.4	-0.28	-28.5	-178.5	-115.5	0	0	2.780859	2.782227	2.778809	2.782227	2.777441	2.778809	2.780176	2.782227	2.777441	2.780859	2.780859	2.780176	2.778809	2.778809	2.777441	2.777441
1639558932152	-116.632	10.736	1001.864	-0.56	-0.7	0.21	-25.5	-186	-120	0	0	2.782227	2.780859	2.778809	2.780176	2.780176	2.780859	2.778809	2.780176	2.780859	2.780176	2.778809	2.778125	2.778809	2.780859	2.780859	2.780859
1639558932162	-111.752	18.056	996.008	-0.14	0.35	-0.63	-25.5	-189	-117	0	0	2.780176	2.780859	2.777441	2.780859	2.780859	2.782227	2.778809	2.780176	2.778809	2.778125	2.777441	2.780859	2.778809	2.777441	2.778125	2.778125
1639558932172	-103.456	10.248	998.936	0.07	0.7	-0.14	-21	-183	-115.5	0	0	2.776758	2.776758	2.782227	2.780859	2.78291	2.781543	2.78291	2.780176	2.778809	2.780176	2.776758	2.776758	2.778809	2.780859	2.780859	2.777441
1639558932181	-124.44	20.984	1001.376	-0.56	-0.14	0.28	-24	-184.5	-115.5	0	0	2.778809	2.782227	2.777441	2.782227	2.776758	2.778809	2.780176	2.778809	2.781543	2.778125	2.778125	2.780176	2.780176	2.778809	2.778809	2.778809
1639558932191	-116.144	20.008	1002.352	-0.56	-1.61	-0.21	-22.5	-178.5	-120	0	0	2.780176	2.777441	2.778809	2.78291	2.780176	2.778809	2.778809	2.777441	2.778809	2.782227	2.780859	2.778125	2.778809	2.777441	2.777441	2.779492
1639558932201	-116.144	14.152	1003.816	-0.91	-1.4	-0.21	-22.5	-177	-118.5	0	0	2.780176	2.778809	2.780176	2.780859	2.777441	2.777441	2.778809	2.780859	2.776758	2.782227	2.777441	2.778809	2.777441	2.780176	2.782227	2.780176
1639558932211	-120.536	24.888	1000.888	-0.49	-0.35	-0.35	-22.5	-184.5	-112.5	0	0	2.780176	2.780859	2.780176	2.780859	2.782227	2.777441	2.780176	2.780176	2.780859	2.778809	2.778809	2.780176	2.780176	2.777441	2.776758	2.777441
1639558932221	-117.608	24.888	1006.256	0	0.35	-0.07	-21	-189	-115.5	0	0	2.778809	2.778809	2.780176	2.780176	2.780859	2.782227	2.782227	2.776758	2.778125	2.780176	2.780859	2.778125	2.777441	2.780176	2.778809	2.778809
1639558932230	-119.072	24.4	1007.232	-0.35	-0.35	-0.14	-24	-189	-120	0	0	2.780176	2.778809	2.778809	2.780859	2.777441	2.782227	2.78291	2.777441	2.778809	2.778809	2.777441	2.780859	2.778809	2.778809	2.778809	2.778809
1639558932240	-122	26.352	1012.6	-0.84	-1.61	-0.28	-24	-186	-117	0	0	2.780176	2.780176	2.780859	2.780176	2.782227	2.780176	2.778809	2.778809	2.778809	2.778809	2.777441	2.780859	2.776074	2.780859	2.778809	2.778125
1639558932250	-111.264	17.08	1000.888	-0.7	-2.94	-0.42	-27	-187.5	-121.5	0	0	2.778809	2.783594	2.780859	2.780176	2.780176	2.78291	2.782227	2.777441	2.780859	2.777441	2.780176	2.776074	2.777441	2.777441	2.777441	2.780859
1639558932260	-110.776	8.296	1007.232	-1.33	-3.43	-0.42	-25.5	-189	-123	0	0	2.78291	2.780859	2.778809	2.78291	2.777441	2.777441	2.780859	2.780859	2.777441	2.778125	2.778125	2.777441	2.776758	2.780176	2.778809	2.780176
1639558932269	-113.704	14.152	1006.744	-0.7	-3.15	-0.21	-24	-189	-117	0	0	2.777441	2.783594	2.778809	2.781543	2.783594	2.780859	2.778809	2.781543	2.778809	2.780176	2.778809	2.781543	2.780176	2.778809	2.777441	2.777441
1639558932279	-123.464	5.368	1015.528	-0.63	-2.59	0.07	-24	-184.5	-114	0	0	2.780859	2.780859	2.780176	2.780176	2.78291	2.78291	2.78291	2.778809	2.778809	2.778809	2.778809	2.780176	2.777441	2.780176	2.780859	2.780859
1639558932289	-116.632	10.736	1010.16	-0.77	-1.47	-0.28	-24	-184.5	-114	0	0	2.78291	2.782227	2.780176	2.780859	2.778809	2.782227	2.780176	2.780176	2.777441	2.778809	2.780859	2.777441	2.780859	2.777441	2.778809	2.777441
1639558932299	-122.488	6.832	1016.016	0	0.56	-0.42	-24	-183	-118.5	0	0	2.778809	2.780859	2.780859	2.780176	2.780176	2.783594	2.780176	2.782227	2.778125	2.777441	2.782227	2.778809	2.780176	2.778809	2.778809	2.780176
1639558932308	-103.944	8.784	1005.28	-0.56	1.54	-0.07	-25.5	-180	-120	0	0	2.778809	2.782227	2.778809	2.782227	2.778809	2.780176	2.780176	2.778809	2.778809	2.778809	2.782227	2.777441	2.778809	2.777441	2.778125	2.778125
1639558932318	-119.56	13.664	993.568	0.35	1.68	-0.07	-25.5	-178.5	-118.5	0	0	2.778809	2.782227	2.780176	2.778809	2.782227	2.780859	2.780859	2.780859	2.778809	2.776758	2.778809	2.778809	2.778809	2.780859	2.780859	2.778125
1639558932328	-118.584	21.96	998.448	-0.49	-0.28	-0.28	-21	-180	-115.5	0	0	2.780859	2.780176	2.777441	2.777441	2.780859	2.78291	2.778809	2.776758	2.778125	2.777441	2.778809	2.778125	2.777441	2.781543	2.777441	2.780176
1639558932338	-111.752	21.96	997.96	-0.91	-1.89	-0.35	-22.5	-181.5	-115.5	0	0	2.78291	2.782227	2.78291	2.782227	2.780859	2.780859	2.778809	2.780176	2.777441	2.777441	2.776758	2.778125	2.780176	2.777441	2.778125	2.777441
1639558932347	-114.192	15.128	1001.864	-0.49	-1.96	-0.28	-30	-178.5	-120	0	0	2.780176	2.780176	2.780176	2.78291	2.782227	2.777441	2.777441	2.778809	2.776758	2.780176	2.779492	2.778809	2.778809	2.778125	2.780176	2.778125
1639558932357	-117.12	20.008	1000.888	-0.63	-1.82	-0.14	-28.5	-180	-118.5	0	0	2.778809	2.783594	2.780176	2.780176	2.782227	2.78291	2.780859	2.78291	2.780859	2.777441	2.780859	2.780176	2.778809	2.778125	2.780859	2.780176
1639558932367	-116.632	11.224	1003.328	-0.42	-1.33	-0.21	-27	-181.5	-121.5	0	0	2.780176	2.78291	2.780859	2.778809	2.777441	2.778809	2.776758	2.778809	2.780859	2.778809	2.776758	2.778125	2.778125	2.777441	2.774707	2.770605
1639558932377	-121.512	12.688	1007.232	-0.7	-1.33	-0.28	-25.5	-175.5	-112.5	0	0	2.783594	2.780859	2.78291	2.780176	2.780859	2.780176	2.777441	2.783594	2.777441	2.777441	2.777441	2.778125	2.778809	2.776758	2.778809	2.778809
1639558932387	-115.656	11.224	1009.184	-0.56	-1.33	-0.42	-30	-178.5	-108	0	0	2.780176	2.782227	2.778809	2.780859	2.777441	2.781543	2.780176	2.78291	2.776758	2.780859	2.782227	2.777441	2.777441	2.778125	2.778809	2.778125
1639558932396	-106.384	16.104	997.96	-0.63	-1.47	-0.35	-30	-180	-115.5	0	0	2.778809	2.78291	2.778809	2.780176	2.778809	2.78291	2.777441	2.780859	2.778125	2.780176	2.778809	2.776758	2.778125	2.780859	2.776758	2.780859
1639558932406	-112.24	12.2	1000.4	-0.63	-1.54	-0.21	-24	-181.5	-114	0	0	2.780176	2.780176	2.78291	2.780176	2.777441	2.780176	2.778809	2.780859	2.778125	2.781543	2.777441	2.780859	2.780859	2.777441	2.778125	2.778809
1639558932416	-119.56	26.84	1012.6	-0.49	-1.61	0	-24	-181.5	-112.5	0	0	2.780859	2.782227	2.782227	2.780859	2.780859	2.782227	2.783594	2.780176	2.778809	2.778125	2.781543	2.782227	2.780176	2.778809	2.778125	2.780859
1639558932426	-118.096	15.616	1013.088	-0.63	-1.68	-0.35	-24	-178.5	-114	0	0	2.778809	2.780859	2.78291	2.780859	2.778809	2.78291	2.780176	2.78291	2.778809	2.780859	2.778125	2.777441	2.778125	2.777441	2.778125	2.778125
1639558932435	-116.632	13.664	1000.888	-0.63	-0.84	-0.35	-24	-175.5	-109.5	0	0	2.782227	2.780859	2.780176	2.780859	2.78291	2.780176	2.777441	2.780859	2.780859	2.777441	2.778809	2.782227	2.777441	2.778125	2.777441	2.780859
1639558932445	-110.776	18.056	1000.4	-0.21	-0.14	-0.21	-25.5	-178.5	-114	0	0	2.780176	2.780859	2.778125	2.782227	2.777441	2.778809	2.780176	2.783594	2.782227	2.780859	2.782227	2.778125	2.777441	2.780859	2.776074	2.780859
1639558932455	-111.752	16.104	1004.792	-0.21	0.14	-0.14	-24	-181.5	-118.5	0	0	2.781543	2.78291	2.780859	2.780859	2.780176	2.782227	2.78291	2.78291	2.777441	2.778809	2.777441	2.778809	2.780176	2.780859	2.778809	2.777441
1639558932465	-112.728	15.616	999.424	-0.42	-0.21	-0.28	-27	-187.5	-120	0	0	2.780859	2.780176	2.780176	2.782227	2.782227	2.777441	2.782227	2.78291	2.777441	2.777441	2.777441	2.778809	2.782227	2.780176	2.778809	2.780859
1639558932474	-121.024	12.2	1003.816	-0.7	-1.89	-0.35	-30	-187.5	-118.5	0	0	2.777441	2.78291	2.780859	2.780859	2.782227	2.777441	2.777441	2.78291	2.780859	2.780859	2.776758	2.781543	2.777441	2.780859	2.780859	2.780859
1639558932484	-108.336	10.736	996.008	-0.84	-2.38	-0.49	-28.5	-180	-118.5	0	0	2.782227	2.780176	2.778809	2.782227	2.782227	2.777441	2.778809	2.780176	2.776758	2.780859	2.778125	2.780859	2.778125	2.780176	2.780176	2.780859
1639558932494	-113.216	13.176	1005.768	-0.91	-1.96	0.07	-24	-178.5	-123	0	0	2.780176	2.777441	2.782227	2.78291	2.780176	2.782227	2.780176	2.780176	2.780176	2.780859	2.778125	2.778809	2.777441	2.780859	2.780859	2.780859
1639558932504	-117.12	3.904	1007.232	-0.28	-0.35	0	-22.5	-177	-118.5	0	0	2.780176	2.777441	2.780859	2.777441	2.778809	2.778809	2.78291	2.778809	2.778125	2.778809	2.778125	2.778809	2.778125	2.778125	2.780176	2.778125
1639558932513	-120.536	16.592	1006.256	0.07	1.12	-0.21	-25.5	-178.5	-114	0	0	2.78291	2.778809	2.777441	2.778809	2.777441	2.783594	2.780176	2.780176	2.780859	2.780859	2.778125	2.780176	2.780859	2.777441	2.776758	2.778809
1639558932523	-116.632	9.272	1001.864	-0.07	1.89	-0.14	-25.5	-189	-112.5	0	0	2.777441	2.78291	2.778809	2.78291	2.780176	2.780176	2.778809	2.780176	2.778125	2.777441	2.781543	2.777441	2.780176	2.780176	2.777441	2.777441
1639558932533	-116.632	20.984	989.664	0	1.68	-0.14	-24	-187.5	-115.5	0	0	2.780176	2.778809	2.778809	2.778125	2.78291	2.782227	2.778809	2.780176	2.778809	2.777441	2.778809	2.78291	2.782227	2.777441	2.778125	2.778125
1639558932543	-113.216	28.792	993.08	-0.07	0.21	-0.21	-19.5	-178.5	-114	0	0	2.778809	2.780176	2.78291	2.778809	2.780176	2.78291	2.778809	2.777441	2.780859	2.777441	2.780859	2.778809	2.778809	2.780859	2.777441	2.778809
1639558932553	-120.048	31.72	997.96	-0.63	-2.03	-0.21	-21	-183	-111	0	0	2.782227	2.778809	2.780176	2.781543	2.78291	2.780176	2.778809	2.780859	2.780859	2.778809	2.778125	2.778125	2.782227	2.776758	2.780176	2.778809
1639558932562	-118.096	25.376	1002.352	-0.84	-3.57	-0.28	-25.5	-187.5	-118.5	0	0	2.778125	2.78291	2.780859	2.782227	2.780176	2.780176	2.780859	2.778809	2.780176	2.777441	2.780176	2.778125	2.778809	2.780859	2.780859	2.778125
1639558932572	-113.704	27.328	1001.864	-0.98	-3.57	-0.35	-24	-177	-117	0	0	2.783594	2.780176	2.778809	2.780859	2.782227	2.78291	2.78291	2.777441	2.780859	2.780176	2.780859	2.780859	2.777441	2.780176	2.777441	2.778125
1639558932582	-118.584	13.664	997.472	-0.42	-1.61	-0.49	-27	-175.5	-120	0	0	2.780859	2.78291	2.781543	2.782227	2.782227	2.78291	2.780859	2.78291	2.777441	2.780859	2.780859	2.778809	2.78291	2.778125	2.778125	2.776758
1639558932592	-107.36	6.832	991.616	0.49	2.24	-0.35	-28.5	-187.5	-123	0	0	2.78291	2.780859	2.780176	2.780176	2.780176	2.780176	2.780859	2.780176	2.780176	2.780859	2.778809	2.778125	2.780859	2.779492	2.777441	2.780859
1639558932601	-158.6	1.464	988.688	2.45	4.62	0.42	-27	-189	-117	0	0	2.780176	2.780859	2.780176	2.777441	2.782227	2.780176	2.780176	2.78291	2.778125	2.777441	2.777441	2.780859	2.780859	2.777441	2.778809	2.777441
1639558932611	-126.88	35.624	1015.528	-1.68	-2.17	0.07	-21	-184.5	-115.5	0	0	2.780176	2.783594	2.778809	2.780176	2.778809	2.778809	2.78291	2.780859	2.778809	2.778809	2.780176	2.778809	2.778125	2.778125	2.778809	2.777441
1639558932621	-91.744	19.032	1013.088	-3.92	-13.79	-1.61	-24	-186	-123	0	0	2.782227	2.78291	2.777441	2.782227	2.780859	2.78291	2.777441	2.780176	2.780176	2.778125	2.780859	2.777441	2.780859	2.780176	2.777441	2.778809
1639558932631	-60.024	3.416	984.784	-2.59	-14	-2.03	-30	-187.5	-123	0	0	2.780859	2.780859	2.780859	2.78291	2.782227	2.780176	2.782227	2.780176	2.780176	2.780859	2.780859	2.780859	2.778125	2.777441	2.777441	2.777441
1639558932640	-85.4	-17.568	993.568	1.89	-8.96	-0.21	-33	-192	-123	0	0	2.780859	2.780859	2.780176	2.78291	2.780176	2.777441	2.778809	2.778809	2.780859	2.777441	2.778125	2.778809	2.776758	2.777441	2.777441	2.780859
1639558932650	-137.616	-26.84	1006.744	-1.89	-8.75	5.67	-27	-184.5	-115.5	0	0	2.780859	2.780176	2.78291	2.780176	2.778809	2.782227	2.780176	2.780176	2.776758	2.780859	2.777441	2.777441	2.777441	2.777441	2.778809	2.777441
1639558932660	-135.176	22.448	1015.04	-1.12	-4.2	4.76	-25.5	-183	-115.5	0	0	2.780859	2.777441	2.780859	2.782227	2.78291	2.777441	2.780176	2.78291	2.777441	2.781543	2.778809	2.778809	2.777441	2.778809	2.778809	2.780859
1639558932670	-122.488	32.208	1034.56	0.35	2.31	-0.98	-31.5	-187.5	-121.5	0	0	2.78291	2.780176	2.781543	2.778809	2.777441	2.777441	2.780176	2.780859	2.777441	2.778125	2.780859	2.782227	2.778809	2.777441	2.777441	2.780176
1639558932679	-78.08	13.664	989.664	0.63	4.69	-3.36	-33	-183	-121.5	0	0	2.780176	2.777441	2.78291	2.777441	2.780176	2.782227	2.778809	2.782227	2.780859	2.778809	2.780859	2.780176	2.778809	2.776758	2.777441	2.778125
1639558932689	-83.936	12.688	987.224	0.91	1.12	-0.07	-30	-177	-120	0	0	2.782227	2.780859	2.783594	2.78291	2.776758	2.780859	2.778809	2.782227	2.780176	2.778809	2.778125	2.780859	2.777441	2.777441	2.780176	2.777441
1639558932699	-111.264	19.52	1009.672	-1.82	-5.81	2.24	-27	-175.5	-118.5	0	0	2.782227	2.778809	2.778809	2.780859	2.778809	2.782227	2.780176	2.782227	2.778809	2.778125	2.780176	2.770605	2.777441	2.778125	2.778809	2.777441
1639558932709	-128.344	32.208	1017.968	-2.52	-8.05	1.47	-31.5	-177	-115.5	0	0	2.781543	2.780859	2.78291	2.782227	2.780176	2.780176	2.782227	2.780859	2.778125	2.780859	2.777441	2.777441	2.777441	2.777441	2.780859	2.778809
1639558932719	-128.344	17.08	1011.624	-0.91	-3.15	-1.82	-36	-178.5	-120	0	0	2.780859	2.780859	2.780176	2.778809	2.780176	2.780176	2.778809	2.782227	2.778809	2.776758	2.778125	2.781543	2.778809	2.780859	2.777441	2.777441
1639558932728	-109.8	7.808	1025.776	0.7	3.22	-2.94	-28.5	-181.5	-117	0	0	2.780859	2.780176	2.780176	2.778809	2.777441	2.78291	2.777441	2.783594	2.780176	2.780859	2.778809	2.776074	2.776758	2.778125	2.780176	2.782227
1639558932738	-116.632	4.392	1009.672	0.49	6.58	-0.42	-25.5	-181.5	-117	0	0	2.782227	2.780859	2.780859	2.780176	2.778809	2.780859	2.777441	2.783594	2.778125	2.778125	2.776758	2.780176	2.780859	2.780859	2.777441	2.778809
1639558932748	-102.48	22.936	995.52	0.35	5.67	-0.07	-28.5	-177	-118.5	0	0	2.78291	2.780176	2.780176	2.777441	2.778809	2.780176	2.780176	2.777441	2.778809	2.776074	2.778809	2.778125	2.776758	2.780176	2.780859	2.778809
1639558932758	-99.552	17.08	989.664	-0.35	-1.12	-0.07	-30	-181.5	-121.5	0	0	2.777441	2.777441	2.776074	2.782227	2.777441	2.78291	2.780859	2.78291	2.780176	2.780176	2.572363	2.778809	2.778809	2.780176	2.778125	2.778125
1639558932767	-98.576	23.424	990.152	-0.56	-5.81	0.07	-30	-184.5	-115.5	0	0	2.780859	2.780859	2.780176	2.78291	2.778809	2.78291	2.777441	2.78291	2.780859	2.780176	2.132129	2.780859	2.778809	2.780859	2.777441	2.777441
1639558932777	-117.608	20.984	1004.792	-2.38	-8.19	0.35	-31.5	-187.5	-115.5	0	0	2.782227	2.780176	2.780176	2.780859	2.782227	2.780176	2.776758	2.778809	2.780859	2.780859	1.960547	2.780859	2.780859	2.782227	2.778809	2.776758
1639558932787	-128.344	11.712	1003.328	-1.26	-6.3	0.7	-33	-187.5	-124.5	0	0	2.777441	2.780176	2.780859	2.777441	2.776758	2.780176	2.780859	2.783594	2.780859	2.778809	1.654297	2.778125	2.780176	2.778809	2.778809	2.778809
1639558932797	-117.608	20.984	1026.264	-0.63	-2.17	0.35	-34.5	-184.5	-126	0	0	2.780176	2.782227	2.780859	2.780859	2.780859	2.780176	2.780176	2.777441	2.776758	2.777441	1.484082	2.780176	2.778809	2.780859	2.780176	2.780859
1639558932806	-111.752	16.104	1005.768	-0.21	1.61	-0.7	-30	-180	-126	0	0	2.783594	2.780859	2.782227	2.780176	2.780859	2.780859	2.780176	2.778809	2.777441	2.778809	1.389063	2.780176	2.778125	2.780859	2.778809	2.780859
1639558932816	-99.064	16.592	1000.888	0.21	3.43	-1.12	-30	-186	-121.5	0	0	2.783594	2.780859	2.780176	2.780859	2.778809	2.782227	2.776758	2.780859	2.778125	2.778809	1.290625	2.778125	2.782227	2.777441	2.777441	2.778809
1639558932826	-92.72	9.272	1001.376	0.14	1.82	-0.56	-30	-187.5	-120	0	0	2.780859	2.782227	2.780176	2.778809	2.776758	2.777441	2.778809	2.780176	2.780176	2.777441	1.145703	2.778809	2.778809	2.780176	2.777441	2.778809
1639558932836	-103.944	13.664	999.424	-0.42	-1.05	-0.35	-34.5	-184.5	-120	0	0	2.777441	2.780859	2.778809	2.780176	2.780176	2.782227	2.782227	2.782227	2.777441	2.780859	1.091016	2.777441	2.780176	2.780859	2.780859	2.777441
1639558932846	-110.288	6.832	1002.84	-1.05	-3.43	-0.28	-33	-183	-118.5	0	0	2.780176	2.782227	2.780176	2.780859	2.780176	2.778809	2.777441	2.780859	2.780859	2.780176	1.045898	2.780176	2.780859	2.777441	2.780859	2.780859
1639558932855	-110.288	6.832	1000.4	-0.7	-3.64	-0.21	-28.5	-183	-120	0	0	2.780176	2.782227	2.782227	2.778809	2.780176	2.777441	2.780176	2.780859	2.777441	2.780176	1.000781	2.777441	2.780176	2.778809	2.780859	2.777441
1639558932865	-117.12	8.784	1008.208	-0.77	-2.24	-0.14	-27	-184.5	-115.5	0	0	2.782227	2.780859	2.778809	2.777441	2.776758	2.780176	2.78291	2.780176	2.777441	2.780176	0.9378906	2.780176	2.780176	2.778809	2.780859	2.781543
1639558932875	-101.504	17.568	999.424	-0.63	-0.91	-0.21	-36	-183	-115.5	0	0	2.780859	2.780176	2.780859	2.777441	2.78291	2.778809	2.780176	2.780176	2.780176	2.776758	0.8955078	2.780176	2.780176	2.780859	2.780859	2.778125
1639558932885	-97.112	19.52	1002.352	-0.42	-0.84	0	-33	-178.5	-123	0	0	2.780176	2.78291	2.780859	2.783594	2.782227	2.780176	2.777441	2.780176	2.777441	2.780859	0.9057617	2.778809	2.780859	2.778125	2.778809	2.778809
1639558932894	-99.064	21.472	1008.696	-0.84	-1.82	0	-24	-189	-124.5	0	0	2.78291	2.780176	2.78291	2.782227	2.78291	2.780176	2.78291	2.780176	2.778809	2.777441	0.9098633	2.777441	2.776758	2.780176	2.780859	2.776758
1639558932904	-99.552	22.448	1011.624	-0.91	-2.45	-0.07	-31.5	-189	-118.5	0	0	2.782227	2.778809	2.782227	2.780176	2.78291	2.780176	2.781543	2.778809	2.780859	2.782227	0.9563476	2.780859	2.780176	2.777441	2.777441	2.780859
1639558932914	-110.288	25.864	1008.696	-0.84	-1.61	-0.07	-33	-181.5	-114	0	0	2.780176	2.780176	2.780859	2.780176	2.778809	2.780859	2.783594	2.780176	2.780859	2.782227	0.7307617	2.780859	2.780859	2.780859	2.780176	2.777441
1639558932924	-116.632	21.472	1008.696	-0.21	1.26	-0.21	-27	-187.5	-120	0	0	2.780859	2.778809	2.782227	2.777441	2.776758	2.781543	2.780176	2.782227	2.780859	2.777441	0.7041016	2.779492	2.780859	2.780176	2.778809	2.780859
1639558932933	-120.536	20.984	1004.792	0.49	5.04	-0.07	-27	-187.5	-123	0	0	2.783594	2.778809	2.78291	2.780859	2.782227	2.780176	2.780859	2.780176	2.778809	2.780859	0.6876953	2.778809	2.780176	2.780859	2.778125	2.780176
1639558932943	-125.416	20.008	998.936	0.98	7.35	-0.21	-28.5	-184.5	-115.5	0	0	2.780176	2.780176	2.780859	2.776758	2.783594	2.780859	2.778809	2.78291	2.778809	2.777441	0.6583008	2.776758	2.778125	2.777441	2.782227	2.777441
1639558932953	-110.288	22.448	976.488	0.91	6.09	-0.14	-33	-184.5	-121.5	0	0	2.780176	2.780176	2.780176	2.778809	2.778809	2.78291	2.782227	2.78291	2.782227	2.777441	0.6487305	2.780176	2.777441	2.780859	2.776758	2.780176
1639558932963	-117.608	20.008	984.784	0.42	2.03	-0.35	-33	-184.5	-123	0	0	2.780859	2.78291	2.782227	2.78291	2.777441	2.780176	2.783594	2.780176	2.777441	2.780859	0.6398438	2.778125	2.780859	2.780176	2.778809	2.778809
1639558932972	-127.368	13.664	994.544	-1.05	-3.22	-0.21	-30	-184.5	-121.5	0	0	2.780176	2.778809	2.78291	2.782227	2.780176	2.782227	2.777441	2.780176	2.777441	2.776758	0.6391602	2.777441	2.778809	2.776758	2.778809	2.778809
1639558932982	-115.168	18.056	985.76	-1.47	-7.77	-0.21	-25.5	-178.5	-120	0	0	2.777441	2.777441	2.78291	2.780176	2.782227	2.778809	2.78291	2.777441	2.780176	2.780176	0.6179687	2.777441	2.776758	2.777441	2.777441	2.780859
1639558932992	-120.048	12.688	1003.328	-2.03	-10.29	-0.35	-24	-181.5	-118.5	0	0	2.78291	2.780859	2.782227	2.780176	2.778809	2.777441	2.777441	2.777441	2.778125	2.780859	0.6036133	2.777441	2.780859	2.780176	2.777441	2.780176
1639558933002	-108.824	10.736	1012.6	-1.89	-9.73	-0.7	-30	-180	-121.5	0	0	2.777441	2.777441	2.777441	2.777441	2.780176	2.780176	2.780176	2.778809	2.780176	2.780859	0.5926757	2.778125	2.780176	2.780176	2.778809	2.778809
1639558933012	-107.848	7.32	1000.888	-1.33	-7.35	-1.19	-36	-184.5	-118.5	0	0	2.780176	2.780176	2.777441	2.78291	2.780176	2.778809	2.782227	2.78291	2.778809	2.777441	0.590625	2.777441	2.776758	2.776758	2.778809	2.780859
1639558933021	-94.672	-3.904	1015.04	-0.07	-3.92	-0.98	-34.5	-189	-120	0	0	2.777441	2.778809	2.780176	2.780859	2.780176	2.778809	2.780859	2.776758	2.778809	2.777441	0.5625976	2.776758	2.777441	2.771973	2.776758	2.770605
1639558933031	-94.672	5.856	1028.704	-0.7	-2.03	-0.21	-34.5	-189	-120	0	0	2.780176	2.780176	2.776758	2.778809	2.78291	2.780176	2.778809	2.780176	2.778125	2.782227	0.5591797	2.776758	2.778125	2.777441	2.776758	2.780176
1639558933041	-101.016	10.248	1018.456	-0.14	-0.7	0.35	-28.5	-184.5	-121.5	0	0	2.780859	2.778809	2.78291	2.782227	2.777441	2.780176	2.780176	2.782227	2.778125	2.778809	0.5591797	2.781543	2.778809	2.777441	2.782227	2.778809
1639558933051	-104.92	8.784	1015.04	-0.07	1.47	-0.21	-27	-181.5	-118.5	0	0	2.780176	2.780859	2.78291	2.780859	2.783594	2.780176	2.78291	2.78291	2.778809	2.780859	0.5550781	2.777441	2.777441	2.778809	2.778809	2.777441
1639558933060	-100.528	17.08	1006.256	0.21	2.87	-0.28	-34.5	-184.5	-115.5	0	0	2.778809	2.777441	2.781543	2.783594	2.782227	2.777441	2.778809	2.780859	2.777441	2.780176	0.5379882	2.778809	2.778125	2.780176	2.780859	2.778809
1639558933070	-115.168	11.224	996.496	0.28	3.29	-0.14	-34.5	-183	-112.5	0	0	2.780176	2.780859	2.780176	2.783594	2.778809	2.782227	2.777441	2.783594	2.777441	2.778125	0.5311523	2.777441	2.777441	2.777441	2.780176	2.780176
1639558933080	-116.632	17.568	994.056	0.14	3.08	-0.14	-28.5	-181.5	-121.5	0	0	2.778809	2.778809	2.780859	2.780176	2.782227	2.780176	2.780859	2.783594	2.782227	2.778809	0.5277343	2.778125	2.777441	2.777441	2.778125	2.778809
1639558933090	-117.12	19.032	1000.888	0	2.03	-0.21	-30	-183	-124.5	0	0	2.783594	2.780176	2.780859	2.78291	2.783594	2.778809	2.779492	2.78291	2.780176	2.778809	0.5208984	2.777441	2.776758	2.778125	2.780859	2.782227
1639558933099	-105.408	23.424	990.152	-0.49	0.07	-0.14	-33	-181.5	-124.5	0	0	2.778809	2.780176	2.783594	2.782227	2.780176	2.782227	2.778809	2.778809	2.778125	2.776758	0.5106445	2.776758	2.776758	2.778125	2.780859	2.778809
1639558933109	-101.992	24.888	993.08	-0.91	-2.52	-0.21	-31.5	-183	-127.5	0	0	2.780176	2.782227	2.78291	2.782227	2.78291	2.777441	2.780859	2.780176	2.780859	2.780176	0.5058594	2.778809	2.780176	2.778125	2.780859	2.778809
1639558933119	-105.408	17.08	992.592	-0.98	-4.62	-0.14	-28.5	-186	-118.5	0	0	2.777441	2.778809	2.780859	2.782227	2.783594	2.780176	2.783594	2.780176	2.778809	2.778809	0.5079101	2.778809	2.780859	2.778809	2.780859	2.777441
1639558933129	-108.824	17.08	1004.304	-1.19	-5.32	-0.07	-28.5	-187.5	-118.5	0	0	2.778809	2.780176	2.78291	2.782227	2.782227	2.780859	2.777441	2.778809	2.780176	2.778809	0.5038086	2.778125	2.778125	2.782227	2.777441	2.780859
1639558933138	-110.288	14.152	1011.136	-1.05	-4.13	-0.07	-30	-186	-121.5	0	0	2.778809	2.782227	2.780859	2.780859	2.777441	2.778809	2.778809	2.777441	2.778809	2.777441	0.4942383	2.776758	2.780859	2.778809	2.776758	2.777441
1639558933148	-103.944	25.376	1007.72	-0.7	-3.08	-0.14	-31.5	-184.5	-120	0	0	2.780176	2.778809	2.780176	2.780176	2.780176	2.776758	2.780859	2.782227	2.780859	2.780176	0.4928711	2.778125	2.778809	2.777441	2.782227	2.782227
1639558933158	-106.872	10.736	1010.16	-0.42	-1.33	-0.14	-33	-187.5	-121.5	0	0	2.780176	2.780176	2.780176	2.777441	2.780176	2.780176	2.78291	2.778809	2.778125	2.778809	0.4874023	2.777441	2.778809	2.778809	2.780859	2.780859
1639558933168	-101.504	5.368	1005.768	-0.28	0.35	-0.28	-33	-186	-126	0	0	2.780176	2.777441	2.778809	2.780859	2.78291	2.782227	2.782227	2.777441	2.776758	2.780859	0.4901367	2.780859	2.778125	2.778125	2.778809	2.778809
1639558933178	-106.384	7.32	1009.184	-0.28	1.82	-0.28	-27	-180	-126	0	0	2.780859	2.78291	2.782227	2.777441	2.778809	2.780859	2.782227	2.777441	2.777441	2.780176	0.4737305	2.776074	2.780859	2.778125	2.778809	2.782227
1639558933187	-103.456	10.736	999.424	0.07	2.31	-0.28	-27	-181.5	-126	0	0	2.778809	2.78291	2.780859	2.778809	2.782227	2.780176	2.776758	2.780176	2.780859	2.777441	0.4737305	2.782227	2.776758	2.780176	2.780176	2.780859
1639558933197	-115.168	15.128	994.544	0.21	1.54	-0.21	-31.5	-184.5	-123	0	0	2.780859	2.778809	2.780859	2.78291	2.780176	2.778809	2.782227	2.778809	2.777441	2.778809	0.4703125	2.777441	2.778809	2.776758	2.780859	2.781543
1639558933207	-105.896	15.128	996.984	-0.28	0.14	-0.21	-28.5	-190.5	-120	0	0	2.780176	2.780859	2.777441	2.778809	2.782227	2.78291	2.778809	2.780859	2.780859	2.780176	0.4655273	2.778809	2.780859	2.778809	2.777441	2.778809
1639558933217	-109.8	13.176	987.712	-0.35	-1.68	-0.28	-30	-184.5	-123	0	0	2.778809	2.78291	2.780176	2.780176	2.780859	2.780859	2.780176	2.782227	2.778809	2.778125	0.4621094	2.778125	2.778125	2.778125	2.777441	2.778809
1639558933226	-101.016	20.008	998.936	-0.7	-3.64	-0.14	-31.5	-181.5	-123	0	0	2.778809	2.777441	2.780176	2.782227	2.782227	2.780859	2.777441	2.780859	2.778125	2.777441	0.4621094	2.781543	2.777441	2.778809	2.778809	2.778809
1639558933236	-104.432	16.592	1005.28	-1.26	-5.11	-0.14	-28.5	-189	-118.5	0	0	2.782227	2.782227	2.778809	2.780859	2.780176	2.777441	2.777441	2.781543	2.780176	2.782227	0.4573242	2.777441	2.780176	2.777441	2.777441	2.781543
1639558933246	-105.896	15.616	1005.768	-1.12	-5.74	-0.21	-28.5	-186	-124.5	0	0	2.780176	2.780176	2.78291	2.778809	2.780176	2.780176	2.780176	2.778809	2.777441	2.778809	0.459375	2.778809	2.782227	2.782227	2.777441	2.780859
1639558933256	-105.408	21.96	1005.768	-0.98	-5.32	-0.21	-25.5	-181.5	-120	0	0	2.778809	2.777441	2.782227	2.78291	2.778809	2.780859	2.780176	2.780859	2.780176	2.780859	0.4545898	2.777441	2.777441	2.778809	2.780859	2.781543
1639558933265	-101.992	13.664	1013.088	-0.98	-4.13	-0.56	-30	-181.5	-111	0	0	2.777441	2.779492	2.78291	2.780859	2.782227	2.780176	2.78291	2.783594	2.778809	2.780859	0.4532227	2.781543	2.778125	2.778125	2.777441	2.780176
1639558933275	-97.112	14.64	1009.672	-0.21	-1.96	-0.42	-36	-183	-114	0	0	2.780176	2.780176	2.780859	2.778809	2.778809	2.778809	2.78291	2.782227	2.777441	2.776758	0.4504883	2.776758	2.777441	2.782227	2.778125	2.780176
1639558933285	-100.04	14.64	1017.48	0.07	0.28	-0.14	-33	-184.5	-121.5	0	0	2.782227	2.780859	2.780176	2.782227	2.78291	2.778809	2.780176	2.778809	2.778125	2.778125	0.4525391	2.780176	2.781543	2.778809	2.777441	2.777441
1639558933295	-108.824	3.904	1012.6	-0.28	1.54	-0.21	-30	-181.5	-120	0	0	2.780859	2.782227	2.782227	2.778809	2.778809	2.778809	2.777441	2.777441	2.778125	2.782227	0.4498047	2.780176	2.777441	2.778809	2.780859	2.777441
1639558933304	-96.624	13.176	1004.792	-0.14	2.1	-0.28	-33	-178.5	-123	0	0	2.782227	2.778809	2.778809	2.782227	2.783594	2.781543	2.780176	2.777441	2.777441	2.778125	0.4463867	2.778125	2.776758	2.776758	2.778809	2.777441
1639558933314	-104.432	8.296	1002.352	0	1.61	-0.28	-34.5	-178.5	-123	0	0	2.780176	2.780176	2.780176	2.78291	2.782227	2.777441	2.778809	2.78291	2.777441	2.780859	0.4477539	2.778125	2.777441	2.778125	2.777441	2.780859
1639558933324	-100.528	13.664	1002.84	-0.35	0.21	-0.14	-34.5	-183	-117	0	0	2.78291	2.782227	2.780859	2.777441	2.778809	2.782227	2.778809	2.780176	2.780176	2.777441	0.4504883	2.782227	2.777441	2.778125	2.777441	2.778809
1639558933334	-99.064	20.008	994.544	-0.7	-2.17	-0.28	-28.5	-187.5	-117	0	0	2.778809	2.780176	2.782227	2.78291	2.780859	2.778125	2.777441	2.780176	2.778125	2.778809	0.4491211	2.777441	2.778125	2.778809	2.778809	2.780176
1639558933344	-116.144	15.128	1002.352	-0.56	-2.03	-0.28	-27	-186	-123	0	0	2.780859	2.780176	2.774707	2.778809	2.780176	2.780859	2.78291	2.78291	2.778809	2.776758	0.4457031	2.771289	2.778809	2.777441	2.778125	2.776758
1639558933353	-111.264	11.712	1004.304	-0.56	-1.54	-0.14	-34.5	-183	-123	0	0	2.780859	2.780176	2.778809	2.783594	2.778809	2.777441	2.78291	2.78291	2.780859	2.778809	0.4477539	2.778125	2.782227	2.778809	2.780859	2.782227
1639558933363	-110.288	20.496	1006.744	-0.7	-1.19	-0.14	-33	-184.5	-123	0	0	2.778809	2.778809	2.780176	2.780176	2.778809	2.778809	2.778809	2.780176	2.776758	2.779492	0.4511719	2.782227	2.778125	2.777441	2.778809	2.777441
1639558933373	-101.504	20.496	1008.208	-0.7	-1.96	-0.14	-33	-183	-123	0	0	2.78291	2.782227	2.78291	2.778809	2.78291	2.777441	2.780176	2.777441	2.780859	2.778125	0.4573242	2.779492	2.778809	2.780176	2.778809	2.778809
1639558933383	-95.16	22.936	1008.208	-1.12	-3.71	-0.28	-36	-184.5	-121.5	0	0	2.780176	2.780859	2.782227	2.780859	2.778809	2.780176	2.780859	2.78291	2.776758	2.780176	0.4607422	2.778809	2.777441	2.778809	2.778125	2.778125
1639558933392	-94.672	22.936	1008.208	-1.19	-4.2	-0.35	-34.5	-186	-117	0	0	2.782227	2.780176	2.782227	2.780859	2.778809	2.778809	2.780176	2.778809	2.778809	2.780176	0.4614258	2.778809	2.777441	2.780176	2.777441	2.782227
1639558933402	-100.04	7.32	1007.72	-0.98	-2.31	-0.35	-31.5	-189	-121.5	0	0	2.780859	2.778809	2.782227	2.782227	2.780859	2.777441	2.780176	2.780859	2.777441	2.777441	0.462793	2.776758	2.780176	2.780859	2.777441	2.778809
1639558933412	-108.336	8.296	1005.768	0.14	1.89	-0.07	-33	-187.5	-123	0	0	2.778809	2.782227	2.78291	2.78291	2.778809	2.783594	2.780859	2.780176	2.777441	2.778809	0.4709961	2.777441	2.780859	2.776758	2.780176	2.776074
1639558933422	-119.56	13.664	1016.016	0.49	5.53	0.14	-34.5	-183	-123	0	0	2.780859	2.780176	2.780176	2.782227	2.778809	2.778809	2.782227	2.780176	2.778809	2.780859	0.4757812	2.777441	2.780176	2.778809	2.780859	2.782227
1639558933431	-111.264	11.224	995.52	0.63	6.58	-0.21	-33	-183	-117	0	0	2.780176	2.782227	2.782227	2.780176	2.780176	2.78291	2.780859	2.778809	2.780859	2.780176	0.4737305	2.777441	2.780859	2.778125	2.778809	2.778809
1639558933441	-107.36	16.592	988.688	0.28	3.78	-0.14	-31.5	-180	-115.5	0	0	2.777441	2.78291	2.780859	2.782227	2.778809	2.782227	2.780859	2.776758	2.778125	2.778809	0.4730469	2.780859	2.780859	2.778125	2.780176	2.780176
1639558933451	-100.528	21.472	988.688	-0.49	-1.61	-0.35	-30	-184.5	-117	0	0	2.778809	2.777441	2.780859	2.778809	2.780859	2.780176	2.781543	2.780859	2.780859	2.780859	0.4696289	2.780176	2.777441	2.777441	2.778125	2.780176
1639558933461	-103.944	16.592	995.52	-1.47	-5.53	-0.21	-31.5	-190.5	-112.5	0	0	2.780176	2.780859	2.780859	2.778809	2.783594	2.780176	2.780176	2.782227	2.778809	2.776758	0.4703125	2.778809	2.777441	2.778809	2.777441	2.778125
1639558933471	-107.36	12.688	999.424	-1.68	-8.05	-0.28	-36	-190.5	-118.5	0	0	2.780176	2.778809	2.780176	2.783594	2.782227	2.78291	2.780859	2.777441	2.780859	2.778809	0.4634766	2.780859	2.778125	2.780859	2.781543	2.777441
1639558933480	-125.416	9.272	1010.648	-0.84	-3.08	0	-34.5	-184.5	-120	0	0	2.778809	2.78291	2.782227	2.783594	2.780176	2.783594	2.780176	2.780176	2.782227	2.780176	0.4607422	2.782227	2.778125	2.780859	2.778809	2.778809
1639558933490	-112.728	13.176	1000.888	0.28	1.82	-0.35	-30	-187.5	-118.5	0	0	2.777441	2.78291	2.778809	2.782227	2.777441	2.782227	2.780176	2.78291	2.778125	2.780859	0.459375	2.778125	2.778809	2.780859	2.778125	2.777441
1639558933500	-97.112	13.176	1004.792	0.63	3.85	-0.14	-30	-190.5	-120	0	0	2.780859	2.783594	2.780176	2.778809	2.783594	2.780176	2.777441	2.778809	2.776758	2.777441	0.455957	2.778809	2.782227	2.778809	2.778125	2.780176
1639558933510	-104.432	17.08	999.912	-0.07	0.91	-0.21	-30	-184.5	-118.5	0	0	2.780176	2.778809	2.778809	2.777441	2.777441	2.777441	2.778809	2.780859	2.780176	2.778809	0.4539062	2.776758	2.777441	2.778809	2.777441	2.780859
1639558933519	-100.04	16.104	999.424	-1.12	-4.34	-0.35	-31.5	-181.5	-114	0	0	2.780859	2.78291	2.782227	2.781543	2.780176	2.777441	2.780859	2.778809	2.780176	2.777441	0.4504883	2.780859	2.778809	2.782227	2.777441	2.778809
1639558933529	-95.648	17.568	1012.112	-1.89	-8.4	-0.63	-33	-183	-117	0	0	2.778809	2.778809	2.78291	2.780859	2.783594	2.780859	2.778809	2.780859	2.778125	2.778125	0.4450195	2.777441	2.778809	2.778125	2.778809	2.778809
1639558933539	-89.792	3.416	1015.528	-1.89	-9.03	-1.12	-33	-180	-121.5	0	0	2.782227	2.780859	2.78291	2.776758	2.780859	2.778809	2.78291	2.778809	2.780859	2.780859	0.4436523	2.778809	2.780176	2.777441	2.777441	2.780859
1639558933549	-102.968	-11.224	1013.576	-1.89	-5.04	-0.91	-30	-180	-118.5	0	0	2.780176	2.777441	2.780176	2.777441	2.780859	2.78291	2.780176	2.778809	2.782227	2.780859	0.4457031	2.780859	2.782227	2.780859	2.777441	2.778809
1639558933558	-107.36	-4.88	1018.944	0.7	1.82	0.07	-33	-187.5	-118.5	0	0	2.778809	2.780859	2.780859	2.78291	2.777441	2.780176	2.778809	2.780176	2.780859	2.777441	0.4463867	2.780176	2.780859	2.776758	2.776758	2.782227
1639558933568	-112.24	7.32	1010.16	1.05	5.95	0.56	-33	-181.5	-123	0	0	2.780176	2.780176	2.782227	2.777441	2.780176	2.780176	2.778809	2.780859	2.780859	2.780859	0.4416015	2.778809	2.776758	2.777441	2.780859	2.778125
1639558933578	-101.992	3.904	1000.888	0.91	7.21	-0.35	-30	-181.5	-123	0	0	2.783594	2.776758	2.782227	2.776758	2.780176	2.78291	2.778809	2.780859	2.777441	2.778809	0.4402344	2.778809	2.777441	2.778125	2.780176	2.777441
1639558933588	-104.432	14.152	987.712	0.77	5.46	-0.07	-28.5	-183	-124.5	0	0	2.780859	2.782227	2.777441	2.780859	2.778809	2.782227	2.782227	2.782227	2.777441	2.776074	0.440918	2.780176	2.778125	2.780859	2.780176	2.778809
1639558933597	-103.456	20.008	987.224	0.35	1.89	-0.14	-27	-189	-124.5	0	0	2.782227	2.783594	2.777441	2.780859	2.780859	2.778809	2.777441	2.777441	2.780859	2.780859	0.440918	2.780859	2.778809	2.778809	2.778809	2.780859
1639558933607	-120.536	16.592	991.128	-0.49	-1.4	0	-28.5	-190.5	-120	0	0	2.782227	2.780176	2.778809	2.780176	2.780176	2.780859	2.778809	2.782227	2.778809	2.776758	0.4375	2.778809	2.778809	2.780859	2.777441	2.780176
1639558933617	-123.952	26.352	996.008	-0.77	-3.64	0.07	-28.5	-184.5	-117	0	0	2.780176	2.780176	2.780176	2.780176	2.778809	2.78291	2.780176	2.78291	2.778809	2.780859	0.4375	2.777441	2.778809	2.777441	2.780859	2.782227
1639558933627	-110.776	20.008	995.032	-1.19	-5.18	-0.21	-34.5	-184.5	-118.5	0	0	2.78291	2.782227	2.777441	2.780176	2.778809	2.777441	2.780176	2.780176	2.777441	2.778125	0.440918	2.778809	2.780859	2.782227	2.776758	2.778809
1639558933637	-101.992	18.056	1007.232	-1.26	-6.58	-0.49	-33	-184.5	-118.5	0	0	2.778809	2.776758	2.78291	2.78291	2.780176	2.780176	2.777441	2.778809	2.780176	2.778809	0.440918	2.778125	2.780859	2.777441	2.780176	2.780176
1639558933646	-87.352	20.008	1012.6	-1.54	-8.82	-1.47	-28.5	-181.5	-120	0	0	2.780176	2.780176	2.778125	2.780176	2.780176	2.783594	2.780176	2.780176	2.780859	2.777441	0.4368164	2.778809	2.776758	2.776074	2.780859	2.777441
1639558933656	-73.688	9.272	1012.112	-2.8	-11.76	-1.33	-31.5	-181.5	-118.5	0	0	2.780176	2.780176	2.780176	2.780176	2.78291	2.782227	2.780176	2.78291	2.780859	2.780176	0.4402344	2.780176	2.778809	2.778809	2.776074	2.777441
1639558933666	-79.544	-0.976	1010.16	-2.73	-12.39	0.14	-33	-184.5	-118.5	0	0	2.778809	2.778809	2.780176	2.780859	2.778809	2.779492	2.777441	2.780176	2.777441	2.778125	0.4395508	2.776758	2.77334	2.776074	2.778809	2.778125
1639558933676	-82.96	1.464	1018.944	-1.4	-9.24	1.75	-33	-180	-118.5	0	0	2.780176	2.778809	2.777441	2.780859	2.778809	2.783594	2.777441	2.776758	2.780859	2.778809	0.4388672	2.780176	2.780176	2.778809	2.778809	2.778809
1639558933685	-111.752	-1.952	1022.848	-0.42	-1.82	2.24	-37.5	-178.5	-123	0	0	2.780176	2.782227	2.782227	2.777441	2.780176	2.777441	2.78291	2.778809	2.778809	2.776758	0.4422852	2.780176	2.780176	2.778125	2.778125	2.778125
1639558933695	-114.192	12.2	1019.432	2.24	7.63	0.7	-33	-184.5	-127.5	0	0	2.780859	2.783594	2.783594	2.78291	2.778809	2.782227	2.780176	2.782227	2.778809	2.777441	0.4422852	2.777441	2.778125	2.778125	2.778809	2.780859
1639558933705	-118.096	28.792	1066.28	2.38	13.16	-0.77	-28.5	-186	-123	0	0	2.777441	2.777441	2.777441	2.777441	2.782227	2.783594	2.780176	2.782227	2.782227	2.778809	0.4416015	2.780859	2.777441	2.778809	2.780859	2.782227
1639558933715	-101.016	17.568	978.44	1.47	11.76	-0.42	-31.5	-184.5	-120	0	0	2.777441	2.780176	2.780176	2.778809	2.782227	2.783594	2.780859	2.777441	2.778809	2.780176	0.4416015	2.778125	2.778809	2.780176	2.780859	2.780176
1639558933724	-95.648	17.08	980.88	0.84	7.07	-0.14	-33	-189	-123	0	0	2.776758	2.780176	2.783594	2.776758	2.780176	2.780176	2.78291	2.780176	2.780859	2.780859	0.4361328	2.778809	2.780176	2.780859	2.778809	2.780859
1639558933734	-108.336	12.2	985.272	-0.49	-0.14	-0.28	-31.5	-186	-121.5	0	0	2.782227	2.780176	2.780176	2.780176	2.78291	2.78291	2.777441	2.778809	2.777441	2.778125	0.4354492	2.780859	2.778125	2.780176	2.777441	2.778125
1639558933744	-112.24	22.448	989.664	-1.26	-5.95	-0.35	-30	-177	-126	0	0	2.78291	2.78291	2.780176	2.780176	2.780859	2.777441	2.780176	2.780176	2.778809	2.777441	0.4354492	2.777441	2.778809	2.776758	2.777441	2.780176
1639558933754	-122.488	15.616	999.912	-1.82	-8.68	-0.28	-28.5	-184.5	-130.5	0	0	2.780859	2.780859	2.780859	2.780176	2.780176	2.782227	2.778809	2.777441	2.782227	2.778809	0.434082	2.780859	2.780176	2.780859	2.777441	2.777441
1639558933763	-108.336	10.736	1013.088	-1.68	-7.21	-0.28	-28.5	-184.5	-124.5	0	0	2.780176	2.782227	2.780176	2.780859	2.777441	2.780176	2.778809	2.778809	2.780176	2.778809	0.4327148	2.776758	2.782227	2.778809	2.778809	2.778809
1639558933773	-85.4	20.496	1011.136	-1.05	-4.83	-0.56	-36	-193.5	-124.5	0	0	2.781543	2.780859	2.777441	2.777441	2.778809	2.780176	2.780859	2.777441	2.778125	2.778125	0.4333984	2.777441	2.778125	2.780859	2.778809	2.778809
1639558933783	-75.64	14.152	1013.088	-0.77	-3.29	-0.7	-33	-187.5	-120	0	0	2.780859	2.778809	2.780859	2.780176	2.780859	2.780859	2.780176	2.780176	2.778809	2.780859	0.4286133	2.782227	2.780176	2.780176	2.777441	2.778809
1639558933793	-94.672	22.448	1005.768	-0.7	-2.87	0.07	-28.5	-183	-121.5	0	0	2.780176	2.783594	2.78291	2.78291	2.777441	2.780176	2.78291	2.780859	2.777441	2.780859	0.4265625	2.777441	2.777441	2.780859	2.777441	2.778125
1639558933803	-101.016	25.376	1013.576	-0.7	-2.38	0.77	-27	-180	-127.5	0	0	2.778809	2.776758	2.780176	2.777441	2.782227	2.780859	2.782227	2.780176	2.780859	2.778809	0.4258789	2.776758	2.778125	2.780859	2.780176	2.780859
1639558933812	-100.528	22.448	1012.112	-0.63	-1.12	0.21	-28.5	-184.5	-132	0	0	2.78291	2.777441	2.783594	2.778809	2.777441	2.782227	2.778809	2.780176	2.777441	2.777441	0.4224609	2.780859	2.780859	2.778809	2.776758	2.778809
1639558933822	-100.04	18.544	1009.672	-0.07	1.26	-0.7	-33	-190.5	-129	0	0	2.780859	2.778809	2.780176	2.78291	2.780176	2.777441	2.777441	2.78291	2.778125	2.778809	0.4224609	2.780859	2.778809	2.778809	2.778125	2.777441
1639558933832	-103.944	14.64	1003.816	0.63	4.69	-0.84	-34.5	-187.5	-123	0	0	2.780176	2.780859	2.780859	2.778809	2.780176	2.777441	2.780176	2.780176	2.778809	2.778809	0.4176758	2.778125	2.780859	2.780176	2.782227	2.777441
1639558933842	-101.504	24.4	1003.816	0.56	7.91	-0.21	-33	-184.5	-121.5	0	0	2.780859	2.780176	2.782227	2.780176	2.780859	2.783594	2.780859	2.78291	2.780859	2.778809	0.415625	2.778809	2.777441	2.776758	2.782227	2.780176
1639558933851	-109.312	22.448	990.64	1.47	9.03	-0.28	-36	-183	-126	0	0	2.780859	2.780859	2.782227	2.780176	2.780859	2.780176	2.780176	2.780176	2.782227	2.778125	0.4135742	2.778125	2.778125	2.778809	2.777441	2.778809
1639558933861	-117.12	19.52	976.488	1.05	7.28	-0.35	-43.5	-183	-126	0	0	2.780176	2.780176	2.778809	2.78291	2.780176	2.780176	2.780859	2.783594	2.780176	2.781543	0.4128906	2.778809	2.777441	2.778809	2.780859	2.777441
1639558933871	-119.072	14.64	977.464	0.49	3.15	-0.35	-37.5	-187.5	-120	0	0	2.783594	2.783594	2.780859	2.78291	2.780176	2.781543	2.780176	2.780176	2.780859	2.780859	0.4115234	2.780176	2.778125	2.780859	2.778125	2.777441
1639558933881	-119.56	9.272	986.248	-0.35	-2.87	-0.21	-27	-186	-121.5	0	0	2.78291	2.780859	2.783594	2.783594	2.780176	2.778809	2.778809	2.778809	2.780859	2.778125	0.4067383	2.780859	2.778125	2.780859	2.776758	2.782227
1639558933890	-109.312	2.928	986.736	-1.68	-9.73	-0.28	-24	-180	-123	0	0	2.777441	2.782227	2.778809	2.780176	2.778809	2.780859	2.783594	2.783594	2.778809	2.779492	0.4060547	2.780859	2.778125	2.777441	2.780176	2.778809
1639558933900	-110.288	10.248	996.008	-2.66	-15.26	-0.7	-30	-181.5	-127.5	0	0	2.782227	2.776758	2.778809	2.777441	2.782227	2.780176	2.778809	2.780859	2.778125	2.780176	0.4087891	2.778125	2.778809	2.778809	2.780859	2.780176
1639558933910	-87.84	-9.272	1014.552	-2.8	-18.62	-1.96	-33	-181.5	-123	0	0	2.783594	2.777441	2.78291	2.780176	2.778809	2.782227	2.780176	2.777441	2.778809	2.778809	0.4067383	2.778809	2.778125	2.777441	2.780176	2.778125
1639558933920	-62.464	-0.488	1021.872	-3.5	-18.97	-0.77	-30	-181.5	-118.5	0	0	2.78291	2.778809	2.780176	2.777441	2.782227	2.778809	2.778809	2.780176	2.782227	2.778125	0.4012695	2.780859	2.780859	2.778809	2.780859	2.778125
1639558933929	-71.736	3.416	1030.168	-4.48	-19.11	1.61	-31.5	-189	-123	0	0	2.777441	2.782227	2.78291	2.778809	2.780176	2.782227	2.778809	2.782227	2.777441	2.777441	0.3992187	2.781543	2.778809	2.778125	2.780859	2.780859
1639558933939	-75.64	15.616	1032.608	-4.55	-17.22	2.45	-36	-187.5	-127.5	0	0	2.78291	2.783594	2.780176	2.780176	2.780176	2.778809	2.777441	2.777441	2.776758	2.778125	0.3999023	2.778809	2.778809	2.778809	2.778809	2.777441
1639558933949	-74.664	14.152	1035.536	-3.22	-12.95	1.33	-40.5	-181.5	-123	0	0	2.778809	2.777441	2.780859	2.778809	2.778809	2.780176	2.780859	2.782227	2.780859	2.780176	0.3992187	2.780176	2.778125	2.778125	2.777441	2.782227
1639558933959	-69.296	20.008	1031.632	-1.75	-7.07	-0.07	-40.5	-183	-120	0	0	2.778809	2.777441	2.780176	2.780176	2.782227	2.780176	2.780176	2.78291	2.780859	2.780176	0.4026367	2.781543	2.778809	2.782227	2.777441	2.780176
1639558933969	-74.176	12.2	1022.848	-0.35	0.14	-0.49	-39	-184.5	-117	0	0	2.777441	2.777441	2.78291	2.777441	2.778809	2.780859	2.78291	2.778125	2.780176	2.780176	0.4053711	2.778809	2.777441	2.778809	2.780859	2.780176
1639558933978	-77.592	14.152	1016.504	1.61	7.77	0	-37.5	-184.5	-121.5	0	0	2.780176	2.780176	2.780176	2.780859	2.777441	2.782227	2.778809	2.777441	2.777441	2.777441	0.4053711	2.777441	2.778809	2.777441	2.778125	2.781543
1639558933988	-75.152	27.328	1016.992	3.57	14.91	-0.14	-36	-189	-126	0	0	2.780859	2.776074	2.78291	2.780176	2.780859	2.778809	2.777441	2.781543	2.78291	2.780176	0.4087891	2.780859	2.778125	2.778125	2.777441	2.778125
1639558933998	-84.912	19.52	1018.944	4.76	19.46	-1.26	-34.5	-187.5	-118.5	0	0	2.780176	2.777441	2.776758	2.778809	2.778809	2.780176	2.780176	2.78291	2.780176	2.778125	0.4101563	2.777441	2.778809	2.780859	2.769238	2.777441
1639558934008	-89.304	25.864	1007.72	4.06	18.9	-1.68	-33	-181.5	-118.5	0	0	2.778809	2.783594	2.780176	2.778809	2.780176	2.780176	2.78291	2.783594	2.778125	2.778125	0.4135742	2.777441	2.778125	2.780176	2.780859	2.777441
1639558934017	-89.792	17.568	1017.968	0.7	14.56	-0.28	-33	-181.5	-123	0	0	2.783594	2.780176	2.780859	2.782227	2.780859	2.778809	2.778809	2.78291	2.780859	2.780176	0.4176758	2.778125	2.778809	2.781543	2.777441	2.780859
1639558934027	-99.064	5.368	978.44	1.19	10.64	-0.28	-36	-186	-121.5	0	0	2.778809	2.778809	2.778809	2.780859	2.780176	2.780859	2.783594	2.778809	2.780859	2.778125	0.4279297	2.776758	2.780859	2.778809	2.780176	2.778125
1639558934037	-115.168	-0.488	983.32	0.56	6.02	-0.21	-33	-183	-120	0	0	2.780859	2.780176	2.783594	2.777441	2.778809	2.778809	2.780859	2.783594	2.777441	2.782227	0.4381836	2.778125	2.780859	2.778125	2.780176	2.776758
1639558934047	-115.168	1.464	974.536	-0.42	1.26	0	-30	-175.5	-120	0	0	2.78291	2.780176	2.781543	2.777441	2.782227	2.780176	2.780859	2.778809	2.778809	2.780859	0.4402344	2.778809	2.777441	2.780859	2.780859	2.780859
1639558934056	-115.168	10.736	986.736	-1.4	-6.09	0.07	-31.5	-186	-121.5	0	0	2.780176	2.776758	2.780176	2.778809	2.778809	2.778809	2.780176	2.778809	2.776758	2.780859	0.4498047	2.778125	2.778125	2.778125	2.780176	2.782227
1639558934066	-98.576	13.176	996.984	-2.03	-10.78	0	-27	-190.5	-124.5	0	0	2.782227	2.782227	2.78291	2.780859	2.78291	2.782227	2.782227	2.780859	2.778125	2.780859	0.4539062	2.780859	2.777441	2.777441	2.777441	2.780176
1639558934076	-88.328	16.592	1005.28	-2.59	-14.35	0.07	-27	-181.5	-124.5	0	0	2.781543	2.778809	2.778809	2.780859	2.780859	2.780859	2.780859	2.780176	2.780859	2.780859	0.4689453	2.780859	2.780176	2.778809	2.778809	2.780859
1639558934086	-96.624	14.152	1016.016	-3.71	-15.61	0.91	-31.5	-180	-121.5	0	0	2.780176	2.780859	2.777441	2.777441	2.780859	2.780176	2.777441	2.778125	2.778125	2.780859	0.4744141	2.778809	2.780176	2.780859	2.777441	2.778125
1639558934096	-93.696	15.616	1021.384	-3.92	-12.6	1.26	-39	-183	-120	0	0	2.783594	2.780859	2.782227	2.778809	2.780859	2.777441	2.778809	2.780176	2.780176	2.778809	0.4833008	2.778809	2.777441	2.777441	2.778125	2.778125
1639558934105	-97.112	18.544	1029.192	-1.75	-5.04	0.35	-37.5	-178.5	-120	0	0	2.78291	2.780176	2.777441	2.782227	2.78291	2.78291	2.777441	2.783594	2.778809	2.781543	0.4874023	2.780859	2.780859	2.782227	2.778809	2.777441
1639558934115	-103.944	18.544	1025.288	0.84	3.92	-0.84	-36	-181.5	-120	0	0	2.781543	2.777441	2.780859	2.780859	2.783594	2.782227	2.778809	2.783594	2.778809	2.778809	0.5072265	2.780176	2.778125	2.778125	2.780176	2.780859
1639558934125	-83.936	11.224	1021.872	3.43	12.67	-1.75	-39	-186	-120	0	0	2.780176	2.78291	2.78291	2.778809	2.782227	2.782227	2.780859	2.78291	2.780859	2.780859	0.5099609	2.778125	2.776758	2.780859	2.781543	2.780859
1639558934135	-79.544	-61.488	1020.408	1.4	13.65	-0.49	-39	-183	-117	0	0	2.782227	2.776758	2.778809	2.780859	2.780859	2.78291	2.780176	2.783594	2.778809	2.780176	0.5154297	2.780859	2.777441	2.776758	2.780176	2.781543
1639558934144	-105.896	41.48	965.752	1.82	9.59	0.56	-39	-183	-115.5	0	0	2.780176	2.780859	2.78291	2.783594	2.78291	2.778809	2.782227	2.780176	2.776758	2.777441	0.5208984	2.780176	2.778125	2.780859	2.776758	2.777441
1639558934154	-89.792	32.696	989.176	-0.49	2.45	-0.14	-34.5	-183	-117	0	0	2.778809	2.782227	2.78291	2.782227	2.782227	2.780859	2.777441	2.780176	2.780859	2.780859	0.5256836	2.777441	2.778809	2.780859	2.780176	2.776758
1639558934164	-98.576	9.76	1001.376	-1.82	-3.08	-0.49	-24	-183	-117	0	0	2.780176	2.782227	2.778809	2.780859	2.783594	2.78291	2.781543	2.780176	2.778809	2.780176	0.5297852	2.780859	2.778809	2.778809	2.778125	2.778125
1639558934174	-106.384	9.272	984.784	-0.7	-5.39	-0.14	-31.5	-187.5	-118.5	0	0	2.780176	2.777441	2.782227	2.783594	2.777441	2.78291	2.780859	2.778125	2.780176	2.780859	0.5325195	2.780176	2.777441	2.777441	2.780176	2.778809
1639558934183	-107.848	6.832	1004.304	-0.98	-4.97	-0.28	-40.5	-187.5	-120	0	0	2.78291	2.778809	2.778809	2.780176	2.782227	2.779492	2.780176	2.783594	2.780859	2.777441	0.5352539	2.778809	2.780859	2.778125	2.780176	2.778809
1639558934193	-111.264	1.464	999.424	-0.21	-1.05	-0.28	-36	-186	-121.5	0	0	2.778809	2.78291	2.779492	2.780176	2.780859	2.780859	2.780176	2.780176	2.779492	2.777441	0.5557617	2.777441	2.777441	2.780859	2.778809	2.780176
1639558934203	-94.672	6.832	1001.864	-0.63	0.84	-0.42	-31.5	-181.5	-123	0	0	2.780176	2.780176	2.782227	2.78291	2.780859	2.781543	2.777441	2.782227	2.782227	2.780176	0.5612305	2.777441	2.780176	2.776758	2.778809	2.777441
1639558934213	-94.672	12.2	1000.4	0.14	0.07	-0.07	-34.5	-180	-120	0	0	2.781543	2.783594	2.78291	2.780176	2.781543	2.778809	2.782227	2.781543	2.776074	2.780176	0.5701172	2.776074	2.778125	2.778809	2.776074	2.778809
1639558934222	-98.576	5.856	1005.28	-0.77	-1.54	-0.14	-34.5	-183	-118.5	0	0	2.780859	2.780176	2.780176	2.780176	2.778809	2.780176	2.777441	2.780176	2.782227	2.777441	0.5769531	2.778809	2.778809	2.778125	2.778809	2.780176
1639558934232	-106.384	9.76	1003.328	-0.91	-1.89	-0.07	-36	-181.5	-117	0	0	2.780176	2.778809	2.780859	2.777441	2.780176	2.778809	2.782227	2.780176	2.778809	2.780176	0.5913086	2.777441	2.777441	2.777441	2.777441	2.780859
1639558934242	-111.264	8.784	1011.136	-0.07	-0.56	0	-40.5	-183	-118.5	0	0	2.777441	2.777441	2.782227	2.778809	2.780176	2.780176	2.777441	2.778809	2.776758	2.780859	0.6022461	2.776758	2.777441	2.780859	2.777441	2.780859
1639558934252	-110.288	18.544	1011.136	-0.28	1.33	0.35	-39	-178.5	-120	0	0	2.778809	2.780176	2.781543	2.780859	2.777441	2.778809	2.780859	2.782227	2.778809	2.780859	0.6179687	2.776758	2.780176	2.780859	2.777441	2.780859
1639558934262	-111.264	22.936	1000.888	-0.21	2.03	0	-36	-174	-123	0	0	2.782227	2.778809	2.780176	2.783594	2.780176	2.777441	2.782227	2.780176	2.777441	2.781543	0.6323242	2.780859	2.778125	2.780176	2.780859	2.778809
1639558934271	-96.136	23.912	991.616	-0.07	1.47	-0.28	-33	-177	-115.5	0	0	2.780859	2.780859	2.783594	2.780176	2.782227	2.780176	2.780859	2.780859	2.776758	2.778125	0.678125	2.778125	2.780176	2.780176	2.778809	2.780176
1639558934281	-92.72	26.352	991.616	-0.21	-0.56	-0.35	-30	-187.5	-118.5	0	0	2.777441	2.777441	2.780176	2.778809	2.780176	2.780859	2.780859	2.78291	2.780176	2.780176	0.7054687	2.778809	2.778809	2.777441	2.780176	2.778125
1639558934291	-96.624	21.96	996.984	-0.7	-3.71	-0.28	-33	-190.5	-127.5	0	0	2.778809	2.782227	2.780176	2.780176	2.782227	2.782227	2.782227	2.78291	2.780859	2.780176	0.7300781	2.780859	2.782227	2.780859	2.778809	2.780176
1639558934301	-102.968	16.592	992.104	-1.05	-5.25	-0.35	-34.5	-189	-124.5	0	0	2.782227	2.782227	2.782227	2.778809	2.777441	2.780176	2.780176	2.780176	2.780859	2.780859	0.769043	2.778125	2.778809	2.776074	2.780859	2.777441
1639558934310	-108.336	24.4	1008.696	-0.84	-4.55	-0.07	-31.5	-189	-121.5	0	0	2.777441	2.780176	2.781543	2.780859	2.780176	2.783594	2.780176	2.780176	2.777441	2.780859	0.8285156	2.776758	2.780176	2.780859	2.778125	2.780859
1639558934320	-108.824	10.736	1013.576	-0.49	-1.96	-0.42	-34.5	-186	-118.5	0	0	2.771289	2.77334	2.778809	2.779492	2.778809	2.78291	2.783594	2.778809	2.775391	2.775391	0.8606445	2.777441	2.780859	2.778125	2.781543	2.777441
1639558934330	-90.28	24.4	1006.256	-0.49	-1.4	-0.56	-31.5	-181.5	-112.5	0	0	2.780859	2.778809	2.780176	2.780176	2.777441	2.780859	2.780176	2.780176	2.778125	2.780859	0.896875	2.778809	2.778125	2.778809	2.777441	2.778809
1639558934340	-87.352	17.08	1011.624	-1.19	-4.27	-1.05	-33	-181.5	-114	0	0	2.778809	2.780176	2.78291	2.78291	2.780176	2.778809	2.783594	2.778809	2.780176	2.777441	0.9303711	2.778125	2.778809	2.780859	2.780859	2.778809
1639558934349	-77.592	7.32	1016.016	-1.61	-6.16	-1.33	-37.5	-186	-117	0	0	2.780859	2.778809	2.776758	2.780176	2.780176	2.780176	2.778809	2.778809	2.778809	2.780176	0.9782227	2.778809	2.777441	2.776758	2.782227	2.782227
1639558934359	-82.472	-5.368	1008.208	-1.61	-5.95	-1.19	-39	-187.5	-120	0	0	2.782227	2.782227	2.782227	2.783594	2.782227	2.779492	2.780176	2.782227	2.778809	2.780176	1.011035	2.780176	2.782227	2.777441	2.778125	2.777441
1639558934369	-87.84	-10.736	1020.896	-1.05	-2.94	-0.35	-43.5	-186	-120	0	0	2.778809	2.778809	2.782227	2.780859	2.782227	2.783594	2.783594	2.783594	2.782227	2.782227	1.065723	2.780176	2.778125	2.780176	2.780859	2.780859
1639558934379	-96.624	-3.416	1018.456	-0.21	1.61	0.7	-34.5	-181.5	-123	0	0	2.782227	2.780176	2.783594	2.781543	2.780176	2.780176	2.780859	2.780859	2.778809	2.777441	1.126562	2.780859	2.778809	2.780859	2.777441	2.780176
1639558934388	-96.624	6.832	1012.112	0.84	5.67	0.56	-27	-183	-126	0	0	2.78291	2.780176	2.78291	2.778809	2.783594	2.777441	2.782227	2.78291	2.778809	2.780176	1.384277	2.780176	2.778809	2.780176	2.778809	2.778809
1639558934398	-87.352	14.64	1030.168	1.12	7.21	-0.28	-31.5	-183	-129	0	0	2.780176	2.777441	2.780176	2.776074	2.78291	2.78291	2.778809	2.778809	2.781543	2.778809	1.60166	2.778809	2.777441	2.780859	2.777441	2.782227
1639558934408	-91.256	20.984	994.056	0.21	5.46	0.14	-34.5	-187.5	-127.5	0	0	2.78291	2.778809	2.783594	2.782227	2.780176	2.780176	2.780176	2.780859	2.777441	2.780176	1.979687	2.777441	2.778125	2.777441	2.776758	2.777441
1639558934418	-95.16	20.984	994.056	-0.28	2.66	0.35	-33	-192	-126	0	0	2.780176	2.777441	2.778809	2.780859	2.780176	2.780176	2.778809	2.780176	2.780176	2.778809	2.532031	2.778809	2.776758	2.778809	2.782227	2.777441
1639558934428	-99.064	32.208	997.472	-0.35	0	0.42	-27	-183	-126	0	0	2.777441	2.780176	2.778809	2.782227	2.78291	2.78291	2.78291	2.782227	2.778809	2.778125	2.776758	2.777441	2.780176	2.778809	2.780859	2.777441
1639558934437	-110.288	33.184	996.496	-0.91	-1.68	0.84	-31.5	-187.5	-121.5	0	0	2.778809	2.777441	2.780176	2.780859	2.778809	2.780859	2.782227	2.780859	2.780176	2.780176	2.777441	2.778809	2.778125	2.781543	2.780176	2.778125
1639558934447	-116.632	28.792	1000.4	-0.98	-1.12	0.35	-31.5	-187.5	-120	0	0	2.780176	2.777441	2.777441	2.781543	2.780859	2.780176	2.780859	2.778809	2.778809	2.780859	2.778125	2.778125	2.780859	2.780176	2.778809	2.778809
1639558934457	-111.752	23.912	1004.792	-0.21	0.98	-0.35	-28.5	-183	-123	0	0	2.783594	2.778809	2.777441	2.778809	2.782227	2.778809	2.78291	2.78291	2.780176	2.777441	2.780859	2.778125	2.778809	2.780176	2.780859	2.776758
1639558934467	-108.336	17.568	995.032	0	1.47	-0.21	-33	-181.5	-127.5	0	0	2.778809	2.776758	2.778809	2.780176	2.782227	2.782227	2.78291	2.782227	2.778809	2.776758	2.776758	2.780859	2.776074	2.778809	2.778125	2.780176
1639558934476	-105.408	12.688	997.96	-0.42	0.14	-0.7	-34.5	-186	-123	0	0	2.783594	2.777441	2.780176	2.783594	2.777441	2.780859	2.777441	2.780176	2.780859	2.778809	2.780176	2.778809	2.780176	2.782227	2.778809	2.780859
1639558934486	-93.208	5.368	996.008	-0.77	-4.27	-0.98	-33	-187.5	-120	0	0	2.778809	2.783594	2.78291	2.782227	2.782227	2.780176	2.780859	2.780859	2.782227	2.780859	2.777441	2.778125	2.778809	2.776758	2.780176	2.779492
1639558934496	-95.648	7.808	1004.304	-1.4	-6.37	-0.42	-37.5	-183	-120	0	0	2.778809	2.780176	2.782227	2.780859	2.780176	2.780176	2.778809	2.78291	2.776758	2.778809	2.777441	2.780859	2.776758	2.780176	2.780859	2.780176
1639558934506	-101.992	4.392	1009.672	-0.91	-6.37	-0.42	-37.5	-183	-120	0	0	2.782227	2.782227	2.778809	2.780176	2.78291	2.780176	2.778809	2.782227	2.778809	2.778809	2.776758	2.778809	2.777441	2.777441	2.778125	2.778125
1639558934515	-99.552	5.856	1010.16	-1.4	-5.25	-0.21	-34.5	-183	-121.5	0	0	2.777441	2.780859	2.780859	2.78291	2.780859	2.780176	2.780859	2.780176	2.780176	2.778809	2.777441	2.780176	2.778809	2.778809	2.778809	2.777441
1639558934525	-97.112	8.296	1011.136	-0.7	-2.45	-0.42	-34.5	-184.5	-124.5	0	0	2.780859	2.78291	2.778809	2.78291	2.780176	2.778809	2.783594	2.780176	2.782227	2.777441	2.780176	2.777441	2.780176	2.778809	2.777441	2.778809
1639558934535	-100.04	9.76	1008.696	-0.07	0.07	-0.56	-34.5	-183	-121.5	0	0	2.780859	2.782227	2.780859	2.780176	2.777441	2.780176	2.782227	2.780176	2.780859	2.778809	2.778125	2.777441	2.780859	2.778125	2.778809	2.777441
1639558934545	-79.056	9.272	1005.28	0.28	1.33	-0.42	-34.5	-184.5	-117	0	0	2.78291	2.782227	2.783594	2.782227	2.782227	2.778809	2.778809	2.78291	2.777441	2.777441	2.777441	2.777441	2.778809	2.778125	2.777441	2.777441
1639558934554	-87.352	12.688	1000.4	-0.35	1.12	-0.14	-37.5	-181.5	-111	0	0	2.780176	2.782227	2.780176	2.780859	2.778809	2.780176	2.780176	2.780176	2.780859	2.777441	2.780859	2.777441	2.778809	2.780859	2.776758	2.780176
1639558934564	-94.672	14.64	1004.304	0.35	0.98	-0.14	-39	-186	-115.5	0	0	2.778809	2.778809	2.778809	2.780859	2.780859	2.780176	2.783594	2.780176	2.778125	2.780176	2.777441	2.780859	2.778809	2.777441	2.777441	2.780176
1639558934574	-93.208	4.88	1010.648	0.07	1.05	-0.35	-34.5	-189	-121.5	0	0	2.780859	2.780176	2.78291	2.782227	2.780176	2.780859	2.778809	2.780176	2.780176	2.780859	2.780859	2.777441	2.778809	2.777441	2.777441	2.777441
1639558934584	-103.456	12.688	1009.672	-0.77	0.77	-0.14	-33	-184.5	-117	0	0	2.778809	2.777441	2.780176	2.780176	2.78291	2.778809	2.78291	2.778809	2.782227	2.778125	2.778809	2.778809	2.780859	2.782227	2.778125	2.777441
1639558934594	-100.04	10.736	996.984	0.21	-0.07	-0.28	-40.5	-189	-114	0	0	2.78291	2.777441	2.780859	2.78291	2.782227	2.780176	2.778809	2.780176	2.777441	2.780859	2.778809	2.779492	2.780859	2.778809	2.778809	2.780859
1639558934603	-101.016	14.64	1008.208	-0.77	-1.33	-0.28	-37.5	-183	-118.5	0	0	2.780176	2.777441	2.782227	2.780859	2.777441	2.777441	2.778809	2.778809	2.782227	2.777441	2.778125	2.780859	2.778809	2.780176	2.782227	2.778809
1639558934613	-98.088	11.712	1000.888	-1.12	-2.52	-0.21	-33	-181.5	-126	0	0	2.778809	2.780176	2.777441	2.782227	2.780176	2.78291	2.780176	2.778809	2.776074	2.778125	2.780859	2.778125	2.782227	2.778125	2.780859	2.780859
1639558934623	-92.232	13.664	1000.4	-0.91	-3.71	-0.21	-31.5	-183	-127.5	0	0	2.78291	2.778809	2.780859	2.782227	2.778809	2.780176	2.78291	2.780859	2.780859	2.777441	2.777441	2.776758	2.778125	2.778125	2.777441	2.777441
1639558934633	-95.16	13.664	1010.16	-0.7	-3.57	0	-34.5	-181.5	-118.5	0	0	2.778809	2.778809	2.782227	2.777441	2.780859	2.783594	2.780859	2.780859	2.777441	2.777441	2.780859	2.780859	2.777441	2.778809	2.777441	2.778809
1639558934642	-92.72	18.544	1011.136	-1.4	-2.66	0.14	-33	-181.5	-117	0	0	2.782227	2.78291	2.780176	2.778809	2.780176	2.771973	2.782227	2.778809	2.779492	2.780859	2.782227	2.780859	2.774707	2.771289	2.775391	2.768555
1639558934652	-93.696	15.616	1005.28	-0.14	-0.07	0	-36	-184.5	-123	0	0	2.782227	2.781543	2.780176	2.780859	2.782227	2.780859	2.780176	2.780859	2.777441	2.777441	2.778125	2.776758	2.778809	2.780859	2.781543	2.780176
1639558934662	-99.552	23.424	1000.4	0.28	2.73	0	-40.5	-181.5	-121.5	0	0	2.777441	2.780176	2.778809	2.780176	2.78291	2.780859	2.782227	2.780176	2.777441	2.778125	2.776074	2.778809	2.778125	2.781543	2.777441	2.778809
1639558934672	-112.24	16.104	1002.84	0.28	4.76	-0.07	-39	-180	-118.5	0	0	2.782227	2.780859	2.777441	2.78291	2.78291	2.782227	2.780176	2.780859	2.780859	2.780176	2.777441	2.777441	2.778809	2.778125	2.780859	2.780859
1639558934681	-109.8	18.056	1000.4	0.63	5.6	-0.35	-33	-187.5	-117	0	0	2.782227	2.780176	2.778809	2.780176	2.776758	2.782227	2.780859	2.778809	2.778809	2.778125	2.780859	2.777441	2.778809	2.780176	2.778125	2.778809
1639558934691	-109.8	9.76	993.08	0.49	4.48	-0.35	-30	-190.5	-120	0	0	2.777441	2.780176	2.78291	2.780176	2.782227	2.780859	2.777441	2.778809	2.777441	2.780176	2.777441	2.780859	2.780859	2.777441	2.780859	2.777441
1639558934701	-101.992	19.032	984.784	0.07	1.89	-0.28	-31.5	-189	-120	0	0	2.78291	2.778809	2.777441	2.78291	2.78291	2.78291	2.780859	2.780176	2.777441	2.778125	2.780859	2.780859	2.777441	2.780859	2.776758	2.776758
1639558934711	-96.136	9.272	988.688	-0.7	-1.96	-0.42	-31.5	-186	-118.5	0	0	2.780859	2.78291	2.780176	2.78291	2.780859	2.782227	2.78291	2.780176	2.780859	2.778809	2.778125	2.778809	2.778125	2.777441	2.780859	2.776758
1639558934721	-100.04	7.808	990.152	-1.12	-6.16	-0.49	-36	-183	-120	0	0	2.780859	2.778809	2.782227	2.778809	2.780859	2.780859	2.782227	2.780176	2.776758	2.778125	2.777441	2.780176	2.776758	2.777441	2.777441	2.778125
1639558934730	-92.72	11.712	1005.768	-1.33	-9.03	-0.7	-33	-186	-126	0	0	2.780859	2.778809	2.780859	2.782227	2.780176	2.778809	2.780176	2.778809	2.778809	2.778809	2.782227	2.780176	2.780859	2.778125	2.778125	2.778125
1639558934740	-93.208	12.688	1012.112	-1.47	-10.29	-0.77	-31.5	-189	-126	0	0	2.780176	2.780176	2.777441	2.778809	2.780859	2.780176	2.780859	2.782227	2.780859	2.778125	2.778809	2.777441	2.780859	2.777441	2.778125	2.782227
1639558934750	-85.4	8.296	1012.112	-2.59	-10.43	-0.28	-31.5	-183	-117	0	0	2.78291	2.778809	2.778809	2.777441	2.778809	2.780859	2.778809	2.78291	2.778809	2.777441	2.778809	2.782227	2.780859	2.780859	2.777441	2.780176
1639558934760	-85.888	19.032	1016.016	-1.96	-8.33	0.14	-34.5	-186	-111	0	0	2.782227	2.780176	2.777441	2.780859	2.777441	2.78291	2.778125	2.780176	2.778809	2.780176	2.777441	2.778809	2.780176	2.777441	2.778125	2.777441
1639558934769	-80.52	18.544	1015.04	-1.47	-3.43	0.28	-39	-186	-109.5	0	0	2.778809	2.778809	2.780176	2.780176	2.781543	2.777441	2.776758	2.780859	2.777441	2.780859	2.778809	2.776758	2.777441	2.782227	2.778125	2.778125
1639558934779	-82.96	19.52	1008.696	0	-0.07	-0.14	-40.5	-184.5	-112.5	0	0	2.778809	2.780859	2.777441	2.780859	2.778125	2.782227	2.782227	2.780176	2.778809	2.780859	2.778809	2.777441	2.777441	2.780859	2.777441	2.778809
1639558934789	-91.744	12.688	1021.384	0.63	3.15	-0.14	-45	-183	-117	0	0	2.780176	2.782227	2.777441	2.778809	2.780176	2.780859	2.778809	2.782227	2.777441	2.777441	2.778809	2.777441	2.778809	2.776758	2.782227	2.778125
1639558934799	-93.208	20.984	1021.872	0.84	6.51	-0.42	-42	-181.5	-117	0	0	2.780176	2.780859	2.778809	2.782227	2.780859	2.78291	2.777441	2.780859	2.780859	2.780176	2.778809	2.777441	2.777441	2.778809	2.778125	2.778809
1639558934808	-93.208	14.64	1015.04	1.68	8.96	-0.63	-39	-181.5	-112.5	0	0	2.781543	2.780859	2.783594	2.777441	2.778809	2.78291	2.782227	2.780859	2.777441	2.778125	2.778809	2.777441	2.780859	2.782227	2.777441	2.777441
1639558934818	-93.208	10.248	1011.624	0.91	9.45	-0.07	-36	-178.5	-114	0	0	2.780176	2.778809	2.780176	2.783594	2.780176	2.782227	2.780176	2.778809	2.780859	2.780859	2.780859	2.778125	2.777441	2.778809	2.778809	2.778809
1639558934828	-107.848	12.2	992.592	1.19	8.61	-0.21	-33	-180	-120	0	0	2.780176	2.782227	2.780176	2.78291	2.78291	2.776758	2.780859	2.777441	2.780859	2.777441	2.778125	2.782227	2.778809	2.780176	2.780859	2.780176
1639558934838	-113.704	15.128	983.32	0	5.53	-0.21	-34.5	-183	-115.5	0	0	2.780176	2.780176	2.78291	2.780176	2.782227	2.780176	2.780859	2.778809	2.776758	2.777441	2.778809	2.778125	2.780859	2.777441	2.780859	2.780859
1639558934847	-108.336	19.032	986.736	-0.28	0.91	-0.21	-31.5	-183	-112.5	0	0	2.780176	2.78291	2.782227	2.780176	2.782227	2.780859	2.782227	2.783594	2.780859	2.780859	2.778809	2.777441	2.778125	2.780176	2.776758	2.777441
1639558934857	-106.384	13.664	984.784	-0.35	-3.85	-0.21	-34.5	-186	-111	0	0	2.780859	2.780859	2.778809	2.78291	2.778809	2.782227	2.780176	2.781543	2.777441	2.780859	2.778125	2.778125	2.780859	2.780176	2.777441	2.780859
1639558934867	-104.432	10.736	997.96	-1.82	-8.19	-0.21	-33	-180	-106.5	0	0	2.780176	2.78291	2.780859	2.78291	2.783594	2.777441	2.780176	2.778809	2.778809	2.778809	2.780176	2.778125	2.780859	2.780859	2.778809	2.778809
1639558934877	-98.088	19.032	999.424	-1.82	-10.85	-0.14	-28.5	-172.5	-109.5	0	0	2.778809	2.780176	2.780176	2.780176	2.782227	2.778809	2.780859	2.78291	2.778125	2.780859	2.778125	2.777441	2.777441	2.779492	2.780859	2.777441
1639558934887	-100.528	11.224	1016.504	-1.82	-11.2	-0.07	-30	-172.5	-114	0	0	2.782227	2.777441	2.783594	2.777441	2.778809	2.777441	2.780176	2.783594	2.778809	2.777441	2.778809	2.777441	2.778809	2.776758	2.778809	2.777441
1639558934896	-92.72	16.592	1020.896	-2.73	-9.73	-0.07	-31.5	-175.5	-118.5	0	0	2.780176	2.782227	2.78291	2.777441	2.778809	2.777441	2.780859	2.780859	2.777441	2.778125	2.780859	2.777441	2.778809	2.778809	2.780859	2.778809
1639558934906	-88.328	14.64	1016.992	-1.75	-5.95	-0.21	-36	-181.5	-123	0	0	2.780859	2.78291	2.78291	2.780176	2.778809	2.780176	2.780859	2.778809	2.776758	2.778809	2.780859	2.780176	2.778809	2.777441	2.780859	2.778125
1639558934916	-88.816	18.544	1017.968	-0.21	0	-0.42	-33	-181.5	-121.5	0	0	2.776074	2.783594	2.780176	2.780176	2.778809	2.777441	2.78291	2.778809	2.776758	2.780176	2.778809	2.780859	2.778809	2.778125	2.776758	2.778809
1639558934926	-88.328	17.08	1018.944	0.63	3.36	-0.56	-30	-184.5	-121.5	0	0	2.780176	2.78291	2.776758	2.778809	2.780859	2.78291	2.776758	2.780859	2.780859	2.778125	2.778809	2.780176	2.777441	2.777441	2.778809	2.782227
1639558934935	-94.184	8.296	1005.28	1.19	5.67	-0.35	-39	-187.5	-121.5	0	0	2.777441	2.778809	2.78291	2.780859	2.778809	2.777441	2.778809	2.780176	2.780859	2.780859	2.782227	2.778809	2.777441	2.780176	2.778809	2.776758
1639558934945	-102.48	16.592	1003.328	1.26	7	-0.35	-39	-186	-118.5	0	0	2.780176	2.780176	2.780859	2.78291	2.782227	2.778809	2.780176	2.778809	2.776758	2.777441	2.778809	2.780859	2.780859	2.780176	2.777441	2.780859
1639558934955	-97.112	6.832	990.152	0.35	6.02	-0.35	-31.5	-187.5	-111	0	0	2.780859	2.778809	2.780176	2.780859	2.780176	2.782227	2.778809	2.781543	2.780176	2.777441	2.777441	2.780859	2.778125	2.780176	2.778809	2.780176
1639558934965	-100.528	9.76	996.008	0.49	4.2	-0.35	-30	-187.5	-112.5	0	0	2.777441	2.782227	2.780176	2.777441	2.78291	2.777441	2.780176	2.780176	2.778125	2.640723	2.778809	2.777441	2.780859	2.776758	2.780859	2.777441
1639558934974	-103.944	11.712	994.056	-0.07	1.4	-0.35	-30	-183	-114	0	0	2.780859	2.777441	2.780176	2.778809	2.780176	2.780176	2.774707	2.770605	2.780176	2.41582	2.780859	2.778809	2.778809	2.778809	2.766504	2.775391
1639558934984	-103.456	13.664	992.592	-0.7	-2.59	-0.28	-31.5	-183	-115.5	0	0	2.780859	2.780859	2.780176	2.778809	2.780176	2.780176	2.78291	2.778809	2.780176	2.156055	2.780859	2.777441	2.782227	2.778809	2.777441	2.778809
1639558934994	-99.064	15.616	997.472	-1.12	-5.6	-0.14	-33	-187.5	-115.5	0	0	2.782227	2.777441	2.780859	2.777441	2.780176	2.781543	2.780176	2.780176	2.778125	1.832031	2.782227	2.776758	2.778809	2.780859	2.776758	2.778125
1639558935004	-94.672	13.664	1004.792	-1.4	-7.63	-0.14	-33	-184.5	-114	0	0	2.782227	2.777441	2.782227	2.778809	2.778809	2.783594	2.777441	2.780176	2.780176	1.281055	2.780176	2.777441	2.777441	2.777441	2.780176	2.778809
1639558935013	-94.672	8.784	1004.792	-1.68	-8.12	-0.21	-31.5	-180	-115.5	0	0	2.782227	2.778809	2.778809	2.780176	2.780176	2.782227	2.779492	2.780176	2.780859	1.095801	2.778809	2.780859	2.778809	2.780859	2.778125	2.780176
1639558935023	-91.256	1.464	1003.328	-1.89	-6.51	-0.14	-33	-178.5	-115.5	0	0	2.781543	2.778809	2.780176	2.783594	2.780859	2.780176	2.777441	2.779492	2.777441	0.922168	2.777441	2.778809	2.780859	2.777441	2.778809	2.778809
1639558935033	-97.112	7.32	1013.088	-0.84	-3.08	-0.28	-31.5	-181.5	-117	0	0	2.780176	2.780176	2.780176	2.783594	2.78291	2.78291	2.780176	2.778809	2.778809	0.7635742	2.780859	2.778809	2.779492	2.778125	2.780859	2.780176
1639558935043	-90.28	13.664	1010.648	-0.28	0.07	0.14	-34.5	-186	-120	0	0	2.780176	2.780859	2.780859	2.780176	2.778809	2.778809	2.777441	2.780176	2.778125	0.6118164	2.780859	2.777441	2.776758	2.778809	2.778809	2.776074
1639558935053	-93.696	15.616	1009.184	0.91	3.15	-0.49	-37.5	-186	-112.5	0	0	2.782227	2.783594	2.780859	2.782227	2.782227	2.782227	2.78291	2.780176	2.780176	0.5673828	2.780859	2.778809	2.780176	2.780176	2.777441	2.778125
1639558935062	-94.672	17.08	1005.768	0.91	5.6	-0.49	-37.5	-186	-106.5	0	0	2.783594	2.780176	2.782227	2.778809	2.783594	2.780176	2.780176	2.78291	2.778809	0.5318359	2.780859	2.780176	2.782227	2.777441	2.782227	2.780859
1639558935072	-99.552	22.936	996.496	0.56	4.9	-0.21	-36	-184.5	-114	0	0	2.78291	2.78291	2.783594	2.780176	2.780176	2.777441	2.782227	2.783594	2.777441	0.5051758	2.780859	2.776758	2.778809	2.780176	2.778809	2.778809
1639558935082	-105.408	17.08	997.472	0.42	3.64	-0.28	-34.5	-181.5	-118.5	0	0	2.780859	2.78291	2.780176	2.777441	2.783594	2.778809	2.777441	2.781543	2.781543	0.4566406	2.778125	2.778809	2.780859	2.782227	2.777441	2.776758
1639558935092	-107.36	20.008	997.472	-0.21	1.19	-0.14	-36	-178.5	-112.5	0	0	2.778809	2.780176	2.780176	2.780176	2.782227	2.783594	2.778809	2.782227	2.778809	0.4416015	2.777441	2.781543	2.777441	2.780176	2.782227	2.778125
1639558935101	-106.872	22.448	989.176	-0.49	-1.82	-0.28	-34.5	-180	-111	0	0	2.783594	2.780176	2.780176	2.783594	2.778809	2.780176	2.780859	2.782227	2.778809	0.4320312	2.778809	2.780859	2.780859	2.778809	2.777441	2.780859
1639558935111	-99.552	14.64	998.936	-0.77	-4.69	-0.21	-30	-180	-114	0	0	2.780859	2.780176	2.778809	2.777441	2.78291	2.780859	2.777441	2.780176	2.778125	0.4231445	2.778809	2.780859	2.777441	2.778809	2.777441	2.777441
1639558935121	-100.528	23.424	999.424	-1.12	-7.14	-0.28	-30	-180	-118.5	0	0	2.780176	2.778809	2.782227	2.780176	2.780176	2.780859	2.780176	2.780859	2.778809	0.4053711	2.777441	2.780176	2.780859	2.780176	2.778809	2.778809
1639558935131	-91.744	20.496	1012.112	-1.61	-8.54	-0.63	-31.5	-184.5	-124.5	0	0	2.780859	2.783594	2.778809	2.777441	2.780176	2.78291	2.78291	2.778809	2.780176	0.39375	2.780859	2.776758	2.780859	2.777441	2.780859	2.777441
1639558935140	-87.84	4.88	1006.256	-2.31	-9.17	-0.7	-42	-184.5	-121.5	0	0	2.780176	2.780176	2.780859	2.780176	2.78291	2.778809	2.777441	2.777441	2.778125	0.390332	2.780859	2.776074	2.781543	2.778809	2.777441	2.777441
1639558935150	-90.28	8.784	1011.624	-1.89	-7.91	-0.28	-40.5	-184.5	-121.5	0	0	2.780859	2.778809	2.777441	2.778809	2.780176	2.777441	2.783594	2.780176	2.777441	0.3855469	2.778809	2.778125	2.778809	2.776758	2.780859	2.780859
1639558935160	-88.816	6.344	1010.16	-1.26	-5.25	0.14	-34.5	-187.5	-123	0	0	2.777441	2.780859	2.780859	2.78291	2.782227	2.782227	2.78291	2.780859	2.777441	0.3759766	2.778125	2.777441	2.780176	2.778809	2.778125	2.778809
1639558935170	-86.864	11.712	1011.624	-0.91	-1.68	0.07	-34.5	-181.5	-120	0	0	2.777441	2.780176	2.778809	2.783594	2.780176	2.777441	2.780859	2.78291	2.780176	0.3705078	2.780859	2.776758	2.778809	2.780176	2.777441	2.780859
1639558935179	-87.84	8.784	1006.256	0.56	1.82	-0.84	-31.5	-180	-120	0	0	2.780176	2.780176	2.781543	2.780859	2.782227	2.778809	2.780859	2.780176	2.777441	0.3698242	2.778809	2.776758	2.777441	2.778125	2.780176	2.778125
1639558935189	-83.448	13.176	1013.088	0.91	3.71	-1.12	-36	-186	-117	0	0	2.780176	2.777441	2.780176	2.783594	2.778809	2.780859	2.780859	2.780859	2.782227	0.3650391	2.778809	2.780859	2.777441	2.780859	2.780859	2.778809
1639558935199	-90.768	25.376	1005.768	0.77	4.55	0.07	-39	-189	-115.5	0	0	2.780859	2.782227	2.780859	2.778809	2.783594	2.782227	2.778809	2.782227	2.780859	0.3616211	2.778809	2.780859	2.776074	2.777441	2.780859	2.778809
1639558935209	-100.528	15.128	1001.376	0.84	4.62	0.14	-34.5	-186	-112.5	0	0	2.781543	2.781543	2.778809	2.780176	2.782227	2.782227	2.778809	2.778809	2.777441	0.3582031	2.777441	2.780176	2.777441	2.777441	2.780859	2.777441
1639558935219	-98.576	17.568	1004.304	0.42	4.13	-0.07	-37.5	-184.5	-111	0	0	2.782227	2.777441	2.782227	2.777441	2.780859	2.778809	2.783594	2.780859	2.778125	0.3595703	2.780176	2.777441	2.782227	2.777441	2.780176	2.776758
1639558935228	-111.752	9.272	994.544	0	2.87	-0.21	-39	-181.5	-115.5	0	0	2.780859	2.780176	2.780176	2.778809	2.780859	2.780176	2.780859	2.780176	2.778125	0.3554688	2.782227	2.778809	2.777441	2.780176	2.777441	2.776758
