SensorId, TimeStamp (s), FrameNumber, AccX (g), AccY (g), AccZ (g), GyroX (deg/s), GyroY (deg/s), GyroZ (deg/s), MagX (uT), MagY (uT), MagZ (uT), EulerX (deg), EulerY (deg), EulerZ (deg), QuatW, QuatX, QuatY, QuatZ, LinAccX (g), LinAccY (g), LinAccZ (g), Pressure (kPa), Altitude (m), Temperature (degC), HeaveMotion (m)
1, -0.0000, 0, -0.13195089, -0.91037053, 0.39811829, -0.32450554, -0.65060687, 0.41081220, 0.00000000, 0.00000000, 0.00000000, 113.94209290, -7.77403259, 178.48683167, 1.00000000, 0.00000000, 0.00000000, 0.00000000, -0.00330888, 0.00481898, 0.00397772, 0.00000000, 0.00000000, 0.00000000, 0.00000000
1, 0.0100, 1, -0.13378854, -0.90725398, 0.39677963, -0.28595701, -0.52980858, 0.23677295, 0.00000000, 0.00000000, 0.00000000, 113.94003296, -7.77404547, 178.48097229, 1.00000000, 0.00000000, 0.00000000, 0.00000000, -0.00147830, 0.00168799, 0.00528144, 0.00000000, 0.00000000, 0.00000000, 0.00000000
1, 0.0200, 2, -0.13660930, -0.90427184, 0.39828762, -0.05303698, -0.56723011, 0.33847582, 0.00000000, 0.00000000, 0.00000000, 113.94039154, -7.77483845, 178.47434998, 1.00000000, 0.00000000, 0.00000000, 0.00000000, 0.00133515, -0.00129563, 0.00376779, 0.00000000, 0.00000000, 0.00000000, 0.00000000
1, 0.0300, 3, -0.13705957, -0.90337127, 0.39810663, 0.12916197, -0.44831449, 0.21515365, 0.00000000, 0.00000000, 0.00000000, 113.94235992, -7.77498627, 178.46934509, 1.00000000, 0.00000000, 0.00000000, 0.00000000, 0.00177030, -0.00218648, 0.00396524, 0.00000000, 0.00000000, 0.00000000, 0.00000000
1, 0.0400, 4, -0.13418868, -0.90474087, 0.39829001, 0.06012861, -0.24153100, 0.11344153, 0.00000000, 0.00000000, 0.00000000, 113.90605164, -7.75155020, 178.48121643, 1.00000000, 0.00000000, 0.00000000, 0.00000000, -0.00099362, -0.00088644, 0.00366136, 0.00000000, 0.00000000, 0.00000000, 0.00000000
1, 0.0500, 5, -0.13249055, -0.90397298, 0.39875555, 0.13164316, -0.31035140, 0.07675657, 0.00000000, 0.00000000, 0.00000000, 113.90778351, -7.75099277, 178.47802734, 1.00000000, 0.00000000, 0.00000000, 0.00000000, -0.00237777, -0.00187866, 0.00279557, 0.00000000, 0.00000000, 0.00000000, 0.00000000
1, 0.0600, 6, -0.13302203, -0.90479869, 0.39918017, 0.09576233, -0.24233244, 0.16549341, 0.00000000, 0.00000000, 0.00000000, 113.90913391, -7.75152445, 178.47511292, 1.00000000, 0.00000000, 0.00000000, 0.00000000, -0.00185033, -0.00104052, 0.00239776, 0.00000000, 0.00000000, 0.00000000, 0.00000000
1, 0.0700, 7, -0.13699028, -0.90534031, 0.39812952, -0.11661148, -0.05017671, -0.05713084, 0.00000000, 0.00000000, 0.00000000, 113.90799713, -7.75079870, 178.47488403, 1.00000000, 0.00000000, 0.00000000, 0.00000000, 0.00211493, -0.00049843, 0.00344846, 0.00000000, 0.00000000, 0.00000000, 0.00000000
1, 0.0800, 8, -0.13472638, -0.90868515, 0.39689481, -0.15666279, 0.50879818, -0.13016367, 0.00000000, 0.00000000, 0.00000000, 113.90572357, -7.75166988, 178.48011780, 1.00000000, 0.00000000, 0.00000000, 0.00000000, -0.00014595, 0.00282620, 0.00463846, 0.00000000, 0.00000000, 0.00000000, 0.00000000
1, 0.0900, 9, -0.12980513, -0.91062880, 0.39582357, -0.00308897, 0.70613676, -0.13983326, 0.00000000, 0.00000000, 0.00000000, 113.88503265, -7.73452759, 178.49603271, 1.00000000, 0.00000000, 0.00000000, 0.00000000, -0.00501045, 0.00472303, 0.00562303, 0.00000000, 0.00000000, 0.00000000, 0.00000000
1, 0.1000, 10, -0.14973599, -0.87632328, 0.39754912, -0.19870184, 0.72786349, -0.45216766, 0.00000000, 0.00000000, 0.00000000, 113.88189697, -7.73334026, 178.50459290, 1.00000000, 0.00000000, 0.00000000, 0.00000000, 0.01514754, -0.02973045, 0.00363995, 0.00000000, 0.00000000, 0.00000000, 0.00000000
1, 0.1100, 11, -0.10644727, -0.94621193, 0.39982727, -0.00745705, 0.51995307, -2.38186693, 0.00000000, 0.00000000, 0.00000000, 113.87987518, -7.71366644, 178.51911926, 1.00000000, 0.00000000, 0.00000000, 0.00000000, -0.02777020, 0.04008710, 0.00132540, 0.00000000, 0.00000000, 0.00000000, 0.00000000
1, 0.1200, 12, -0.11466380, -0.90789872, 0.39696389, 0.56630123, 0.35487437, 0.26903611, 0.00000000, 0.00000000, 0.00000000, 113.88524628, -7.71756220, 178.52130127, 1.00000000, 0.00000000, 0.00000000, 0.00000000, -0.01959786, 0.00180580, 0.00424605, 0.00000000, 0.00000000, 0.00000000, 0.00000000
1, 0.1300, 13, -0.12711616, -0.91190082, 0.39897838, 0.41687945, -0.17329276, 0.21214078, 0.00000000, 0.00000000, 0.00000000, 113.88975525, -7.71879959, 178.51882935, 1.00000000, 0.00000000, 0.00000000, 0.00000000, -0.00718926, 0.00584474, 0.00230011, 0.00000000, 0.00000000, 0.00000000, 0.00000000
1, 0.1400, 14, -0.13830490, -0.90998620, 0.39421827, 0.66935468, 0.01035545, 0.43870467, 0.00000000, 0.00000000, 0.00000000, 113.87707520, -7.73347855, 178.51950073, 1.00000000, 0.00000000, 0.00000000, 0.00000000, 0.00390507, 0.00395072, 0.00707535, 0.00000000, 0.00000000, 0.00000000, 0.00000000
1, 0.1500, 15, -0.13818900, -0.90528035, 0.39383906, 0.72478944, 0.06213902, 0.31614253, 0.00000000, 0.00000000, 0.00000000, 113.88442993, -7.73662090, 178.51878357, 1.00000000, 0.00000000, 0.00000000, 0.00000000, 0.00359055, -0.00078070, 0.00732990, 0.00000000, 0.00000000, 0.00000000, 0.00000000
1, 0.1600, 16, -0.13420278, -0.90584928, 0.39525288, 0.31482038, 0.37493661, 0.21985321, 0.00000000, 0.00000000, 0.00000000, 113.88723755, -7.74014616, 178.52134705, 1.00000000, 0.00000000, 0.00000000, 0.00000000, -0.00045933, -0.00017108, 0.00598670, 0.00000000, 0.00000000, 0.00000000, 0.00000000
1, 0.1700, 17, -0.13428691, -0.90005732, 0.40060601, -0.02874799, 0.29682526, -2.26174259, 0.00000000, 0.00000000, 0.00000000, 113.88534546, -7.72066832, 178.53332520, 1.00000000, 0.00000000, 0.00000000, 0.00000000, -0.00025996, -0.00597644, 0.00064214, 0.00000000, 0.00000000, 0.00000000, 0.00000000
1, 0.1800, 18, -0.13112527, -0.90549356, 0.40117186, 0.08252202, 0.54811609, 0.24223737, 0.00000000, 0.00000000, 0.00000000, 113.88562012, -7.72510290, 178.53739929, 1.00000000, 0.00000000, 0.00000000, 0.00000000, -0.00327276, -0.00056644, 0.00006687, 0.00000000, 0.00000000, 0.00000000, 0.00000000
1, 0.1900, 19, -0.13292773, -0.90465927, 0.40052876, -0.04281575, 0.53330833, 0.12110275, 0.00000000, 0.00000000, 0.00000000, 113.87053680, -7.73719406, 178.54324341, 1.00000000, 0.00000000, 0.00000000, 0.00000000, -0.00156420, -0.00141892, 0.00063721, 0.00000000, 0.00000000, 0.00000000, 0.00000000
1, 0.2000, 20, -0.13407396, -0.90532696, 0.39507142, -0.00451446, 0.72132403, 0.08785224, 0.00000000, 0.00000000, 0.00000000, 113.86964417, -7.74091721, 178.54954529, 1.00000000, 0.00000000, 0.00000000, 0.00000000, -0.00059417, -0.00081034, 0.00590191, 0.00000000, 0.00000000, 0.00000000, 0.00000000
1, 0.2100, 21, -0.13229762, -0.90567482, 0.39311266, -0.11302651, 0.75557303, 0.21207823, 0.00000000, 0.00000000, 0.00000000, 113.86768341, -7.74591351, 178.55566406, 1.00000000, 0.00000000, 0.00000000, 0.00000000, -0.00245467, -0.00046302, 0.00783139, 0.00000000, 0.00000000, 0.00000000, 0.00000000
1, 0.2200, 22, -0.14866094, -0.90773934, 0.38869512, -0.55178237, 1.19078422, 1.85000074, 0.00000000, 0.00000000, 0.00000000, 113.86170197, -7.76764965, 178.55908203, 1.00000000, 0.00000000, 0.00000000, 0.00000000, 0.01375633, 0.00160064, 0.01219580, 0.00000000, 0.00000000, 0.00000000, 0.00000000
1, 0.2300, 23, -0.09649868, -0.88008451, 0.39670873, 1.16780448, 0.99441546, 2.78909183, 0.00000000, 0.00000000, 0.00000000, 113.87368011, -7.79717827, 178.55686951, 1.00000000, 0.00000000, 0.00000000, 0.00000000, -0.03911647, -0.02594191, 0.00419600, 0.00000000, 0.00000000, 0.00000000, 0.00000000
1, 0.2400, 24, -0.12916936, -0.90888733, 0.39913997, 0.38547081, 0.60888898, 0.78171962, 0.00000000, 0.00000000, 0.00000000, 113.86367035, -7.80484867, 178.56320190, 1.00000000, 0.00000000, 0.00000000, 0.00000000, -0.00660026, 0.00290722, 0.00181709, 0.00000000, 0.00000000, 0.00000000, 0.00000000
1, 0.2500, 25, -0.13329184, -0.91209078, 0.39697564, 0.50528431, 0.02642955, 0.75588703, 0.00000000, 0.00000000, 0.00000000, 113.86911011, -7.81186771, 178.56036377, 1.00000000, 0.00000000, 0.00000000, 0.00000000, -0.00258770, 0.00608531, 0.00388695, 0.00000000, 0.00000000, 0.00000000, 0.00000000
1, 0.2600, 26, -0.13748839, -0.91103286, 0.39299020, 0.52372217, 0.11115323, 0.82665694, 0.00000000, 0.00000000, 0.00000000, 113.87466431, -7.81987619, 178.55801392, 1.00000000, 0.00000000, 0.00000000, 0.00000000, 0.00148053, 0.00508326, 0.00795528, 0.00000000, 0.00000000, 0.00000000, 0.00000000
1, 0.2700, 27, -0.12916206, -0.91071069, 0.39364943, 0.48703417, 0.06007151, 0.84400284, 0.00000000, 0.00000000, 0.00000000, 113.87992096, -7.82783842, 178.55511475, 1.00000000, 0.00000000, 0.00000000, 0.00000000, -0.00698196, 0.00481443, 0.00737049, 0.00000000, 0.00000000, 0.00000000, 0.00000000
1, 0.2800, 28, -0.12914124, -0.90901583, 0.39644381, 0.45109156, 0.14489479, 0.96793687, 0.00000000, 0.00000000, 0.00000000, 113.88478851, -7.83727407, 178.55250549, 1.00000000, 0.00000000, 0.00000000, 0.00000000, -0.00716020, 0.00317523, 0.00464801, 0.00000000, 0.00000000, 0.00000000, 0.00000000
1, 0.2900, 29, -0.13195986, -0.90597707, 0.40168923, 0.39882043, 0.28251642, 0.93520081, 0.00000000, 0.00000000, 0.00000000, 113.88838196, -7.83831310, 178.55357361, 1.00000000, 0.00000000, 0.00000000, 0.00000000, -0.00446665, 0.00018089, -0.00053950, 0.00000000, 0.00000000, 0.00000000, 0.00000000
1, 0.3000, 30, -0.13332021, -0.90670854, 0.40006036, 0.57940727, 0.36576527, 0.98646951, 0.00000000, 0.00000000, 0.00000000, 113.89427185, -7.84881306, 178.55291748, 1.00000000, 0.00000000, 0.00000000, 0.00000000, -0.00317086, 0.00095423, 0.00116191, 0.00000000, 0.00000000, 0.00000000, 0.00000000
1, 0.3100, 31, -0.13429478, -0.90597850, 0.39929575, 0.45382240, 0.41817489, 1.00612354, 0.00000000, 0.00000000, 0.00000000, 113.89884949, -7.85970545, 178.55265808, 1.00000000, 0.00000000, 0.00000000, 0.00000000, -0.00237818, 0.00028385, 0.00199918, 0.00000000, 0.00000000, 0.00000000, 0.00000000
1, 0.3200, 32, -0.13369933, -0.90741479, 0.39414474, 0.30992445, 0.45351925, 1.04329979, 0.00000000, 0.00000000, 0.00000000, 113.90196228, -7.87108040, 178.55256653, 1.00000000, 0.00000000, 0.00000000, 0.00000000, -0.00317444, 0.00176848, 0.00719114, 0.00000000, 0.00000000, 0.00000000, 0.00000000
1, 0.3300, 33, -0.13398337, -0.90536362, 0.39231446, 0.18185808, 0.33420998, 1.14845562, 0.00000000, 0.00000000, 0.00000000, 113.90399933, -7.88293409, 178.55096436, 1.00000000, 0.00000000, 0.00000000, 0.00000000, -0.00309147, -0.00023587, 0.00905830, 0.00000000, 0.00000000, 0.00000000, 0.00000000
1, 0.3400, 34, -0.13014160, -0.90529239, 0.39777416, 0.19942577, 0.24912596, 1.07724082, 0.00000000, 0.00000000, 0.00000000, 113.90035248, -7.87913895, 178.55383301, 1.00000000, 0.00000000, 0.00000000, 0.00000000, -0.00705998, -0.00028941, 0.00359514, 0.00000000, 0.00000000, 0.00000000, 0.00000000
1, 0.3500, 35, -0.12964287, -0.90738177, 0.40003350, 0.10581397, 0.04322936, 1.26844990, 0.00000000, 0.00000000, 0.00000000, 113.90206146, -7.89091158, 178.54904175, 1.00000000, 0.00000000, 0.00000000, 0.00000000, -0.00756847, 0.00178386, 0.00129605, 0.00000000, 0.00000000, 0.00000000, 0.00000000
1, 0.3600, 36, -0.13091531, -0.90852976, 0.40002668, 0.26523268, -0.19776985, 1.26365745, 0.00000000, 0.00000000, 0.00000000, 113.90567780, -7.90166235, 178.54205322, 1.00000000, 0.00000000, 0.00000000, 0.00000000, -0.00648461, 0.00297436, 0.00133433, 0.00000000, 0.00000000, 0.00000000, 0.00000000
1, 0.3700, 37, -0.13563348, -0.91003436, 0.39480478, 0.37120217, -0.31942177, 1.36592126, 0.00000000, 0.00000000, 0.00000000, 113.91056824, -7.91285276, 178.53350830, 1.00000000, 0.00000000, 0.00000000, 0.00000000, -0.00195931, 0.00453736, 0.00662191, 0.00000000, 0.00000000, 0.00000000, 0.00000000
1, 0.3800, 38, -0.13445929, -0.90927905, 0.39101139, 0.51535016, -0.18569340, 1.55822432, 0.00000000, 0.00000000, 0.00000000, 113.91683197, -7.92634583, 178.52542114, 1.00000000, 0.00000000, 0.00000000, 0.00000000, -0.00335072, 0.00384818, 0.01048993, 0.00000000, 0.00000000, 0.00000000, 0.00000000
1, 0.3900, 39, -0.13624857, -0.90483111, 0.39506957, 0.48046118, -0.11649843, 1.50696933, 0.00000000, 0.00000000, 0.00000000, 113.91513062, -7.94116735, 178.51948547, 1.00000000, 0.00000000, 0.00000000, 0.00000000, -0.00180076, -0.00053895, 0.00648667, 0.00000000, 0.00000000, 0.00000000, 0.00000000
1, 0.4000, 40, -0.13788798, -0.90320796, 0.39525697, 0.37548497, 0.14135243, 1.47629607, 0.00000000, 0.00000000, 0.00000000, 113.91954041, -7.95523405, 178.51473999, 1.00000000, 0.00000000, 0.00000000, 0.00000000, -0.00042372, -0.00213425, 0.00627172, 0.00000000, 0.00000000, 0.00000000, 0.00000000
1, 0.4100, 41, -0.13211140, -0.90037054, 0.39757591, 0.48188797, -0.03041859, 1.43797016, 0.00000000, 0.00000000, 0.00000000, 113.92522430, -7.96825600, 178.50857544, 1.00000000, 0.00000000, 0.00000000, 0.00000000, -0.00642923, -0.00490518, 0.00402376, 0.00000000, 0.00000000, 0.00000000, 0.00000000
1, 0.4200, 42, -0.12470780, -0.90287900, 0.39999893, 0.67880088, -0.16874690, 1.38143170, 0.00000000, 0.00000000, 0.00000000, 113.93302155, -7.98019791, 178.50135803, 1.00000000, 0.00000000, 0.00000000, 0.00000000, -0.01405311, -0.00231968, 0.00169835, 0.00000000, 0.00000000, 0.00000000, 0.00000000
1, 0.4300, 43, -0.12605299, -0.90769696, 0.40129450, 0.76180243, -0.80243504, 1.39044428, 0.00000000, 0.00000000, 0.00000000, 113.94245911, -7.98964834, 178.48826599, 1.00000000, 0.00000000, 0.00000000, 0.00000000, -0.01288424, 0.00258231, 0.00053127, 0.00000000, 0.00000000, 0.00000000, 0.00000000
1, 0.4400, 44, -0.13673611, -0.90708059, 0.39319110, 0.79439557, -1.06000614, 1.47450435, 0.00000000, 0.00000000, 0.00000000, 113.94401550, -7.99981737, 178.47410583, 1.00000000, 0.00000000, 0.00000000, 0.00000000, -0.00236006, 0.00204095, 0.00874843, 0.00000000, 0.00000000, 0.00000000, 0.00000000
1, 0.4500, 45, -0.14091837, -0.90479344, 0.38924125, 0.61418080, -1.14281404, 1.37073910, 0.00000000, 0.00000000, 0.00000000, 113.95240021, -8.00770664, 178.45794678, 1.00000000, 0.00000000, 0.00000000, 0.00000000, 0.00166064, -0.00020389, 0.01273786, 0.00000000, 0.00000000, 0.00000000, 0.00000000
1, 0.4600, 46, -0.13074581, -0.90139449, 0.38657704, 0.65068179, -1.17634213, 1.24740291, 0.00000000, 0.00000000, 0.00000000, 113.96113586, -8.01432896, 178.44197083, 1.00000000, 0.00000000, 0.00000000, 0.00000000, -0.00863442, -0.00353086, 0.01552154, 0.00000000, 0.00000000, 0.00000000, 0.00000000
1, 0.4700, 47, -0.12606020, -0.89748156, 0.39401406, 0.44532770, -1.89190388, 1.17148387, 0.00000000, 0.00000000, 0.00000000, 113.96868896, -8.01734924, 178.41970825, 1.00000000, 0.00000000, 0.00000000, 0.00000000, -0.01339963, -0.00737362, 0.00821488, 0.00000000, 0.00000000, 0.00000000, 0.00000000
1, 0.4800, 48, -0.12788539, -0.90420097, 0.40207109, 0.15616402, -2.16038966, 0.90937054, 0.00000000, 0.00000000, 0.00000000, 113.97355652, -8.01688290, 178.39605713, 1.00000000, 0.00000000, 0.00000000, 0.00000000, -0.01158475, -0.00061414, 0.00024452, 0.00000000, 0.00000000, 0.00000000, 0.00000000
1, 0.4900, 49, -0.12890302, -0.90987962, 0.40281242, 0.01369283, -2.03896499, 0.87754750, 0.00000000, 0.00000000, 0.00000000, 113.97515869, -8.00643730, 178.37654114, 1.00000000, 0.00000000, 0.00000000, 0.00000000, -0.01051790, 0.00508140, -0.00044209, 0.00000000, 0.00000000, 0.00000000, 0.00000000
1, 0.5000, 50, -0.13194267, -0.91230667, 0.39801866, 0.11848237, -2.34767056, 0.85512632, 0.00000000, 0.00000000, 0.00000000, 113.97984314, -8.00470924, 178.35136414, 1.00000000, 0.00000000, 0.00000000, 0.00000000, -0.00731831, 0.00750944, 0.00440926, 0.00000000, 0.00000000, 0.00000000, 0.00000000
1, 0.5100, 51, -0.13550325, -0.91727692, 0.39318317, 0.11563095, -2.35105157, 1.25760186, 0.00000000, 0.00000000, 0.00000000, 113.98474121, -8.00664425, 178.32450867, 1.00000000, 0.00000000, 0.00000000, 0.00000000, -0.00376607, 0.01251352, 0.00931802, 0.00000000, 0.00000000, 0.00000000, 0.00000000
1, 0.5200, 52, -0.13067354, -0.92188066, 0.39393911, 0.36543888, -2.32246470, 1.62236357, 0.00000000, 0.00000000, 0.00000000, 113.99230957, -8.01202583, 178.29643250, 1.00000000, 0.00000000, 0.00000000, 0.00000000, -0.00867122, 0.01717120, 0.00865714, 0.00000000, 0.00000000, 0.00000000, 0.00000000
1, 0.5300, 53, -0.12557673, -0.92716283, 0.39123127, -0.13962664, -1.98103750, 2.29753852, 0.00000000, 0.00000000, 0.00000000, 113.99478149, -8.02496052, 178.26870728, 1.00000000, 0.00000000, 0.00000000, 0.00000000, -0.01393536, 0.02251284, 0.01144075, 0.00000000, 0.00000000, 0.00000000, 0.00000000
1, 0.5400, 54, -0.14073370, -0.93107873, 0.38549125, -1.03175938, -1.16928542, 2.42302275, 0.00000000, 0.00000000, 0.00000000, 113.96718597, -8.04852676, 178.25074768, 1.00000000, 0.00000000, 0.00000000, 0.00000000, 0.00091897, 0.02640700, 0.01702698, 0.00000000, 0.00000000, 0.00000000, 0.00000000
1, 0.5500, 55, -0.15349881, -0.93023849, 0.38642177, -1.44054759, -0.63567871, 2.50431371, 0.00000000, 0.00000000, 0.00000000, 113.95503998, -8.06883049, 178.23461914, 1.00000000, 0.00000000, 0.00000000, 0.00000000, 0.01327180, 0.02543502, 0.01565673, 0.00000000, 0.00000000, 0.00000000, 0.00000000
1, 0.5600, 56, -0.14667009, -0.91366065, 0.39372939, -1.37343633, -0.86161864, 2.85081172, 0.00000000, 0.00000000, 0.00000000, 113.94406891, -8.09138584, 178.21496582, 1.00000000, 0.00000000, 0.00000000, 0.00000000, 0.00606589, 0.00882913, 0.00815415, 0.00000000, 0.00000000, 0.00000000, 0.00000000
1, 0.5700, 57, -0.13332842, -0.89709449, 0.40751192, -1.38143837, -1.32680297, 3.26540518, 0.00000000, 0.00000000, 0.00000000, 113.93386841, -8.11584854, 178.18933105, 1.00000000, 0.00000000, 0.00000000, 0.00000000, -0.00768320, -0.00775963, -0.00582204, 0.00000000, 0.00000000, 0.00000000, 0.00000000
1, 0.5800, 58, -0.12771593, -0.89010489, 0.41640264, -1.60342991, -1.90554440, 3.20880175, 0.00000000, 0.00000000, 0.00000000, 113.92218781, -8.13744926, 178.15859985, 1.00000000, 0.00000000, 0.00000000, 0.00000000, -0.01369969, -0.01477456, -0.01491186, 0.00000000, 0.00000000, 0.00000000, 0.00000000
1, 0.5900, 59, -0.12890969, -0.88713849, 0.41684121, -1.62676930, -2.38426590, 3.22094250, 0.00000000, 0.00000000, 0.00000000, 113.91904449, -8.15201569, 178.12294006, 1.00000000, 0.00000000, 0.00000000, 0.00000000, -0.01283093, -0.01776718, -0.01552438, 0.00000000, 0.00000000, 0.00000000, 0.00000000
1, 0.6000, 60, -0.13018434, -0.88834167, 0.41294381, -1.72205913, -2.91282701, 3.14588094, 0.00000000, 0.00000000, 0.00000000, 113.90746307, -8.16896534, 178.08316040, 1.00000000, 0.00000000, 0.00000000, 0.00000000, -0.01180179, -0.01656626, -0.01171882, 0.00000000, 0.00000000, 0.00000000, 0.00000000
1, 0.6100, 61, -0.13596627, -0.89411569, 0.40583438, -2.01401448, -3.37027669, 2.98656917, 0.00000000, 0.00000000, 0.00000000, 113.89349365, -8.18261623, 178.03979492, 1.00000000, 0.00000000, 0.00000000, 0.00000000, -0.00627378, -0.01085158, -0.00483315, 0.00000000, 0.00000000, 0.00000000, 0.00000000
1, 0.6200, 62, -0.14234529, -0.89852613, 0.40182325, -1.82268524, -3.88653350, 3.13563323, 0.00000000, 0.00000000, 0.00000000, 113.88220215, -8.19554806, 177.99107361, 1.00000000, 0.00000000, 0.00000000, 0.00000000, -0.00013288, -0.00649644, -0.00103144, 0.00000000, 0.00000000, 0.00000000, 0.00000000
1, 0.6300, 63, -0.14660786, -0.90307146, 0.39551786, -1.98905551, -4.39639282, 2.95666718, 0.00000000, 0.00000000, 0.00000000, 113.86983490, -8.20479012, 177.93835449, 1.00000000, 0.00000000, 0.00000000, 0.00000000, 0.00395610, -0.00201087, 0.00507718, 0.00000000, 0.00000000, 0.00000000, 0.00000000
1, 0.6400, 64, -0.15020469, -0.90580916, 0.38876137, -1.91878128, -4.50043917, 3.04207563, 0.00000000, 0.00000000, 0.00000000, 113.85363770, -8.21709347, 177.88470459, 1.00000000, 0.00000000, 0.00000000, 0.00000000, 0.00738088, 0.00065963, 0.01162032, 0.00000000, 0.00000000, 0.00000000, 0.00000000
1, 0.6500, 65, -0.14708184, -0.90398335, 0.38874352, -1.72205329, -4.58835411, 3.09112930, 0.00000000, 0.00000000, 0.00000000, 113.84427643, -8.22681332, 177.82968140, 1.00000000, 0.00000000, 0.00000000, 0.00000000, 0.00404880, -0.00123560, 0.01140666, 0.00000000, 0.00000000, 0.00000000, 0.00000000
1, 0.6600, 66, -0.14375041, -0.90280020, 0.39129665, -1.65246320, -4.84510994, 3.03475308, 0.00000000, 0.00000000, 0.00000000, 113.83594513, -8.23498726, 177.77249146, 1.00000000, 0.00000000, 0.00000000, 0.00000000, 0.00056959, -0.00245963, 0.00870834, 0.00000000, 0.00000000, 0.00000000, 0.00000000
1, 0.6700, 67, -0.14888462, -0.90846783, 0.38807917, -1.47417295, -5.01774836, 3.01303625, 0.00000000, 0.00000000, 0.00000000, 113.82961273, -8.24227333, 177.71382141, 1.00000000, 0.00000000, 0.00000000, 0.00000000, 0.00557182, 0.00317422, 0.01180195, 0.00000000, 0.00000000, 0.00000000, 0.00000000
1, 0.6800, 68, -0.14977150, -0.90797663, 0.38317829, -1.18104255, -4.77831459, 2.66228819, 0.00000000, 0.00000000, 0.00000000, 113.82569122, -8.24732399, 177.65878296, 1.00000000, 0.00000000, 0.00000000, 0.00000000, 0.00635178, 0.00266352, 0.01662046, 0.00000000, 0.00000000, 0.00000000, 0.00000000
1, 0.6900, 69, -0.15203822, -0.90991181, 0.37710127, -0.85327226, -4.70963669, 2.23910618, 0.00000000, 0.00000000, 0.00000000, 113.81462097, -8.25277328, 177.60733032, 1.00000000, 0.00000000, 0.00000000, 0.00000000, 0.00855576, 0.00457375, 0.02261840, 0.00000000, 0.00000000, 0.00000000, 0.00000000
1, 0.7000, 70, -0.15351649, -0.91025162, 0.37651530, -0.23838733, -4.62806654, 1.97005486, 0.00000000, 0.00000000, 0.00000000, 113.81954193, -8.25210762, 177.55651855, 1.00000000, 0.00000000, 0.00000000, 0.00000000, 0.00998020, 0.00488584, 0.02312214, 0.00000000, 0.00000000, 0.00000000, 0.00000000
1, 0.7100, 71, -0.14321117, -0.90880376, 0.37834653, 0.28567827, -4.52967262, 1.84230661, 0.00000000, 0.00000000, 0.00000000, 113.82948303, -8.25066471, 177.50711060, 1.00000000, 0.00000000, 0.00000000, 0.00000000, -0.00030265, 0.00349116, 0.02141956, 0.00000000, 0.00000000, 0.00000000, 0.00000000
1, 0.7200, 72, -0.14489058, -0.90810603, 0.38214487, 0.93948376, -4.32686424, 1.34671867, 0.00000000, 0.00000000, 0.00000000, 113.84540558, -8.24549484, 177.46162415, 1.00000000, 0.00000000, 0.00000000, 0.00000000, 0.00143380, 0.00288175, 0.01784148, 0.00000000, 0.00000000, 0.00000000, 0.00000000
1, 0.7300, 73, -0.15936290, -0.91131341, 0.37833875, 1.05866623, -3.67335510, 0.77549237, 0.00000000, 0.00000000, 0.00000000, 113.86131287, -8.23773289, 177.42451477, 1.00000000, 0.00000000, 0.00000000, 0.00000000, 0.01602823, 0.00618771, 0.02191436, 0.00000000, 0.00000000, 0.00000000, 0.00000000
1, 0.7400, 74, -0.17054273, -0.90850365, 0.36996752, 1.48799109, -2.71425772, 0.09907774, 0.00000000, 0.00000000, 0.00000000, 113.85412598, -8.25033474, 177.39901733, 1.00000000, 0.00000000, 0.00000000, 0.00000000, 0.02727028, 0.00344475, 0.03045902, 0.00000000, 0.00000000, 0.00000000, 0.00000000
1, 0.7500, 75, -0.15646277, -0.90705395, 0.36528063, 1.97020888, -1.72326779, -0.36761850, 0.00000000, 0.00000000, 0.00000000, 113.87589264, -8.24000168, 177.38459778, 1.00000000, 0.00000000, 0.00000000, 0.00000000, 0.01306852, 0.00202002, 0.03515870, 0.00000000, 0.00000000, 0.00000000, 0.00000000
1, 0.7600, 76, -0.14988135, -0.90649164, 0.37270761, 2.31796432, -1.75368524, -1.22969210, 0.00000000, 0.00000000, 0.00000000, 113.90065765, -8.22165680, 177.37342834, 1.00000000, 0.00000000, 0.00000000, 0.00000000, 0.00674810, 0.00158951, 0.02812291, 0.00000000, 0.00000000, 0.00000000, 0.00000000
1, 0.7700, 77, -0.15029599, -0.90570766, 0.38793451, 2.99026775, -1.58422399, -1.84839344, 0.00000000, 0.00000000, 0.00000000, 113.93157196, -8.19833946, 177.36637878, 1.00000000, 0.00000000, 0.00000000, 0.00000000, 0.00753946, 0.00095293, 0.01336278, 0.00000000, 0.00000000, 0.00000000, 0.00000000
1, 0.7800, 78, -0.14629076, -0.90725160, 0.38839489, 3.16296220, -0.99935561, -2.45608234, 0.00000000, 0.00000000, 0.00000000, 113.96307373, -8.17183399, 177.36721802, 1.00000000, 0.00000000, 0.00000000, 0.00000000, 0.00397267, 0.00266166, 0.01342919, 0.00000000, 0.00000000, 0.00000000, 0.00000000
1, 0.7900, 79, -0.13879073, -0.91182643, 0.38486701, 3.44156432, -0.48557916, -2.87341475, 0.00000000, 0.00000000, 0.00000000, 113.98626709, -8.14045334, 177.37780762, 1.00000000, 0.00000000, 0.00000000, 0.00000000, -0.00304125, 0.00738560, 0.01746444, 0.00000000, 0.00000000, 0.00000000, 0.00000000
1, 0.8000, 80, -0.13143215, -0.91287571, 0.38588667, 3.78783321, -0.41649342, -3.36681509, 0.00000000, 0.00000000, 0.00000000, 114.02273560, -8.10800171, 177.38780212, 1.00000000, 0.00000000, 0.00000000, 0.00000000, -0.00982434, 0.00855166, 0.01690919, 0.00000000, 0.00000000, 0.00000000, 0.00000000
1, 0.8100, 81, -0.13329150, -0.90920401, 0.39086059, 4.15012121, -0.38369566, -3.63335013, 0.00000000, 0.00000000, 0.00000000, 114.06262970, -8.07325649, 177.39921570, 1.00000000, 0.00000000, 0.00000000, 0.00000000, -0.00737699, 0.00507532, 0.01257911, 0.00000000, 0.00000000, 0.00000000, 0.00000000
1, 0.8200, 82, -0.13003843, -0.90694225, 0.39651179, 4.32574320, -0.74515164, -3.56976438, 0.00000000, 0.00000000, 0.00000000, 114.10478210, -8.03762436, 177.40705872, 1.00000000, 0.00000000, 0.00000000, 0.00000000, -0.01001959, 0.00302626, 0.00761653, 0.00000000, 0.00000000, 0.00000000, 0.00000000
1, 0.8300, 83, -0.13356945, -0.90965486, 0.39992562, 4.43096781, -1.00270891, -3.57408857, 0.00000000, 0.00000000, 0.00000000, 114.14832306, -8.00090790, 177.41256714, 1.00000000, 0.00000000, 0.00000000, 0.00000000, -0.00585992, 0.00596306, 0.00492058, 0.00000000, 0.00000000, 0.00000000, 0.00000000
1, 0.8400, 84, -0.12747757, -0.91404730, 0.40221626, 4.41073275, -1.00517476, -3.25888491, 0.00000000, 0.00000000, 0.00000000, 114.18894196, -7.96118689, 177.41906738, 1.00000000, 0.00000000, 0.00000000, 0.00000000, -0.01131496, 0.01057433, 0.00333650, 0.00000000, 0.00000000, 0.00000000, 0.00000000
1, 0.8500, 85, -0.11903601, -0.91445357, 0.40492517, 4.54824352, -1.26750207, -2.73868632, 0.00000000, 0.00000000, 0.00000000, 114.23448181, -7.93101072, 177.41871643, 1.00000000, 0.00000000, 0.00000000, 0.00000000, -0.01913627, 0.01120432, 0.00133722, 0.00000000, 0.00000000, 0.00000000, 0.00000000
1, 0.8600, 86, -0.11903804, -0.90960801, 0.41266400, 4.34022474, -1.86807930, -2.25324440, 0.00000000, 0.00000000, 0.00000000, 114.27896118, -7.90279198, 177.41087341, 1.00000000, 0.00000000, 0.00000000, 0.00000000, -0.01863245, 0.00661454, -0.00566335, 0.00000000, 0.00000000, 0.00000000, 0.00000000
1, 0.8700, 87, -0.12450562, -0.90714252, 0.41474730, 3.74011874, -2.02116299, -1.63523352, 0.00000000, 0.00000000, 0.00000000, 114.31797791, -7.87957191, 177.39907837, 1.00000000, 0.00000000, 0.00000000, 0.00000000, -0.01273003, 0.00438902, -0.00706790, 0.00000000, 0.00000000, 0.00000000, 0.00000000
1, 0.8800, 88, -0.12017656, -0.90456057, 0.41403005, 3.23250675, -2.07094073, -1.20962763, 0.00000000, 0.00000000, 0.00000000, 114.35223389, -7.86001348, 177.38504028, 1.00000000, 0.00000000, 0.00000000, 0.00000000, -0.01670586, 0.00201929, -0.00576255, 0.00000000, 0.00000000, 0.00000000, 0.00000000
1, 0.8900, 89, -0.11635966, -0.90123135, 0.41640878, 2.56299186, -2.28772807, -1.06399572, 0.00000000, 0.00000000, 0.00000000, 114.38494110, -7.82831478, 177.37075806, 1.00000000, 0.00000000, 0.00000000, 0.00000000, -0.02013364, -0.00113274, -0.00761950, 0.00000000, 0.00000000, 0.00000000, 0.00000000
1, 0.9000, 90, -0.11365790, -0.90122616, 0.41457558, 1.79775381, -3.01671314, -0.90573126, 0.00000000, 0.00000000, 0.00000000, 114.40618896, -7.80760574, 177.34681702, 1.00000000, 0.00000000, 0.00000000, 0.00000000, -0.02232195, -0.00100847, -0.00532978, 0.00000000, 0.00000000, 0.00000000, 0.00000000
1, 0.9100, 91, -0.11967147, -0.90332460, 0.41253483, 0.92841029, -3.25052714, -0.53036505, 0.00000000, 0.00000000, 0.00000000, 114.41921234, -7.78934097, 177.31915283, 1.00000000, 0.00000000, 0.00000000, 0.00000000, -0.01598158, 0.00116584, -0.00301337, 0.00000000, 0.00000000, 0.00000000, 0.00000000
1, 0.9200, 92, -0.12699808, -0.90986693, 0.40474570, 0.18707275, -3.24696112, -0.06627126, 0.00000000, 0.00000000, 0.00000000, 114.42507935, -7.77531052, 177.28958130, 1.00000000, 0.00000000, 0.00000000, 0.00000000, -0.00837094, 0.00773202, 0.00492228, 0.00000000, 0.00000000, 0.00000000, 0.00000000
1, 0.9300, 93, -0.12978472, -0.91437739, 0.40199643, -0.33996782, -3.31512666, 0.53434724, 0.00000000, 0.00000000, 0.00000000, 114.42609406, -7.76646900, 177.25688171, 1.00000000, 0.00000000, 0.00000000, 0.00000000, -0.00540096, 0.01224124, 0.00772937, 0.00000000, 0.00000000, 0.00000000, 0.00000000
1, 0.9400, 94, -0.13238080, -0.91581786, 0.40262944, -0.59193957, -2.92433953, 1.13700938, 0.00000000, 0.00000000, 0.00000000, 114.41553497, -7.76047468, 177.22825623, 1.00000000, 0.00000000, 0.00000000, 0.00000000, -0.00270887, 0.01364560, 0.00704848, 0.00000000, 0.00000000, 0.00000000, 0.00000000
1, 0.9500, 95, -0.12761436, -0.91780162, 0.39956659, -0.77754825, -3.06417513, 1.71510494, 0.00000000, 0.00000000, 0.00000000, 114.41252899, -7.76342630, 177.19293213, 1.00000000, 0.00000000, 0.00000000, 0.00000000, -0.00743622, 0.01555571, 0.00996205, 0.00000000, 0.00000000, 0.00000000, 0.00000000
1, 0.9600, 96, -0.12032256, -0.91679424, 0.40427029, -0.30176884, -3.55382299, 2.42097402, 0.00000000, 0.00000000, 0.00000000, 114.41529083, -7.77078247, 177.15017700, 1.00000000, 0.00000000, 0.00000000, 0.00000000, -0.01483501, 0.01456422, 0.00525808, 0.00000000, 0.00000000, 0.00000000, 0.00000000
1, 0.9700, 97, -0.11871452, -0.91046441, 0.40197030, 0.08579489, -3.98980403, 2.95356441, 0.00000000, 0.00000000, 0.00000000, 114.42277527, -7.78118134, 177.10118103, 1.00000000, 0.00000000, 0.00000000, 0.00000000, -0.01661124, 0.00829661, 0.00763953, 0.00000000, 0.00000000, 0.00000000, 0.00000000
1, 0.9800, 98, -0.12186117, -0.90109408, 0.40151206, 0.77332270, -5.07741165, 3.33480763, 0.00000000, 0.00000000, 0.00000000, 114.43872070, -7.79054308, 177.04060364, 1.00000000, 0.00000000, 0.00000000, 0.00000000, -0.01362876, -0.00095935, 0.00829535, 0.00000000, 0.00000000, 0.00000000, 0.00000000
1, 0.9900, 99, -0.13191997, -0.89732885, 0.40392941, 1.00134015, -5.57634163, 3.41363025, 0.00000000, 0.00000000, 0.00000000, 114.45698547, -7.79989862, 176.97488403, 1.00000000, 0.00000000, 0.00000000, 0.00000000, -0.00372683, -0.00457537, 0.00615442, 0.00000000, 0.00000000, 0.00000000, 0.00000000
1, 1.0000, 100, -0.14279132, -0.89473885, 0.40520725, 0.80647177, -5.48622179, 3.10209322, 0.00000000, 0.00000000, 0.00000000, 114.47366333, -7.80541325, 176.91151428, 1.00000000, 0.00000000, 0.00000000, 0.00000000, 0.00700963, -0.00702907, 0.00513160, 0.00000000, 0.00000000, 0.00000000, 0.00000000
1, 1.0100, 101, -0.13912363, -0.89351326, 0.40273732, 0.77400118, -5.36352634, 2.78895211, 0.00000000, 0.00000000, 0.00000000, 114.48968506, -7.80856943, 176.85057068, 1.00000000, 0.00000000, 0.00000000, 0.00000000, 0.00327427, -0.00813207, 0.00784851, 0.00000000, 0.00000000, 0.00000000, 0.00000000
1, 1.0200, 102, -0.13493207, -0.89466339, 0.39704236, 0.70161581, -5.53202581, 2.57786179, 0.00000000, 0.00000000, 0.00000000, 114.50506592, -7.80908775, 176.78897095, 1.00000000, 0.00000000, 0.00000000, 0.00000000, -0.00093830, -0.00686279, 0.01379786, 0.00000000, 0.00000000, 0.00000000, 0.00000000
1, 1.0300, 103, -0.12881203, -0.90451509, 0.39787149, 0.39823437, -5.50892353, 2.23186445, 0.00000000, 0.00000000, 0.00000000, 114.51718903, -7.80654001, 176.72903442, 1.00000000, 0.00000000, 0.00000000, 0.00000000, -0.00704160, 0.00308041, 0.01317498, 0.00000000, 0.00000000, 0.00000000, 0.00000000
1, 1.0400, 104, -0.12763548, -0.91692668, 0.39813033, 0.34248683, -5.78048658, 2.05435371, 0.00000000, 0.00000000, 0.00000000, 114.51985931, -7.79710865, 176.67030334, 1.00000000, 0.00000000, 0.00000000, 0.00000000, -0.00811753, 0.01554839, 0.01307304, 0.00000000, 0.00000000, 0.00000000, 0.00000000
1, 1.0500, 105, -0.13247287, -0.92076683, 0.39299077, 0.81248432, -5.49596930, 2.22694707, 0.00000000, 0.00000000, 0.00000000, 114.53610229, -7.79455328, 176.61050415, 1.00000000, 0.00000000, 0.00000000, 0.00000000, -0.00315610, 0.01942576, 0.01833521, 0.00000000, 0.00000000, 0.00000000, 0.00000000
1, 1.0600, 106, -0.13985881, -0.91680020, 0.39238098, 1.53278577, -5.18227768, 2.69430614, 0.00000000, 0.00000000, 0.00000000, 114.55941772, -7.79753113, 176.55162048, 1.00000000, 0.00000000, 0.00000000, 0.00000000, 0.00420970, 0.01560666, 0.01926169, 0.00000000, 0.00000000, 0.00000000, 0.00000000
1, 1.0700, 107, -0.14212841, -0.90840703, 0.38652900, 2.07169414, -4.96966839, 3.19769192, 0.00000000, 0.00000000, 0.00000000, 114.58815002, -7.80594683, 176.49258423, 1.00000000, 0.00000000, 0.00000000, 0.00000000, 0.00636828, 0.00742427, 0.02553812, 0.00000000, 0.00000000, 0.00000000, 0.00000000
1, 1.0800, 108, -0.14380416, -0.90442300, 0.38099742, 2.32596779, -4.69949913, 3.30275989, 0.00000000, 0.00000000, 0.00000000, 114.61914825, -7.81640816, 176.43557739, 1.00000000, 0.00000000, 0.00000000, 0.00000000, 0.00787494, 0.00367948, 0.03153668, 0.00000000, 0.00000000, 0.00000000, 0.00000000
1, 1.0900, 109, -0.14252889, -0.90051115, 0.38456869, 2.37681127, -4.99071264, 3.29870439, 0.00000000, 0.00000000, 0.00000000, 114.64434052, -7.82742357, 176.37680054, 1.00000000, 0.00000000, 0.00000000, 0.00000000, 0.00642128, 0.00000378, 0.02842180, 0.00000000, 0.00000000, 0.00000000, 0.00000000
1, 1.1000, 110, -0.14357166, -0.89805782, 0.39342958, 2.02171946, -4.57615900, 3.23794103, 0.00000000, 0.00000000, 0.00000000, 114.67214203, -7.83775663, 176.32118225, 1.00000000, 0.00000000, 0.00000000, 0.00000000, 0.00727453, -0.00224333, 0.01994810, 0.00000000, 0.00000000, 0.00000000, 0.00000000
1, 1.1100, 111, -0.14905377, -0.89949900, 0.39574227, 1.49162543, -3.86692595, 2.92030692, 0.00000000, 0.00000000, 0.00000000, 114.69357300, -7.84814262, 176.27340698, 1.00000000, 0.00000000, 0.00000000, 0.00000000, 0.01256922, -0.00060996, 0.01799190, 0.00000000, 0.00000000, 0.00000000, 0.00000000
1, 1.1200, 112, -0.14348735, -0.89613533, 0.39481586, 1.25888920, -3.98118472, 2.55432606, 0.00000000, 0.00000000, 0.00000000, 114.71261597, -7.85471249, 176.22612000, 1.00000000, 0.00000000, 0.00000000, 0.00000000, 0.00686688, -0.00381605, 0.01921584, 0.00000000, 0.00000000, 0.00000000, 0.00000000
1, 1.1300, 113, -0.13983794, -0.89395887, 0.39584190, 1.21891320, -4.25557470, 2.69157386, 0.00000000, 0.00000000, 0.00000000, 114.73168945, -7.86136246, 176.17573547, 1.00000000, 0.00000000, 0.00000000, 0.00000000, 0.00309887, -0.00583895, 0.01848430, 0.00000000, 0.00000000, 0.00000000, 0.00000000
1, 1.1400, 114, -0.13329697, -0.88868123, 0.39569068, 1.44314635, -4.97840166, 2.96029401, 0.00000000, 0.00000000, 0.00000000, 114.74954224, -7.86615229, 176.11885071, 1.00000000, 0.00000000, 0.00000000, 0.00000000, -0.00353802, -0.01096120, 0.01894152, 0.00000000, 0.00000000, 0.00000000, 0.00000000
1, 1.1500, 115, -0.13362150, -0.88497961, 0.39818615, 1.43055046, -5.98911667, 3.17602181, 0.00000000, 0.00000000, 0.00000000, 114.77318573, -7.86990881, 176.05052185, 1.00000000, 0.00000000, 0.00000000, 0.00000000, -0.00327976, -0.01450904, 0.01675759, 0.00000000, 0.00000000, 0.00000000, 0.00000000
1, 1.1600, 116, -0.13390836, -0.88858986, 0.40003985, 1.04268849, -6.73957253, 3.39941049, 0.00000000, 0.00000000, 0.00000000, 114.79405975, -7.87251806, 175.97436523, 1.00000000, 0.00000000, 0.00000000, 0.00000000, -0.00304504, -0.01073372, 0.01524415, 0.00000000, 0.00000000, 0.00000000, 0.00000000
1, 1.1700, 117, -0.12573032, -0.89615273, 0.41212398, 0.84969175, -7.81643867, 3.56406832, 0.00000000, 0.00000000, 0.00000000, 114.81443787, -7.87207747, 175.88763428, 1.00000000, 0.00000000, 0.00000000, 0.00000000, -0.01124096, -0.00302042, 0.00347997, 0.00000000, 0.00000000, 0.00000000, 0.00000000
1, 1.1800, 118, -0.11760088, -0.90013260, 0.42903170, 0.48070058, -8.56604576, 3.66474199, 0.00000000, 0.00000000, 0.00000000, 114.83211517, -7.86937714, 175.79362488, 1.00000000, 0.00000000, 0.00000000, 0.00000000, -0.01933200, 0.00109285, -0.01312685, 0.00000000, 0.00000000, 0.00000000, 0.00000000
1, 1.1900, 119, -0.12038646, -0.90455067, 0.42625222, 0.00307330, -9.28154945, 3.90714169, 0.00000000, 0.00000000, 0.00000000, 114.84699249, -7.86096716, 175.69309998, 1.00000000, 0.00000000, 0.00000000, 0.00000000, -0.01646748, 0.00561589, -0.01009438, 0.00000000, 0.00000000, 0.00000000, 0.00000000
1, 1.2000, 120, -0.12541008, -0.91377896, 0.41900778, -0.48721874, -9.41670513, 4.29652977, 0.00000000, 0.00000000, 0.00000000, 114.85640717, -7.86037636, 175.58860779, 1.00000000, 0.00000000, 0.00000000, 0.00000000, -0.01135014, 0.01491602, -0.00266422, 0.00000000, 0.00000000, 0.00000000, 0.00000000
1, 1.2100, 121, -0.13897476, -0.91791898, 0.40830714, -1.54503465, -8.69205761, 4.80799723, 0.00000000, 0.00000000, 0.00000000, 114.85464478, -7.86746454, 175.48860168, 1.00000000, 0.00000000, 0.00000000, 0.00000000, 0.00215168, 0.01908839, 0.00808565, 0.00000000, 0.00000000, 0.00000000, 0.00000000
1, 1.2200, 122, -0.16563627, -0.92337489, 0.39950809, -2.99792838, -6.48927593, 4.92174625, 0.00000000, 0.00000000, 0.00000000, 114.83567047, -7.88485861, 175.40827942, 1.00000000, 0.00000000, 0.00000000, 0.00000000, 0.02857877, 0.02448140, 0.01667184, 0.00000000, 0.00000000, 0.00000000, 0.00000000
1, 1.2300, 123, -0.15814558, -0.92350155, 0.39703947, -3.55999064, -5.11666775, 5.06730223, 0.00000000, 0.00000000, 0.00000000, 114.80945587, -7.90936852, 175.33990479, 1.00000000, 0.00000000, 0.00000000, 0.00000000, 0.02069916, 0.02448222, 0.01874021, 0.00000000, 0.00000000, 0.00000000, 0.00000000
1, 1.2400, 124, -0.13980222, -0.91497409, 0.40393695, -3.99901438, -4.12016201, 5.04942465, 0.00000000, 0.00000000, 0.00000000, 114.77351379, -7.93617868, 175.28205872, 1.00000000, 0.00000000, 0.00000000, 0.00000000, 0.00190116, 0.01579103, 0.01133766, 0.00000000, 0.00000000, 0.00000000, 0.00000000
1, 1.2500, 125, -0.12918596, -0.90534586, 0.40825206, -4.46448135, -3.97736716, 4.89931345, 0.00000000, 0.00000000, 0.00000000, 114.73677063, -7.96401453, 175.22486877, 1.00000000, 0.00000000, 0.00000000, 0.00000000, -0.00918979, 0.00594421, 0.00639085, 0.00000000, 0.00000000, 0.00000000, 0.00000000
1, 1.2600, 126, -0.12826306, -0.91015673, 0.39855450, -4.74767542, -4.90165234, 5.32936192, 0.00000000, 0.00000000, 0.00000000, 114.69866943, -7.99192953, 175.15740967, 1.00000000, 0.00000000, 0.00000000, 0.00000000, -0.01058140, 0.01053968, 0.01546402, 0.00000000, 0.00000000, 0.00000000, 0.00000000
1, 1.2700, 127, -0.13117164, -0.90663576, 0.39528573, -4.45614433, -5.69829702, 6.15636110, 0.00000000, 0.00000000, 0.00000000, 114.66500854, -8.02407646, 175.07916260, 1.00000000, 0.00000000, 0.00000000, 0.00000000, -0.00820513, 0.00683159, 0.01814683, 0.00000000, 0.00000000, 0.00000000, 0.00000000
1, 1.2800, 128, -0.12648860, -0.90557891, 0.40237436, -4.68780899, -6.62606192, 6.93572044, 0.00000000, 0.00000000, 0.00000000, 114.63072205, -8.05948067, 174.98912048, 1.00000000, 0.00000000, 0.00000000, 0.00000000, -0.01347824, 0.00560752, 0.01049472, 0.00000000, 0.00000000, 0.00000000, 0.00000000
1, 1.2900, 129, -0.13818099, -0.89475346, 0.41517094, -5.07839870, -7.37975121, 7.54408646, 0.00000000, 0.00000000, 0.00000000, 114.59552002, -8.09735966, 174.88929749, 1.00000000, 0.00000000, 0.00000000, 0.00000000, -0.00242503, -0.00539020, -0.00289512, 0.00000000, 0.00000000, 0.00000000, 0.00000000
1, 1.3000, 130, -0.14542536, -0.88667989, 0.41892770, -5.43528605, -6.81542969, 7.97508764, 0.00000000, 0.00000000, 0.00000000, 114.55472565, -8.14153862, 174.79318237, 1.00000000, 0.00000000, 0.00000000, 0.00000000, 0.00410133, -0.01364407, -0.00729174, 0.00000000, 0.00000000, 0.00000000, 0.00000000
1, 1.3100, 131, -0.14076591, -0.88517594, 0.43076617, -6.37894630, -5.89892960, 7.90994644, 0.00000000, 0.00000000, 0.00000000, 114.50334930, -8.18900776, 174.70579529, 1.00000000, 0.00000000, 0.00000000, 0.00000000, -0.00136406, -0.01537634, -0.01990779, 0.00000000, 0.00000000, 0.00000000, 0.00000000
1, 1.3200, 132, -0.14752078, -0.88238287, 0.42966267, -7.87765694, -5.12514162, 7.18494892, 0.00000000, 0.00000000, 0.00000000, 114.43560028, -8.23317242, 174.62858582, 1.00000000, 0.00000000, 0.00000000, 0.00000000, 0.00459339, -0.01850583, -0.01981995, 0.00000000, 0.00000000, 0.00000000, 0.00000000
1, 1.3300, 133, -0.13666756, -0.90420300, 0.40407741, -9.95935726, -3.74152565, 5.82680798, 0.00000000, 0.00000000, 0.00000000, 114.34444427, -8.27078438, 174.56983948, 1.00000000, 0.00000000, 0.00000000, 0.00000000, -0.00689866, 0.00281431, 0.00444054, 0.00000000, 0.00000000, 0.00000000, 0.00000000
1, 1.3400, 134, -0.08663131, -0.95520395, 0.37461534, -11.84666634, -1.03087544, 7.07180691, 0.00000000, 0.00000000, 0.00000000, 114.22286224, -8.31657600, 174.53633118, 1.00000000, 0.00000000, 0.00000000, 0.00000000, -0.05780169, 0.05316393, 0.03215551, 0.00000000, 0.00000000, 0.00000000, 0.00000000
1, 1.3500, 135, -0.09291287, -0.98635119, 0.39181808, -13.10238838, -2.24967146, 7.09030676, 0.00000000, 0.00000000, 0.00000000, 114.09910583, -8.37206268, 174.48625183, 1.00000000, 0.00000000, 0.00000000, 0.00000000, -0.05234157, 0.08352217, 0.01290473, 0.00000000, 0.00000000, 0.00000000, 0.00000000
1, 1.3600, 136, -0.10372838, -0.97292393, 0.37206385, -12.83059311, -3.04819489, 8.16251469, 0.00000000, 0.00000000, 0.00000000, 113.97983551, -8.43419361, 174.42449951, 1.00000000, 0.00000000, 0.00000000, 0.00000000, -0.04251284, 0.06936519, 0.03066984, 0.00000000, 0.00000000, 0.00000000, 0.00000000
1, 1.3700, 137, -0.06834812, -0.94717968, 0.39894080, -12.15192890, -4.19694662, 9.71558857, 0.00000000, 0.00000000, 0.00000000, 113.86989594, -8.50598717, 174.34588623, 1.00000000, 0.00000000, 0.00000000, 0.00000000, -0.07910249, 0.04299419, 0.00194141, 0.00000000, 0.00000000, 0.00000000, 0.00000000
1, 1.3800, 138, -0.09866556, -0.93216187, 0.40623811, -12.59911346, -7.76414680, 11.42892265, 0.00000000, 0.00000000, 0.00000000, 113.76148987, -8.57920170, 174.22738647, 1.00000000, 0.00000000, 0.00000000, 0.00000000, -0.05001810, 0.02738912, -0.00714035, 0.00000000, 0.00000000, 0.00000000, 0.00000000
1, 1.3900, 139, -0.12121730, -0.92201251, 0.39196408, -13.63641739, -9.00380802, 13.64939690, 0.00000000, 0.00000000, 0.00000000, 113.64423370, -8.66536903, 174.08950806, 1.00000000, 0.00000000, 0.00000000, 0.00000000, -0.02888264, 0.01665200, 0.00526614, 0.00000000, 0.00000000, 0.00000000, 0.00000000
1, 1.4000, 140, -0.13734342, -0.92469615, 0.38435867, -14.44863796, -10.09987736, 14.80135918, 0.00000000, 0.00000000, 0.00000000, 113.52301025, -8.76061630, 173.93594360, 1.00000000, 0.00000000, 0.00000000, 0.00000000, -0.01434463, 0.01871927, 0.01085779, 0.00000000, 0.00000000, 0.00000000, 0.00000000
1, 1.4100, 141, -0.13857549, -0.92199105, 0.37355390, -14.80594158, -12.43142128, 15.89819336, 0.00000000, 0.00000000, 0.00000000, 113.40243530, -8.85696030, 173.75650024, 1.00000000, 0.00000000, 0.00000000, 0.00000000, -0.01476771, 0.01541726, 0.01964977, 0.00000000, 0.00000000, 0.00000000, 0.00000000
1, 1.4200, 142, -0.14238130, -0.91878611, 0.36299169, -15.10860920, -16.30327415, 17.06369209, 0.00000000, 0.00000000, 0.00000000, 113.28540802, -8.94903755, 173.53654480, 1.00000000, 0.00000000, 0.00000000, 0.00000000, -0.01259499, 0.01163302, 0.02823108, 0.00000000, 0.00000000, 0.00000000, 0.00000000
1, 1.4300, 143, -0.13850673, -0.91336894, 0.37202621, -15.02036572, -22.51896286, 17.86429024, 0.00000000, 0.00000000, 0.00000000, 113.17908478, -9.02438164, 173.25570679, 1.00000000, 0.00000000, 0.00000000, 0.00000000, -0.01789045, 0.00566357, 0.01734576, 0.00000000, 0.00000000, 0.00000000, 0.00000000
1, 1.4400, 144, -0.13606095, -0.91228318, 0.38952622, -15.39795876, -28.38975906, 18.88464928, 0.00000000, 0.00000000, 0.00000000, 113.07892609, -9.08520699, 172.91645813, 1.00000000, 0.00000000, 0.00000000, 0.00000000, -0.02146630, 0.00405800, -0.00182530, 0.00000000, 0.00000000, 0.00000000, 0.00000000
1, 1.4500, 145, -0.14868797, -0.92589825, 0.38751972, -17.14153862, -30.55559731, 20.24538803, 0.00000000, 0.00000000, 0.00000000, 112.96535492, -9.15203190, 172.55143738, 1.00000000, 0.00000000, 0.00000000, 0.00000000, -0.00992611, 0.01710731, -0.00159204, 0.00000000, 0.00000000, 0.00000000, 0.00000000
1, 1.4600, 146, -0.19092251, -0.92612952, 0.37271011, -19.35966682, -28.84551048, 20.88766861, 0.00000000, 0.00000000, 0.00000000, 112.82789612, -9.23220444, 172.19995117, 1.00000000, 0.00000000, 0.00000000, 0.00000000, 0.03102488, 0.01667249, 0.01111294, 0.00000000, 0.00000000, 0.00000000, 0.00000000
1, 1.4700, 147, -0.21476738, -0.92675734, 0.35584822, -20.91307259, -24.43401146, 20.81869698, 0.00000000, 0.00000000, 0.00000000, 112.66871643, -9.32970142, 171.89004517, 1.00000000, 0.00000000, 0.00000000, 0.00000000, 0.05329889, 0.01651910, 0.02545670, 0.00000000, 0.00000000, 0.00000000, 0.00000000
1, 1.4800, 148, -0.21259874, -0.92198408, 0.34171873, -21.49532127, -21.84396935, 20.61137199, 0.00000000, 0.00000000, 0.00000000, 112.50013733, -9.43610859, 171.60540771, 1.00000000, 0.00000000, 0.00000000, 0.00000000, 0.04934945, 0.01092611, 0.03686032, 0.00000000, 0.00000000, 0.00000000, 0.00000000
1, 1.4900, 149, -0.17121898, -0.93833363, 0.31369710, -22.95546913, -21.84853172, 20.87417793, 0.00000000, 0.00000000, 0.00000000, 112.31305695, -9.54491234, 171.32118225, 1.00000000, 0.00000000, 0.00000000, 0.00000000, 0.00608603, 0.02638333, 0.06190463, 0.00000000, 0.00000000, 0.00000000, 0.00000000
1, 1.5000, 150, -0.13562830, -0.94618076, 0.30652964, -23.87637329, -26.27850723, 22.04066277, 0.00000000, 0.00000000, 0.00000000, 112.12951660, -9.64958572, 170.98992920, 1.00000000, 0.00000000, 0.00000000, 0.00000000, -0.03132265, 0.03329270, 0.06597773, 0.00000000, 0.00000000, 0.00000000, 0.00000000
1, 1.5100, 151, -0.13862665, -0.96270049, 0.27702019, -25.19643211, -31.94489098, 24.28240776, 0.00000000, 0.00000000, 0.00000000, 111.94377136, -9.75483418, 170.59709167, 1.00000000, 0.00000000, 0.00000000, 0.00000000, -0.03012285, 0.04890026, 0.09242745, 0.00000000, 0.00000000, 0.00000000, 0.00000000
1, 1.5200, 152, -0.15871453, -0.96998692, 0.24926364, -26.19353676, -40.35929489, 27.52024841, 0.00000000, 0.00000000, 0.00000000, 111.76433563, -9.86006546, 170.11297607, 1.00000000, 0.00000000, 0.00000000, 0.00000000, -0.01187407, 0.05530514, 0.11714573, 0.00000000, 0.00000000, 0.00000000, 0.00000000
1, 1.5300, 153, -0.21136703, -0.96628225, 0.25506732, -26.72633743, -54.40018463, 30.19610214, 0.00000000, 0.00000000, 0.00000000, 111.60479736, -9.93968868, 169.48655701, 1.00000000, 0.00000000, 0.00000000, 0.00000000, 0.03923768, 0.05078650, 0.10857853, 0.00000000, 0.00000000, 0.00000000, 0.00000000
1, 1.5400, 154, -0.25183430, -0.94727796, 0.26107615, -27.83333588, -62.25411987, 32.00696182, 0.00000000, 0.00000000, 0.00000000, 111.44554901, -10.01191711, 168.77943420, 1.00000000, 0.00000000, 0.00000000, 0.00000000, 0.07847647, 0.03099428, 0.09999225, 0.00000000, 0.00000000, 0.00000000, 0.00000000
1, 1.5500, 155, -0.26705617, -0.94399476, 0.26786298, -30.42566109, -61.16479111, 33.69646072, 0.00000000, 0.00000000, 0.00000000, 111.26406860, -10.10299015, 168.07627869, 1.00000000, 0.00000000, 0.00000000, 0.00000000, 0.09225640, 0.02686311, 0.09034596, 0.00000000, 0.00000000, 0.00000000, 0.00000000
1, 1.5600, 156, -0.23467307, -0.94068760, 0.28609842, -32.63726807, -60.02545929, 35.08439636, 0.00000000, 0.00000000, 0.00000000, 111.06066895, -10.21345425, 167.37890625, 1.00000000, 0.00000000, 0.00000000, 0.00000000, 0.05809654, 0.02263315, 0.06886006, 0.00000000, 0.00000000, 0.00000000, 0.00000000
1, 1.5700, 157, -0.19870833, -0.92505586, 0.30203068, -34.63153458, -59.07239151, 35.99499512, 0.00000000, 0.00000000, 0.00000000, 110.83769989, -10.33838654, 166.68746948, 1.00000000, 0.00000000, 0.00000000, 0.00000000, 0.02007743, 0.00601390, 0.04932567, 0.00000000, 0.00000000, 0.00000000, 0.00000000
1, 1.5800, 158, -0.18475132, -0.91617495, 0.31143376, -36.56397247, -57.16544342, 37.28356934, 0.00000000, 0.00000000, 0.00000000, 110.59452057, -10.48488045, 166.00973511, 1.00000000, 0.00000000, 0.00000000, 0.00000000, 0.00374322, -0.00389348, 0.03599729, 0.00000000, 0.00000000, 0.00000000, 0.00000000
1, 1.5900, 159, -0.16744767, -0.93411887, 0.32971093, -38.19718170, -56.04603195, 38.31420898, 0.00000000, 0.00000000, 0.00000000, 110.33467102, -10.64711285, 165.33970642, 1.00000000, 0.00000000, 0.00000000, 0.00000000, -0.01625047, 0.01298970, 0.01347099, 0.00000000, 0.00000000, 0.00000000, 0.00000000
1, 1.6000, 160, -0.14597158, -0.96930307, 0.30142590, -39.79699707, -56.40306091, 39.97450256, 0.00000000, 0.00000000, 0.00000000, 110.06323242, -10.82752895, 164.66046143, 1.00000000, 0.00000000, 0.00000000, 0.00000000, -0.04069646, 0.04710227, 0.03724539, 0.00000000, 0.00000000, 0.00000000, 0.00000000
1, 1.6100, 161, -0.13528813, -0.97722811, 0.29246825, -39.90516281, -62.07476044, 41.39638519, 0.00000000, 0.00000000, 0.00000000, 109.80401611, -11.00512123, 163.92239380, 1.00000000, 0.00000000, 0.00000000, 0.00000000, -0.05450786, 0.05402763, 0.04171160, 0.00000000, 0.00000000, 0.00000000, 0.00000000
1, 1.6200, 162, -0.17740853, -0.95209652, 0.28737888, -40.06702805, -67.96495819, 42.43137741, 0.00000000, 0.00000000, 0.00000000, 109.55679321, -11.17577457, 163.12466431, 1.00000000, 0.00000000, 0.00000000, 0.00000000, -0.01529291, 0.02797744, 0.04257251, 0.00000000, 0.00000000, 0.00000000, 0.00000000
1, 1.6300, 163, -0.20198908, -0.92388350, 0.28126055, -39.32610321, -68.31122589, 44.06314087, 0.00000000, 0.00000000, 0.00000000, 109.32112885, -11.36396980, 162.31829834, 1.00000000, 0.00000000, 0.00000000, 0.00000000, 0.00617159, -0.00103195, 0.04459954, 0.00000000, 0.00000000, 0.00000000, 0.00000000
1, 1.6400, 164, -0.20869878, -0.88596457, 0.29469490, -38.70099640, -74.53612518, 45.31204224, 0.00000000, 0.00000000, 0.00000000, 109.10671997, -11.54738331, 161.44792175, 1.00000000, 0.00000000, 0.00000000, 0.00000000, 0.00966735, -0.03959902, 0.02735578, 0.00000000, 0.00000000, 0.00000000, 0.00000000
1, 1.6500, 165, -0.20934537, -0.86462080, 0.28540540, -39.47691345, -90.34070587, 46.51765060, 0.00000000, 0.00000000, 0.00000000, 108.91885376, -11.69296741, 160.42118835, 1.00000000, 0.00000000, 0.00000000, 0.00000000, 0.00756096, -0.06152277, 0.03324777, 0.00000000, 0.00000000, 0.00000000, 0.00000000
1, 1.6600, 166, -0.18711349, -0.86142987, 0.26502511, -38.14747620, -105.01984406, 49.63565826, 0.00000000, 0.00000000, 0.00000000, 108.77761841, -11.82349491, 159.24221802, 1.00000000, 0.00000000, 0.00000000, 0.00000000, -0.01692917, -0.06514969, 0.05091173, 0.00000000, 0.00000000, 0.00000000, 0.00000000
1, 1.6700, 167, -0.24487513, -0.84043127, 0.27781194, -36.24249268, -106.40238190, 53.09587097, 0.00000000, 0.00000000, 0.00000000, 108.66350555, -11.98490334, 158.03820801, 1.00000000, 0.00000000, 0.00000000, 0.00000000, 0.03829373, -0.08632180, 0.03595846, 0.00000000, 0.00000000, 0.00000000, 0.00000000
1, 1.6800, 168, -0.23791210, -0.88883936, 0.28063279, -36.64681625, -115.27997589, 55.79602432, 0.00000000, 0.00000000, 0.00000000, 108.56871033, -12.14570808, 156.73887634, 1.00000000, 0.00000000, 0.00000000, 0.00000000, 0.02850045, -0.03789620, 0.03130783, 0.00000000, 0.00000000, 0.00000000, 0.00000000
1, 1.6900, 169, -0.23259994, -0.89859790, 0.33114737, -35.99583054, -114.93325806, 58.50451279, 0.00000000, 0.00000000, 0.00000000, 108.48576355, -12.33548164, 155.43339539, 1.00000000, 0.00000000, 0.00000000, 0.00000000, 0.02026201, -0.02801561, -0.02082638, 0.00000000, 0.00000000, 0.00000000, 0.00000000
1, 1.7000, 170, -0.17843361, -0.90484905, 0.34484932, -32.70930481, -102.34781647, 58.80515671, 0.00000000, 0.00000000, 0.00000000, 108.41407776, -12.56940651, 154.24858093, 1.00000000, 0.00000000, 0.00000000, 0.00000000, -0.03765119, -0.02139239, -0.03600822, 0.00000000, 0.00000000, 0.00000000, 0.00000000
1, 1.7100, 171, -0.14411859, -0.91295528, 0.37995189, -31.85435677, -100.89434814, 59.82677078, 0.00000000, 0.00000000, 0.00000000, 108.35377502, -12.81898022, 153.07371521, 1.00000000, 0.00000000, 0.00000000, 0.00000000, -0.07618524, -0.01274426, -0.07247014, 0.00000000, 0.00000000, 0.00000000, 0.00000000
1, 1.7200, 172, -0.16619256, -0.92656898, 0.40653989, -31.04068565, -99.73369598, 61.14293289, 0.00000000, 0.00000000, 0.00000000, 108.30522156, -13.08573246, 151.90498352, 1.00000000, 0.00000000, 0.00000000, 0.00000000, -0.05845803, 0.00153878, -0.10019159, 0.00000000, 0.00000000, 0.00000000, 0.00000000
1, 1.7300, 173, -0.16013728, -0.92607564, 0.40593988, -29.99067307, -88.05911255, 60.60275269, 0.00000000, 0.00000000, 0.00000000, 108.24659729, -13.38503361, 150.85078430, 1.00000000, 0.00000000, 0.00000000, 0.00000000, -0.06941481, 0.00183848, -0.10083436, 0.00000000, 0.00000000, 0.00000000, 0.00000000
1, 1.7400, 174, -0.11504891, -0.92310858, 0.41280088, -29.77419472, -77.04085541, 59.80254364, 0.00000000, 0.00000000, 0.00000000, 108.17314148, -13.70862198, 149.90538025, 1.00000000, 0.00000000, 0.00000000, 0.00000000, -0.11984415, -0.00027497, -0.10918052, 0.00000000, 0.00000000, 0.00000000, 0.00000000
1, 1.7500, 175, -0.09282677, -0.94223070, 0.40127623, -29.83985519, -65.32074738, 59.25905228, 0.00000000, 0.00000000, 0.00000000, 108.07368469, -14.06857109, 149.07603455, 1.00000000, 0.00000000, 0.00000000, 0.00000000, -0.14789402, 0.01973970, -0.09951394, 0.00000000, 0.00000000, 0.00000000, 0.00000000
1, 1.7600, 176, -0.06692075, -0.94733000, 0.36389869, -29.08371925, -53.92023087, 59.12171555, 0.00000000, 0.00000000, 0.00000000, 107.95968628, -14.46400261, 148.35826111, 1.00000000, 0.00000000, 0.00000000, 0.00000000, -0.18036255, 0.02582803, -0.06443086, 0.00000000, 0.00000000, 0.00000000, 0.00000000
1, 1.7700, 177, -0.07931246, -0.96251661, 0.38124633, -28.82721710, -43.96087265, 56.08614731, 0.00000000, 0.00000000, 0.00000000, 107.82587433, -14.86262608, 147.74772644, 1.00000000, 0.00000000, 0.00000000, 0.00000000, -0.17463857, 0.04201011, -0.08430790, 0.00000000, 0.00000000, 0.00000000, 0.00000000
1, 1.7800, 178, -0.11184516, -0.93695319, 0.37933075, -29.17619324, -26.76219559, 53.16082764, 0.00000000, 0.00000000, 0.00000000, 107.64621735, -15.28733253, 147.31604004, 1.00000000, 0.00000000, 0.00000000, 0.00000000, -0.14909074, 0.01739612, -0.08552457, 0.00000000, 0.00000000, 0.00000000, 0.00000000
1, 1.7900, 179, -0.15200232, -0.86782449, 0.39675197, -29.54504585, -8.97020340, 48.86031723, 0.00000000, 0.00000000, 0.00000000, 107.42380524, -15.72150612, 147.07182312, 1.00000000, 0.00000000, 0.00000000, 0.00000000, -0.11623658, -0.05089526, -0.10693093, 0.00000000, 0.00000000, 0.00000000, 0.00000000
1, 1.8000, 180, -0.25098112, -0.89614487, 0.44658014, -31.39432716, 4.07503319, 45.43192291, 0.00000000, 0.00000000, 0.00000000, 107.13722992, -16.16736603, 146.97193909, 1.00000000, 0.00000000, 0.00000000, 0.00000000, -0.02464699, -0.02188462, -0.16154578, 0.00000000, 0.00000000, 0.00000000, 0.00000000
1, 1.8100, 181, -0.35246459, -0.94399214, 0.40733737, -32.37604523, 14.52411270, 42.59226990, 0.00000000, 0.00000000, 0.00000000, 106.80910492, -16.61709213, 146.98712158, 1.00000000, 0.00000000, 0.00000000, 0.00000000, 0.06931452, 0.02650940, -0.12797329, 0.00000000, 0.00000000, 0.00000000, 0.00000000
1, 1.8200, 182, -0.34614661, -0.92286867, 0.31265479, -31.60379410, 23.45807266, 38.85582733, 0.00000000, 0.00000000, 0.00000000, 106.45865631, -17.05649376, 147.10575867, 1.00000000, 0.00000000, 0.00000000, 0.00000000, 0.05555151, 0.00586388, -0.03943432, 0.00000000, 0.00000000, 0.00000000, 0.00000000
1, 1.8300, 183, -0.27301940, -0.86001927, 0.27357939, -30.25614548, 31.76098251, 34.22994614, 0.00000000, 0.00000000, 0.00000000, 106.09108734, -17.47405434, 147.32456970, 1.00000000, 0.00000000, 0.00000000, 0.00000000, -0.02465045, -0.05660076, -0.00675847, 0.00000000, 0.00000000, 0.00000000, 0.00000000
1, 1.8400, 184, -0.26528651, -0.81006342, 0.26766601, -28.60021019, 39.02930069, 30.23556328, 0.00000000, 0.00000000, 0.00000000, 105.71391296, -17.87265778, 147.63050842, 1.00000000, 0.00000000, 0.00000000, 0.00000000, -0.03920399, -0.10621914, -0.00746386, 0.00000000, 0.00000000, 0.00000000, 0.00000000
1, 1.8500, 185, -0.31613722, -0.76214457, 0.27021867, -23.76275253, 34.91926956, 27.13554573, 0.00000000, 0.00000000, 0.00000000, 105.39041138, -18.22772217, 147.90780640, 1.00000000, 0.00000000, 0.00000000, 0.00000000, 0.00548188, -0.15378246, -0.01612052, 0.00000000, 0.00000000, 0.00000000, 0.00000000
1, 1.8600, 186, -0.39793321, -0.78221142, 0.19941650, -20.32320786, 24.12399483, 25.51374626, 0.00000000, 0.00000000, 0.00000000, 105.13217163, -18.53737640, 148.08229065, 1.00000000, 0.00000000, 0.00000000, 0.00000000, 0.08189036, -0.13323160, 0.04973689, 0.00000000, 0.00000000, 0.00000000, 0.00000000
1, 1.8700, 187, -0.50911683, -0.80242747, 0.06107788, -17.28146744, 14.73610115, 23.77341652, 0.00000000, 0.00000000, 0.00000000, 104.93212128, -18.80521011, 148.16741943, 1.00000000, 0.00000000, 0.00000000, 0.00000000, 0.18836221, -0.11244757, 0.18411118, 0.00000000, 0.00000000, 0.00000000, 0.00000000
1, 1.8800, 188, -0.56911659, -0.85114723, 0.03434154, -15.85843754, 6.48482418, 21.01634979, 0.00000000, 0.00000000, 0.00000000, 104.77053070, -19.02498627, 148.17674255, 1.00000000, 0.00000000, 0.00000000, 0.00000000, 0.24443835, -0.06317084, 0.20774291, 0.00000000, 0.00000000, 0.00000000, 0.00000000
1, 1.8900, 189, -0.50866753, -0.93465233, 0.10760245, -14.51334381, 1.81924808, 17.00757408, 0.00000000, 0.00000000, 0.00000000, 104.61888123, -19.20916748, 148.15405273, 1.00000000, 0.00000000, 0.00000000, 0.00000000, 0.18078934, 0.02077180, 0.13180752, 0.00000000, 0.00000000, 0.00000000, 0.00000000
1, 1.9000, 190, -0.39422131, -0.99617177, 0.18061732, -11.97214890, 0.16468473, 11.44472885, 0.00000000, 0.00000000, 0.00000000, 104.50866699, -19.32034683, 148.12524414, 1.00000000, 0.00000000, 0.00000000, 0.00000000, 0.06400351, 0.08253293, 0.05648984, 0.00000000, 0.00000000, 0.00000000, 0.00000000
1, 1.9100, 191, -0.37386191, -1.01857519, 0.21331014, -10.34238529, 1.82305324, 7.54201889, 0.00000000, 0.00000000, 0.00000000, 104.40566254, -19.39792252, 148.12399292, 1.00000000, 0.00000000, 0.00000000, 0.00000000, 0.04217865, 0.10500397, 0.02200551, 0.00000000, 0.00000000, 0.00000000, 0.00000000
1, 1.9200, 192, -0.40294614, -1.01124716, 0.22535762, -7.94260979, 6.27978563, 3.47038674, 0.00000000, 0.00000000, 0.00000000, 104.30780029, -19.44710732, 148.17938232, 1.00000000, 0.00000000, 0.00000000, 0.00000000, 0.07027511, 0.09760305, 0.00827484, 0.00000000, 0.00000000, 0.00000000, 0.00000000
1, 1.9300, 193, -0.40227273, -0.95026141, 0.21592247, -4.38949013, 11.97996140, -1.38816476, 0.00000000, 0.00000000, 0.00000000, 104.22167206, -19.46316528, 148.30613708, 1.00000000, 0.00000000, 0.00000000, 0.00000000, 0.06912313, 0.03641051, 0.01621467, 0.00000000, 0.00000000, 0.00000000, 0.00000000
1, 1.9400, 194, -0.36512831, -0.90423632, 0.15058675, -0.38919672, 14.84433651, -5.13067722, 0.00000000, 0.00000000, 0.00000000, 104.14160919, -19.45392990, 148.48106384, 1.00000000, 0.00000000, 0.00000000, 0.00000000, 0.03201690, -0.00993773, 0.08032999, 0.00000000, 0.00000000, 0.00000000, 0.00000000
1, 1.9500, 195, -0.32129908, -0.90299684, 0.13109438, 3.99496555, 12.84934044, -7.02777004, 0.00000000, 0.00000000, 0.00000000, 104.13153076, -19.41715050, 148.63140869, 1.00000000, 0.00000000, 0.00000000, 0.00000000, -0.01140756, -0.01150316, 0.09911430, 0.00000000, 0.00000000, 0.00000000, 0.00000000
1, 1.9600, 196, -0.30648625, -0.89305007, 0.17566971, 9.26706314, 7.22663212, -7.71855974, 0.00000000, 0.00000000, 0.00000000, 104.19288635, -19.35997963, 148.72569275, 1.00000000, 0.00000000, 0.00000000, 0.00000000, -0.02539371, -0.02159961, 0.05513659, 0.00000000, 0.00000000, 0.00000000, 0.00000000
1, 1.9700, 197, -0.25610897, -0.83519888, 0.21850789, 18.08852577, -2.79661679, -7.97969675, 0.00000000, 0.00000000, 0.00000000, 104.37635803, -19.27571487, 148.71786499, 1.00000000, 0.00000000, 0.00000000, 0.00000000, -0.07457246, -0.07931507, 0.01454357, 0.00000000, 0.00000000, 0.00000000, 0.00000000
1, 1.9800, 198, -0.27178967, -0.82591677, 0.20954196, 21.16132927, -10.77300739, -6.79890823, 0.00000000, 0.00000000, 0.00000000, 104.61840820, -19.18292046, 148.62541199, 1.00000000, 0.00000000, 0.00000000, 0.00000000, -0.05733443, -0.08816423, 0.02737989, 0.00000000, 0.00000000, 0.00000000, 0.00000000
1, 1.9900, 199, -0.41313225, -0.92621148, 0.16230005, 17.31090927, -8.12805843, -5.54815435, 0.00000000, 0.00000000, 0.00000000, 104.79856873, -19.12188530, 148.56163025, 1.00000000, 0.00000000, 0.00000000, 0.00000000, 0.08526346, 0.01257212, 0.07804251, 0.00000000, 0.00000000, 0.00000000, 0.00000000
1, 2.0000, 200, -0.37859616, -0.96601295, 0.13533676, 19.44284248, -5.51497698, -7.67833853, 0.00000000, 0.00000000, 0.00000000, 105.00460815, -19.03350830, 148.52613831, 1.00000000, 0.00000000, 0.00000000, 0.00000000, 0.05188993, 0.05277401, 0.10809009, 0.00000000, 0.00000000, 0.00000000, 0.00000000
1, 2.0100, 201, -0.35201180, -0.92851192, 0.17244595, 20.81550026, -4.82676935, -9.80442333, 0.00000000, 0.00000000, 0.00000000, 105.21999359, -18.92627335, 148.50389099, 1.00000000, 0.00000000, 0.00000000, 0.00000000, 0.02699063, 0.01563300, 0.07456051, 0.00000000, 0.00000000, 0.00000000, 0.00000000
1, 2.0200, 202, -0.36298451, -0.93466806, 0.24968874, 18.89360046, -4.85290194, -10.48117352, 0.00000000, 0.00000000, 0.00000000, 105.41545868, -18.81236267, 148.48370361, 1.00000000, 0.00000000, 0.00000000, 0.00000000, 0.03978480, 0.02206554, 0.00070595, 0.00000000, 0.00000000, 0.00000000, 0.00000000
1, 2.0300, 203, -0.33147839, -0.93916118, 0.29751351, 17.11279678, -5.91348076, -12.36178970, 0.00000000, 0.00000000, 0.00000000, 105.59471130, -18.67743111, 148.45843506, 1.00000000, 0.00000000, 0.00000000, 0.00000000, 0.01037881, 0.02668771, -0.04396619, 0.00000000, 0.00000000, 0.00000000, 0.00000000
1, 2.0400, 204, -0.30634904, -0.92697138, 0.27328390, 14.83409023, -8.64188480, -12.59355450, 0.00000000, 0.00000000, 0.00000000, 105.76077271, -18.52767563, 148.40701294, 1.00000000, 0.00000000, 0.00000000, 0.00000000, -0.01237123, 0.01447941, -0.01681801, 0.00000000, 0.00000000, 0.00000000, 0.00000000
1, 2.0500, 205, -0.23963073, -0.95165116, 0.26402086, 14.18639469, -12.31130886, -10.68648148, 0.00000000, 0.00000000, 0.00000000, 105.93241882, -18.39124298, 148.31292725, 1.00000000, 0.00000000, 0.00000000, 0.00000000, -0.07670228, 0.03914206, -0.00467665, 0.00000000, 0.00000000, 0.00000000, 0.00000000
1, 2.0600, 206, -0.15958017, -0.92712158, 0.29526013, 18.32791519, -21.43066597, -7.08236551, 0.00000000, 0.00000000, 0.00000000, 106.17739868, -18.26389885, 148.11657715, 1.00000000, 0.00000000, 0.00000000, 0.00000000, -0.15460116, 0.01489124, -0.03234531, 0.00000000, 0.00000000, 0.00000000, 0.00000000
1, 2.0700, 207, -0.14899538, -0.85848099, 0.35004887, 24.01764107, -34.22507095, -1.51062393, 0.00000000, 0.00000000, 0.00000000, 106.52418518, -18.15303040, 147.77531433, 1.00000000, 0.00000000, 0.00000000, 0.00000000, -0.16321142, -0.05294086, -0.08203002, 0.00000000, 0.00000000, 0.00000000, 0.00000000
1, 2.0800, 208, -0.19267882, -0.80778354, 0.37814242, 26.99099541, -44.92611694, 4.46902800, 0.00000000, 0.00000000, 0.00000000, 106.93898773, -18.06645775, 147.30911255, 1.00000000, 0.00000000, 0.00000000, 0.00000000, -0.11795676, -0.10227190, -0.10373274, 0.00000000, 0.00000000, 0.00000000, 0.00000000
1, 2.0900, 209, -0.26755932, -0.80221683, 0.34507197, 25.71379852, -51.94424438, 8.75921059, 0.00000000, 0.00000000, 0.00000000, 107.37001038, -17.99736023, 146.75810242, 1.00000000, 0.00000000, 0.00000000, 0.00000000, -0.04178869, -0.10614984, -0.06370077, 0.00000000, 0.00000000, 0.00000000, 0.00000000
1, 2.1000, 210, -0.30272090, -0.87364328, 0.27203298, 20.34720230, -51.66100693, 12.01308155, 0.00000000, 0.00000000, 0.00000000, 107.74504089, -17.95600319, 146.20219421, 1.00000000, 0.00000000, 0.00000000, 0.00000000, -0.00580399, -0.03300078, 0.01572734, 0.00000000, 0.00000000, 0.00000000, 0.00000000
1, 2.1100, 211, -0.30212235, -0.98729414, 0.23071569, 15.17862797, -50.00802231, 14.84319782, 0.00000000, 0.00000000, 0.00000000, 108.06574249, -17.94347191, 145.65400696, 1.00000000, 0.00000000, 0.00000000, 0.00000000, -0.00599488, 0.08223984, 0.06243660, 0.00000000, 0.00000000, 0.00000000, 0.00000000
1, 2.1200, 212, -0.29605615, -1.02651048, 0.25777167, 13.46647263, -49.72775269, 18.12230301, 0.00000000, 0.00000000, 0.00000000, 108.37175751, -17.96013260, 145.09793091, 1.00000000, 0.00000000, 0.00000000, 0.00000000, -0.01214082, 0.12308113, 0.04026856, 0.00000000, 0.00000000, 0.00000000, 0.00000000
1, 2.1300, 213, -0.28970000, -1.01408267, 0.27872410, 10.86844158, -46.56459045, 21.30624199, 0.00000000, 0.00000000, 0.00000000, 108.64575195, -18.01433182, 144.56256104, 1.00000000, 0.00000000, 0.00000000, 0.00000000, -0.01917025, 0.11237295, 0.02379387, 0.00000000, 0.00000000, 0.00000000, 0.00000000
1, 2.1400, 214, -0.27276587, -0.98452705, 0.29783371, 7.92275572, -41.30252457, 23.43423462, 0.00000000, 0.00000000, 0.00000000, 108.87557983, -18.09979248, 144.07322693, 1.00000000, 0.00000000, 0.00000000, 0.00000000, -0.03734887, 0.08451155, 0.00843366, 0.00000000, 0.00000000, 0.00000000, 0.00000000
1, 2.1500, 215, -0.28008077, -0.93013608, 0.31629536, 5.22662354, -36.38348389, 25.38013840, 0.00000000, 0.00000000, 0.00000000, 109.06777191, -18.22150421, 143.62426758, 1.00000000, 0.00000000, 0.00000000, 0.00000000, -0.03181189, 0.03177957, -0.00697755, 0.00000000, 0.00000000, 0.00000000, 0.00000000
1, 2.1600, 216, -0.29117581, -0.88912755, 0.33224624, 1.33213675, -31.90342522, 28.08799362, 0.00000000, 0.00000000, 0.00000000, 109.21123505, -18.38224220, 143.20979309, 1.00000000, 0.00000000, 0.00000000, 0.00000000, -0.02313973, -0.00760093, -0.02066509, 0.00000000, 0.00000000, 0.00000000, 0.00000000
1, 2.1700, 217, -0.29497570, -0.88317305, 0.33321300, -2.74938631, -29.86489868, 30.54187202, 0.00000000, 0.00000000, 0.00000000, 109.31159973, -18.57202721, 142.80630493, 1.00000000, 0.00000000, 0.00000000, 0.00000000, -0.02230898, -0.01198778, -0.02013726, 0.00000000, 0.00000000, 0.00000000, 0.00000000
1, 2.1800, 218, -0.29188406, -0.88896465, 0.32278010, -6.26854038, -29.51929665, 32.30393219, 0.00000000, 0.00000000, 0.00000000, 109.37924194, -18.77902031, 142.39932251, 1.00000000, 0.00000000, 0.00000000, 0.00000000, -0.02874783, -0.00470303, -0.00884999, 0.00000000, 0.00000000, 0.00000000, 0.00000000
1, 2.1900, 219, -0.28863135, -0.92105979, 0.32670113, -7.11417818, -33.22503662, 36.71537781, 0.00000000, 0.00000000, 0.00000000, 109.45888519, -19.01238060, 141.93870544, 1.00000000, 0.00000000, 0.00000000, 0.00000000, -0.03564105, 0.02895737, -0.01205967, 0.00000000, 0.00000000, 0.00000000, 0.00000000
1, 2.2000, 220, -0.27290940, -0.86404288, 0.35694614, -10.55654240, -30.30444336, 39.25932693, 0.00000000, 0.00000000, 0.00000000, 109.49794006, -19.28141403, 141.49766541, 1.00000000, 0.00000000, 0.00000000, 0.00000000, -0.05565014, -0.02631950, -0.04182435, 0.00000000, 0.00000000, 0.00000000, 0.00000000
1, 2.2100, 221, -0.30870965, -0.96574932, 0.33298141, -14.87369633, -23.47050476, 39.16524887, 0.00000000, 0.00000000, 0.00000000, 109.47329712, -19.57232094, 141.12449646, 1.00000000, 0.00000000, 0.00000000, 0.00000000, -0.02446037, 0.07688475, -0.01847312, 0.00000000, 0.00000000, 0.00000000, 0.00000000
1, 2.2200, 222, -0.29399589, -0.98170030, 0.26898217, -15.10750103, -18.37377357, 39.40319061, 0.00000000, 0.00000000, 0.00000000, 109.43138123, -19.88267326, 140.80107117, 1.00000000, 0.00000000, 0.00000000, 0.00000000, -0.04416610, 0.09429890, 0.04432716, 0.00000000, 0.00000000, 0.00000000, 0.00000000
1, 2.2300, 223, -0.29365605, -0.91974580, 0.24230400, -14.07035160, -16.90266037, 40.14280319, 0.00000000, 0.00000000, 0.00000000, 109.39753723, -20.20509148, 140.48931885, 1.00000000, 0.00000000, 0.00000000, 0.00000000, -0.04975263, 0.03394262, 0.06981894, 0.00000000, 0.00000000, 0.00000000, 0.00000000
1, 2.2400, 224, -0.39445916, -0.98165560, 0.23869354, -14.76025867, -21.05165672, 42.18473053, 0.00000000, 0.00000000, 0.00000000, 109.37580109, -20.53630447, 140.12753296, 1.00000000, 0.00000000, 0.00000000, 0.00000000, 0.04574941, 0.09755246, 0.07236994, 0.00000000, 0.00000000, 0.00000000, 0.00000000
1, 2.2500, 225, -0.34006482, -0.89718008, 0.26200947, -12.41129971, -16.29144859, 40.70717621, 0.00000000, 0.00000000, 0.00000000, 109.36074066, -20.86631775, 139.81893921, 1.00000000, 0.00000000, 0.00000000, 0.00000000, -0.01412360, 0.01491259, 0.04807467, 0.00000000, 0.00000000, 0.00000000, 0.00000000
1, 2.2600, 226, -0.32729459, -0.86675835, 0.28754812, -12.43138409, -12.87051105, 38.64785004, 0.00000000, 0.00000000, 0.00000000, 109.33233643, -21.18831825, 139.55165100, 1.00000000, 0.00000000, 0.00000000, 0.00000000, -0.03218317, -0.01370150, 0.02158577, 0.00000000, 0.00000000, 0.00000000, 0.00000000
1, 2.2700, 227, -0.38496229, -0.85726404, 0.25553456, -14.03299904, -8.26128769, 35.48445129, 0.00000000, 0.00000000, 0.00000000, 109.26828003, -21.49590683, 139.34201050, 1.00000000, 0.00000000, 0.00000000, 0.00000000, 0.02037966, -0.02161105, 0.05212739, 0.00000000, 0.00000000, 0.00000000, 0.00000000
1, 2.2800, 228, -0.33086026, -0.81116575, 0.20257397, -10.67107582, -1.26832604, 31.67593193, 0.00000000, 0.00000000, 0.00000000, 109.20769501, -21.79079819, 139.21685791, 1.00000000, 0.00000000, 0.00000000, 0.00000000, -0.03859259, -0.06623772, 0.10347463, 0.00000000, 0.00000000, 0.00000000, 0.00000000
1, 2.2900, 229, -0.40327495, -0.82222784, 0.21333836, -9.53805733, 3.86834359, 29.60522270, 0.00000000, 0.00000000, 0.00000000, 109.12661743, -22.09340286, 139.15515137, 1.00000000, 0.00000000, 0.00000000, 0.00000000, 0.02903379, -0.05373663, 0.09100935, 0.00000000, 0.00000000, 0.00000000, 0.00000000
1, 2.3000, 230, -0.43841639, -0.90559477, 0.22865811, -5.50259256, 3.08873200, 27.98921394, 0.00000000, 0.00000000, 0.00000000, 109.09710693, -22.36798668, 139.08770752, 1.00000000, 0.00000000, 0.00000000, 0.00000000, 0.05950022, 0.03112842, 0.07421036, 0.00000000, 0.00000000, 0.00000000, 0.00000000
1, 2.3100, 231, -0.41636947, -0.92139065, 0.22005656, 0.54240900, 2.96065855, 25.79631805, 0.00000000, 0.00000000, 0.00000000, 109.12592316, -22.62143135, 139.02659607, 1.00000000, 0.00000000, 0.00000000, 0.00000000, 0.03323020, 0.04859479, 0.08231741, 0.00000000, 0.00000000, 0.00000000, 0.00000000
1, 2.3200, 232, -0.45266944, -0.84649676, 0.19382519, 7.55349970, -0.33286959, 24.65672684, 0.00000000, 0.00000000, 0.00000000, 109.23672485, -22.85322571, 138.93536377, 1.00000000, 0.00000000, 0.00000000, 0.00000000, 0.06569130, -0.02434662, 0.10928880, 0.00000000, 0.00000000, 0.00000000, 0.00000000
1, 2.3300, 233, -0.47243151, -0.84745771, 0.18251368, 12.43193913, -0.80401975, 23.97899055, 0.00000000, 0.00000000, 0.00000000, 109.39785004, -23.07686424, 138.84098816, 1.00000000, 0.00000000, 0.00000000, 0.00000000, 0.08179326, -0.02115893, 0.12228992, 0.00000000, 0.00000000, 0.00000000, 0.00000000
1, 2.3400, 234, -0.49416474, -0.80548877, 0.21551222, 17.49987984, 2.06845117, 22.04341698, 0.00000000, 0.00000000, 0.00000000, 109.58999634, -23.30695534, 138.78302002, 1.00000000, 0.00000000, 0.00000000, 0.00000000, 0.09996942, -0.06073514, 0.09151243, 0.00000000, 0.00000000, 0.00000000, 0.00000000
1, 2.3500, 235, -0.44947246, -0.78230983, 0.25728285, 20.76077461, 2.34712029, 19.57440758, 0.00000000, 0.00000000, 0.00000000, 109.81658173, -23.49916267, 138.73519897, 1.00000000, 0.00000000, 0.00000000, 0.00000000, 0.05184331, -0.08136770, 0.05247560, 0.00000000, 0.00000000, 0.00000000, 0.00000000
1, 2.3600, 236, -0.47764653, -0.85534585, 0.27057311, 21.09000015, 1.83145463, 15.45199776, 0.00000000, 0.00000000, 0.00000000, 110.04295349, -23.65067673, 138.69651794, 1.00000000, 0.00000000, 0.00000000, 0.00000000, 0.07737961, -0.00601563, 0.04222310, 0.00000000, 0.00000000, 0.00000000, 0.00000000
1, 2.3700, 237, -0.44278103, -0.86675179, 0.31871307, 21.76263237, 1.25403893, 16.18941879, 0.00000000, 0.00000000, 0.00000000, 110.27992249, -23.80697060, 138.64843750, 1.00000000, 0.00000000, 0.00000000, 0.00000000, 0.04003440, 0.00769027, -0.00279091, 0.00000000, 0.00000000, 0.00000000, 0.00000000
1, 2.3800, 238, -0.43113518, -0.89580166, 0.33427089, 21.11438751, -2.20420241, 13.35671902, 0.00000000, 0.00000000, 0.00000000, 110.52081299, -23.92447090, 138.57495117, 1.00000000, 0.00000000, 0.00000000, 0.00000000, 0.02623529, 0.03896877, -0.01506563, 0.00000000, 0.00000000, 0.00000000, 0.00000000
1, 2.3900, 239, -0.45859900, -0.93897080, 0.33530605, 17.77100945, -2.92408776, 11.48174572, 0.00000000, 0.00000000, 0.00000000, 110.72912598, -24.02282906, 138.50030518, 1.00000000, 0.00000000, 0.00000000, 0.00000000, 0.05208807, 0.08402690, -0.01309699, 0.00000000, 0.00000000, 0.00000000, 0.00000000
1, 2.4000, 240, -0.46363443, -0.90310568, 0.37112778, 17.00421524, -4.21188021, 10.98597145, 0.00000000, 0.00000000, 0.00000000, 110.93418884, -24.11051750, 138.41441345, 1.00000000, 0.00000000, 0.00000000, 0.00000000, 0.05563481, 0.04994677, -0.04608141, 0.00000000, 0.00000000, 0.00000000, 0.00000000
1, 2.4100, 241, -0.43507147, -0.85656083, 0.33337924, 15.50625610, -6.85577679, 9.94068718, 0.00000000, 0.00000000, 0.00000000, 111.13394165, -24.17867661, 138.30520630, 1.00000000, 0.00000000, 0.00000000, 0.00000000, 0.02587023, 0.00507395, -0.00547127, 0.00000000, 0.00000000, 0.00000000, 0.00000000
1, 2.4200, 242, -0.46169639, -0.87730896, 0.32252800, 11.47783375, -5.77624321, 8.44529629, 0.00000000, 0.00000000, 0.00000000, 111.28666687, -24.23650360, 138.21266174, 1.00000000, 0.00000000, 0.00000000, 0.00000000, 0.05153332, 0.02720761, 0.00776494, 0.00000000, 0.00000000, 0.00000000, 0.00000000
1, 2.4300, 243, -0.44376200, -0.85680401, 0.34117436, 8.95003033, -4.45093012, 6.42695904, 0.00000000, 0.00000000, 0.00000000, 111.40539551, -24.28015518, 138.14154053, 1.00000000, 0.00000000, 0.00000000, 0.00000000, 0.03279722, 0.00779340, -0.00907696, 0.00000000, 0.00000000, 0.00000000, 0.00000000
1, 2.4400, 244, -0.41963381, -0.83726633, 0.36387128, 5.78102541, -3.89196944, 4.79241800, 0.00000000, 0.00000000, 0.00000000, 111.50588226, -24.31311607, 138.07164001, 1.00000000, 0.00000000, 0.00000000, 0.00000000, 0.00810605, -0.01092386, -0.03037745, 0.00000000, 0.00000000, 0.00000000, 0.00000000
1, 2.4500, 245, -0.42329407, -0.82650918, 0.34454787, 3.21307230, -4.02733469, 3.64980936, 0.00000000, 0.00000000, 0.00000000, 111.56100464, -24.33228493, 138.01583862, 1.00000000, 0.00000000, 0.00000000, 0.00000000, 0.01137090, -0.02106009, -0.00996496, 0.00000000, 0.00000000, 0.00000000, 0.00000000
1, 2.4600, 246, -0.44608459, -0.83347702, 0.30723038, 0.30976200, -4.01631403, 1.77806723, 0.00000000, 0.00000000, 0.00000000, 111.58394623, -24.33404541, 137.96766663, 1.00000000, 0.00000000, 0.00000000, 0.00000000, 0.03402358, -0.01382194, 0.02786662, 0.00000000, 0.00000000, 0.00000000, 0.00000000
1, 2.4700, 247, -0.47771940, -0.84495080, 0.24776241, -1.70446062, -3.36453223, -0.07950395, 0.00000000, 0.00000000, 0.00000000, 111.58090973, -24.32094002, 137.93363953, 1.00000000, 0.00000000, 0.00000000, 0.00000000, 0.06577303, -0.00236388, 0.08743611, 0.00000000, 0.00000000, 0.00000000, 0.00000000
1, 2.4800, 248, -0.50361383, -0.87163681, 0.23933937, -4.85882378, -1.70804143, -2.08626699, 0.00000000, 0.00000000, 0.00000000, 111.53603363, -24.29525566, 137.92462158, 1.00000000, 0.00000000, 0.00000000, 0.00000000, 0.09201033, 0.02401969, 0.09551537, 0.00000000, 0.00000000, 0.00000000, 0.00000000
1, 2.4900, 249, -0.48130938, -0.89655113, 0.29352984, -7.20177937, 2.56719065, -5.31452751, 0.00000000, 0.00000000, 0.00000000, 111.43777466, -24.26174164, 137.97506714, 1.00000000, 0.00000000, 0.00000000, 0.00000000, 0.07022128, 0.04827084, 0.04027678, 0.00000000, 0.00000000, 0.00000000, 0.00000000
1, 2.5000, 250, -0.44604239, -0.86927128, 0.37567443, -9.13048077, 5.17984867, -8.60245800, 0.00000000, 0.00000000, 0.00000000, 111.31066132, -24.20051003, 138.06233215, 1.00000000, 0.00000000, 0.00000000, 0.00000000, 0.03572324, 0.01997688, -0.04350443, 0.00000000, 0.00000000, 0.00000000, 0.00000000
1, 2.5100, 251, -0.44132733, -0.82365382, 0.39776745, -11.87260246, 8.94903278, -12.18178177, 0.00000000, 0.00000000, 0.00000000, 111.13473511, -24.11934471, 138.20210266, 1.00000000, 0.00000000, 0.00000000, 0.00000000, 0.03218038, -0.02702352, -0.06769782, 0.00000000, 0.00000000, 0.00000000, 0.00000000
1, 2.5200, 252, -0.45952478, -0.85488653, 0.34054163, -16.48453140, 15.22556591, -14.76370621, 0.00000000, 0.00000000, 0.00000000, 110.88271332, -24.03610039, 138.41577148, 1.00000000, 0.00000000, 0.00000000, 0.00000000, 0.05170896, 0.00238501, -0.01354635, 0.00000000, 0.00000000, 0.00000000, 0.00000000
1, 2.5300, 253, -0.45919535, -0.86355019, 0.26502824, -20.33600998, 21.12835884, -18.54928589, 0.00000000, 0.00000000, 0.00000000, 110.56221771, -23.93736839, 138.70390320, 1.00000000, 0.00000000, 0.00000000, 0.00000000, 0.05285189, 0.00874127, 0.05774760, 0.00000000, 0.00000000, 0.00000000, 0.00000000
1, 2.5400, 254, -0.47822765, -0.86463279, 0.23944262, -22.80404472, 24.11861992, -21.35368729, 0.00000000, 0.00000000, 0.00000000, 110.19564056, -23.82736397, 139.03466797, 1.00000000, 0.00000000, 0.00000000, 0.00000000, 0.07359771, 0.00716776, 0.07840205, 0.00000000, 0.00000000, 0.00000000, 0.00000000
1, 2.5500, 255, -0.46820170, -0.83552408, 0.27508005, -23.85993004, 29.01604652, -24.87035179, 0.00000000, 0.00000000, 0.00000000, 109.79956818, -23.69287491, 139.42549133, 1.00000000, 0.00000000, 0.00000000, 0.00000000, 0.06553733, -0.02490093, 0.03721265, 0.00000000, 0.00000000, 0.00000000, 0.00000000
1, 2.5600, 256, -0.43821406, -0.80358690, 0.30638337, -23.52963638, 29.69996452, -27.26371574, 0.00000000, 0.00000000, 0.00000000, 109.40196228, -23.53566360, 139.83065796, 1.00000000, 0.00000000, 0.00000000, 0.00000000, 0.03791809, -0.05996239, 0.00027929, 0.00000000, 0.00000000, 0.00000000, 0.00000000
1, 2.5700, 257, -0.40557396, -0.80189866, 0.32308120, -21.88636780, 27.28824234, -29.18467331, 0.00000000, 0.00000000, 0.00000000, 109.02970123, -23.34989166, 140.21620178, 1.00000000, 0.00000000, 0.00000000, 0.00000000, 0.00807612, -0.06483820, -0.02181844, 0.00000000, 0.00000000, 0.00000000, 0.00000000
1, 2.5800, 258, -0.35979101, -0.80269164, 0.33296105, -19.84304428, 22.67389870, -29.98154449, 0.00000000, 0.00000000, 0.00000000, 108.69746399, -23.13948631, 140.55520630, 1.00000000, 0.00000000, 0.00000000, 0.00000000, -0.03447912, -0.06717889, -0.03652710, 0.00000000, 0.00000000, 0.00000000, 0.00000000
1, 2.5900, 259, -0.37435740, -0.82499880, 0.26545402, -17.13316917, 16.93484688, -30.02987289, 0.00000000, 0.00000000, 0.00000000, 108.41142273, -22.91076469, 140.83633423, 1.00000000, 0.00000000, 0.00000000, 0.00000000, -0.01631982, -0.04786830, 0.02690090, 0.00000000, 0.00000000, 0.00000000, 0.00000000
1, 2.6000, 260, -0.43190876, -0.90433723, 0.18578857, -16.32060623, 12.15619183, -30.14865494, 0.00000000, 0.00000000, 0.00000000, 108.15998840, -22.66264153, 141.06411743, 1.00000000, 0.00000000, 0.00000000, 0.00000000, 0.04508434, 0.02858102, 0.10302801, 0.00000000, 0.00000000, 0.00000000, 0.00000000
1, 2.6100, 261, -0.45148677, -0.92327070, 0.23410904, -14.08318520, 11.66729259, -31.63423729, 0.00000000, 0.00000000, 0.00000000, 107.93249512, -22.39799500, 141.29029846, 1.00000000, 0.00000000, 0.00000000, 0.00000000, 0.06882914, 0.04468066, 0.05163551, 0.00000000, 0.00000000, 0.00000000, 0.00000000
1, 2.6200, 262, -0.38167435, -0.90160030, 0.31800741, -11.88438320, 12.47988129, -33.27898788, 0.00000000, 0.00000000, 0.00000000, 107.72333527, -22.11939430, 141.52874756, 1.00000000, 0.00000000, 0.00000000, 0.00000000, 0.00343707, 0.02020799, -0.03502087, 0.00000000, 0.00000000, 0.00000000, 0.00000000
1, 2.6300, 263, -0.28571132, -0.89254963, 0.34991735, -9.40755463, 6.60932541, -33.67600632, 0.00000000, 0.00000000, 0.00000000, 107.56266022, -21.81850815, 141.70671082, 1.00000000, 0.00000000, 0.00000000, 0.00000000, -0.08781592, 0.00844713, -0.06913718, 0.00000000, 0.00000000, 0.00000000, 0.00000000
1, 2.6400, 264, -0.32947043, -0.88255012, 0.29645663, -7.78280783, 0.87520456, -33.01103210, 0.00000000, 0.00000000, 0.00000000, 107.44078064, -21.50716019, 141.82305908, 1.00000000, 0.00000000, 0.00000000, 0.00000000, -0.03903482, -0.00412363, -0.01715218, 0.00000000, 0.00000000, 0.00000000, 0.00000000
1, 2.6500, 265, -0.38897735, -0.86669779, 0.24234830, -6.33927679, -1.59184408, -32.20031738, 0.00000000, 0.00000000, 0.00000000, 107.34568787, -21.19512558, 141.91007996, 1.00000000, 0.00000000, 0.00000000, 0.00000000, 0.02552624, -0.02238189, 0.03592895, 0.00000000, 0.00000000, 0.00000000, 0.00000000
1, 2.6600, 266, -0.36519873, -0.85227174, 0.23092982, -4.99956083, -2.95113349, -32.82771301, 0.00000000, 0.00000000, 0.00000000, 107.26896667, -20.87293053, 141.98451233, 1.00000000, 0.00000000, 0.00000000, 0.00000000, 0.00691323, -0.03912225, 0.04664126, 0.00000000, 0.00000000, 0.00000000, 0.00000000
1, 2.6700, 267, -0.33458897, -0.85336596, 0.24295673, -4.41172552, -6.87252855, -32.93363953, 0.00000000, 0.00000000, 0.00000000, 107.21273804, -20.53803062, 142.01869202, 1.00000000, 0.00000000, 0.00000000, 0.00000000, -0.01829860, -0.04029030, 0.03425424, 0.00000000, 0.00000000, 0.00000000, 0.00000000
1, 2.6800, 268, -0.32137814, -0.90590709, 0.24638471, -5.89004707, -9.94125938, -32.30424881, 0.00000000, 0.00000000, 0.00000000, 107.15364838, -20.20004082, 142.01919556, 1.00000000, 0.00000000, 0.00000000, 0.00000000, -0.02600429, 0.01000018, 0.03051515, 0.00000000, 0.00000000, 0.00000000, 0.00000000
1, 2.6900, 269, -0.30883181, -0.92353863, 0.26241857, -4.73319674, -14.41689396, -32.26618195, 0.00000000, 0.00000000, 0.00000000, 107.12140656, -19.84580612, 141.97450256, 1.00000000, 0.00000000, 0.00000000, 0.00000000, -0.03287620, 0.02542497, 0.01439274, 0.00000000, 0.00000000, 0.00000000, 0.00000000
1, 2.7000, 270, -0.30987090, -0.88558620, 0.32420173, -2.64043188, -19.66631508, -30.83125687, 0.00000000, 0.00000000, 0.00000000, 107.12970734, -19.49325371, 141.87132263, 1.00000000, 0.00000000, 0.00000000, 0.00000000, -0.02599122, -0.01456435, -0.04685244, 0.00000000, 0.00000000, 0.00000000, 0.00000000
1, 2.7100, 271, -0.30486080, -0.87602383, 0.36419401, -3.29069090, -20.94973564, -29.96347427, 0.00000000, 0.00000000, 0.00000000, 107.13603973, -19.14519310, 141.75273132, 1.00000000, 0.00000000, 0.00000000, 0.00000000, -0.02525141, -0.02601308, -0.08607076, 0.00000000, 0.00000000, 0.00000000, 0.00000000
1, 2.7200, 272, -0.30682787, -0.89798880, 0.30746257, -7.66419172, -21.09020424, -30.36657715, 0.00000000, 0.00000000, 0.00000000, 107.09796143, -18.79289818, 141.63410950, 1.00000000, 0.00000000, 0.00000000, 0.00000000, -0.01749985, -0.00606100, -0.02906965, 0.00000000, 0.00000000, 0.00000000, 0.00000000
1, 2.7300, 273, -0.34044212, -0.93155193, 0.23987707, -11.84959126, -20.07522774, -30.11089325, 0.00000000, 0.00000000, 0.00000000, 107.01438904, -18.44613647, 141.52481079, 1.00000000, 0.00000000, 0.00000000, 0.00000000, 0.02188793, 0.02530621, 0.03804197, 0.00000000, 0.00000000, 0.00000000, 0.00000000
1, 2.7400, 274, -0.35317141, -0.95264232, 0.19973327, -14.77071095, -17.42624092, -30.44639015, 0.00000000, 0.00000000, 0.00000000, 106.88430023, -18.10632324, 141.44619751, 1.00000000, 0.00000000, 0.00000000, 0.00000000, 0.04028764, 0.04405385, 0.07697500, 0.00000000, 0.00000000, 0.00000000, 0.00000000
1, 2.7500, 275, -0.32328492, -0.95029593, 0.22295366, -16.47757149, -15.54389477, -30.56079865, 0.00000000, 0.00000000, 0.00000000, 106.73908234, -17.76881409, 141.38270569, 1.00000000, 0.00000000, 0.00000000, 0.00000000, 0.01601110, 0.03926776, 0.05201418, 0.00000000, 0.00000000, 0.00000000, 0.00000000
1, 2.7600, 276, -0.30524385, -0.93214393, 0.26897660, -18.00942421, -15.93555737, -30.94914818, 0.00000000, 0.00000000, 0.00000000, 106.57928467, -17.42662811, 141.31562805, 1.00000000, 0.00000000, 0.00000000, 0.00000000, 0.00361680, 0.01864757, 0.00404745, 0.00000000, 0.00000000, 0.00000000, 0.00000000
1, 2.7700, 277, -0.29524422, -0.89158875, 0.29078299, -17.95578194, -17.54455185, -30.84627914, 0.00000000, 0.00000000, 0.00000000, 106.42475128, -17.08104324, 141.23121643, 1.00000000, 0.00000000, 0.00000000, 0.00000000, -0.00065070, -0.02438605, -0.01979780, 0.00000000, 0.00000000, 0.00000000, 0.00000000
1, 2.7800, 278, -0.29145920, -0.86136168, 0.27752388, -17.37192154, -20.16643906, -30.91933250, 0.00000000, 0.00000000, 0.00000000, 106.28338623, -16.72757721, 141.11996460, 1.00000000, 0.00000000, 0.00000000, 0.00000000, 0.00142583, -0.05701844, -0.00834864, 0.00000000, 0.00000000, 0.00000000, 0.00000000
1, 2.7900, 279, -0.30201504, -0.89003801, 0.21027413, -19.12192535, -20.99726295, -31.69516945, 0.00000000, 0.00000000, 0.00000000, 106.12033844, -16.36756897, 141.00382996, 1.00000000, 0.00000000, 0.00000000, 0.00000000, 0.01795132, -0.03076327, 0.05698792, 0.00000000, 0.00000000, 0.00000000, 0.00000000
1, 2.8000, 280, -0.30800474, -0.96714586, 0.14262447, -21.85825348, -17.05707932, -33.26014709, 0.00000000, 0.00000000, 0.00000000, 105.92270660, -16.00080299, 140.92869568, 1.00000000, 0.00000000, 0.00000000, 0.00000000, 0.03002878, 0.04375738, 0.12209997, 0.00000000, 0.00000000, 0.00000000, 0.00000000
1, 2.8100, 281, -0.29364812, -0.97298384, 0.19571315, -19.03517914, -18.43957329, -34.93841553, 0.00000000, 0.00000000, 0.00000000, 105.75557709, -15.61436081, 140.84341431, 1.00000000, 0.00000000, 0.00000000, 0.00000000, 0.02202525, 0.04701239, 0.06657262, 0.00000000, 0.00000000, 0.00000000, 0.00000000
1, 2.8200, 282, -0.30487224, -0.94373846, 0.22996590, -17.30599213, -19.24903107, -36.33406067, 0.00000000, 0.00000000, 0.00000000, 105.60655212, -15.21251678, 140.75302124, 1.00000000, 0.00000000, 0.00000000, 0.00000000, 0.03993254, 0.01527803, 0.03034885, 0.00000000, 0.00000000, 0.00000000, 0.00000000
1, 2.8300, 283, -0.29785290, -0.91451514, 0.19400950, -16.84110260, -18.78026390, -37.71665573, 0.00000000, 0.00000000, 0.00000000, 105.45959473, -14.79884243, 140.67024231, 1.00000000, 0.00000000, 0.00000000, 0.00000000, 0.03977466, -0.01640344, 0.06441206, 0.00000000, 0.00000000, 0.00000000, 0.00000000
1, 2.8400, 284, -0.29327825, -0.91172498, 0.18716693, -17.14276695, -18.05849266, -39.78685760, 0.00000000, 0.00000000, 0.00000000, 105.30059052, -14.37092590, 140.60102844, 1.00000000, 0.00000000, 0.00000000, 0.00000000, 0.04239878, -0.02169941, 0.06929626, 0.00000000, 0.00000000, 0.00000000, 0.00000000
1, 2.8500, 285, -0.27116272, -0.93496519, 0.18208918, -18.04969025, -17.85034180, -41.06824112, 0.00000000, 0.00000000, 0.00000000, 105.13634491, -13.92778587, 140.53456116, 1.00000000, 0.00000000, 0.00000000, 0.00000000, 0.02763059, -0.00100252, 0.07217659, 0.00000000, 0.00000000, 0.00000000, 0.00000000
1, 2.8600, 286, -0.26347587, -0.96857852, 0.18304056, -18.33793831, -17.33672523, -42.80857468, 0.00000000, 0.00000000, 0.00000000, 104.96669006, -13.46936321, 140.47665405, 1.00000000, 0.00000000, 0.00000000, 0.00000000, 0.02760032, 0.03004342, 0.06896934, 0.00000000, 0.00000000, 0.00000000, 0.00000000
1, 2.8700, 287, -0.26849589, -0.97255152, 0.18571153, -16.41687775, -15.63140392, -44.52689743, 0.00000000, 0.00000000, 0.00000000, 104.81115723, -12.99887466, 140.43898010, 1.00000000, 0.00000000, 0.00000000, 0.00000000, 0.04055115, 0.03147967, 0.06412653, 0.00000000, 0.00000000, 0.00000000, 0.00000000
1, 2.8800, 288, -0.27711526, -0.95086223, 0.19546302, -14.03942490, -13.78806496, -46.93165207, 0.00000000, 0.00000000, 0.00000000, 104.67393494, -12.50991821, 140.42471313, 1.00000000, 0.00000000, 0.00000000, 0.00000000, 0.05736810, 0.00734462, 0.05248756, 0.00000000, 0.00000000, 0.00000000, 0.00000000
1, 2.8900, 289, -0.24620038, -0.95130819, 0.18408956, -12.12521172, -10.05624580, -49.64094925, 0.00000000, 0.00000000, 0.00000000, 104.54050446, -12.00643635, 140.45516968, 1.00000000, 0.00000000, 0.00000000, 0.00000000, 0.03498082, 0.00540286, 0.06216836, 0.00000000, 0.00000000, 0.00000000, 0.00000000
1, 2.9000, 290, -0.20702092, -0.94869131, 0.16980211, -10.34313965, -9.36081982, -51.08949280, 0.00000000, 0.00000000, 0.00000000, 104.42934418, -11.48836994, 140.49310303, 1.00000000, 0.00000000, 0.00000000, 0.00000000, 0.00451410, 0.00047603, 0.07488573, 0.00000000, 0.00000000, 0.00000000, 0.00000000
1, 2.9100, 291, -0.22230324, -0.95793790, 0.15904742, -8.98927975, -9.82570076, -52.33648682, 0.00000000, 0.00000000, 0.00000000, 104.33255005, -10.95699692, 140.52856445, 1.00000000, 0.00000000, 0.00000000, 0.00000000, 0.02879434, 0.00752640, 0.08439693, 0.00000000, 0.00000000, 0.00000000, 0.00000000
1, 2.9200, 292, -0.25328889, -0.95547456, 0.16531314, -6.76595354, -10.15788746, -54.13502884, 0.00000000, 0.00000000, 0.00000000, 104.25824738, -10.40732861, 140.56440735, 1.00000000, 0.00000000, 0.00000000, 0.00000000, 0.06910740, 0.00297578, 0.07720695, 0.00000000, 0.00000000, 0.00000000, 0.00000000
1, 2.9300, 293, -0.23373942, -0.96792984, 0.18784353, -5.42427778, -7.02833271, -55.72447968, 0.00000000, 0.00000000, 0.00000000, 104.19172668, -9.84989643, 140.63429260, 1.00000000, 0.00000000, 0.00000000, 0.00000000, 0.05905825, 0.01346442, 0.05397189, 0.00000000, 0.00000000, 0.00000000, 0.00000000
1, 2.9400, 294, -0.19405265, -0.97028029, 0.20358798, -4.80185270, -4.49814653, -58.37963867, 0.00000000, 0.00000000, 0.00000000, 104.12362671, -9.27458286, 140.73570251, 1.00000000, 0.00000000, 0.00000000, 0.00000000, 0.02916885, 0.01389572, 0.03752174, 0.00000000, 0.00000000, 0.00000000, 0.00000000
1, 2.9500, 295, -0.15036847, -0.95668477, 0.22994085, -2.80324364, -3.16293335, -58.89583206, 0.00000000, 0.00000000, 0.00000000, 104.07775116, -8.69565582, 140.84989929, 1.00000000, 0.00000000, 0.00000000, 0.00000000, -0.00456705, -0.00150147, 0.01061299, 0.00000000, 0.00000000, 0.00000000, 0.00000000
1, 2.9600, 296, -0.19337349, -0.94409984, 0.22014362, -1.13717675, -1.85142493, -58.23579025, 0.00000000, 0.00000000, 0.00000000, 104.04811096, -8.12625790, 140.97477722, 1.00000000, 0.00000000, 0.00000000, 0.00000000, 0.04827777, -0.01567556, 0.02021148, 0.00000000, 0.00000000, 0.00000000, 0.00000000
1, 2.9700, 297, -0.14864811, -0.95484197, 0.17882501, -1.08152735, 1.91076112, -60.29203033, 0.00000000, 0.00000000, 0.00000000, 104.01463318, -7.54595041, 141.14105225, 1.00000000, 0.00000000, 0.00000000, 0.00000000, 0.01352988, -0.00644541, 0.06130312, 0.00000000, 0.00000000, 0.00000000, 0.00000000
1, 2.9800, 298, -0.12608089, -0.98171461, 0.17992137, -0.73283845, 2.20212579, -60.78283310, 0.00000000, 0.00000000, 0.00000000, 103.98586273, -6.96150970, 141.31082153, 1.00000000, 0.00000000, 0.00000000, 0.00000000, 0.00109917, 0.01901746, 0.06004883, 0.00000000, 0.00000000, 0.00000000, 0.00000000
1, 2.9900, 299, -0.15977958, -1.00378418, 0.18084607, -0.23371774, 2.32622290, -59.87752151, 0.00000000, 0.00000000, 0.00000000, 103.95785522, -6.38967466, 141.48016357, 1.00000000, 0.00000000, 0.00000000, 0.00000000, 0.04475588, 0.03979896, 0.05893325, 0.00000000, 0.00000000, 0.00000000, 0.00000000
1, 3.0000, 300, -0.08802102, -0.98153603, 0.20078872, 3.54846191, 1.00757229, -62.16175842, 0.00000000, 0.00000000, 0.00000000, 103.97631073, -5.78886175, 141.64085388, 1.00000000, 0.00000000, 0.00000000, 0.00000000, -0.01673559, 0.01644546, 0.03924845, 0.00000000, 0.00000000, 0.00000000, 0.00000000
1, 3.0100, 301, -0.05680556, -0.95648295, 0.20066805, 5.40256500, -0.90614939, -62.55698776, 0.00000000, 0.00000000, 0.00000000, 104.01660156, -5.17967367, 141.78401184, 1.00000000, 0.00000000, 0.00000000, 0.00000000, -0.03747166, -0.00948541, 0.04018035, 0.00000000, 0.00000000, 0.00000000, 0.00000000
1, 3.0200, 302, -0.06100672, -0.94588494, 0.21513107, 3.29242349, -0.84360707, -59.34558105, 0.00000000, 0.00000000, 0.00000000, 104.03794098, -4.60187197, 141.92019653, 1.00000000, 0.00000000, 0.00000000, 0.00000000, -0.02294163, -0.02084780, 0.02647308, 0.00000000, 0.00000000, 0.00000000, 0.00000000
1, 3.0300, 303, -0.10808137, -0.99305356, 0.21050994, 2.01945353, 0.76188195, -57.57865906, 0.00000000, 0.00000000, 0.00000000, 104.04701233, -4.04513931, 142.06770325, 1.00000000, 0.00000000, 0.00000000, 0.00000000, 0.03389494, 0.02561775, 0.03147550, 0.00000000, 0.00000000, 0.00000000, 0.00000000
1, 3.0400, 304, -0.07671017, -1.00000918, 0.22334187, 2.05580616, 0.91848147, -59.95713806, 0.00000000, 0.00000000, 0.00000000, 104.05715942, -3.46250534, 142.22312927, 1.00000000, 0.00000000, 0.00000000, 0.00000000, 0.01244938, 0.03194615, 0.01897245, 0.00000000, 0.00000000, 0.00000000, 0.00000000
1, 3.0500, 305, 0.01434327, -0.96634156, 0.24192435, 2.57474661, 0.46606416, -57.64144135, 0.00000000, 0.00000000, 0.00000000, 104.07489014, -2.90450668, 142.36798096, 1.00000000, 0.00000000, 0.00000000, 0.00000000, -0.06853972, -0.00223352, 0.00080541, 0.00000000, 0.00000000, 0.00000000, 0.00000000
1, 3.0600, 306, -0.00469861, -0.96053535, 0.22261535, 2.76317716, -1.03718209, -56.05154419, 0.00000000, 0.00000000, 0.00000000, 104.09666443, -2.35832500, 142.49446106, 1.00000000, 0.00000000, 0.00000000, 0.00000000, -0.04013780, -0.00841145, 0.02054020, 0.00000000, 0.00000000, 0.00000000, 0.00000000
1, 3.0700, 307, 0.05256012, -0.92178273, 0.21254762, 1.80126905, -4.11321020, -57.19598007, 0.00000000, 0.00000000, 0.00000000, 104.11106110, -1.79358530, 142.59400940, 1.00000000, 0.00000000, 0.00000000, 0.00000000, -0.08748981, -0.04746532, 0.03103124, 0.00000000, 0.00000000, 0.00000000, 0.00000000
1, 3.0800, 308, 0.04670431, -0.93064213, 0.18732171, -0.76471251, -3.82601786, -47.65914917, 0.00000000, 0.00000000, 0.00000000, 104.10128021, -1.32204282, 142.67309570, 1.00000000, 0.00000000, 0.00000000, 0.00000000, -0.07258685, -0.03887790, 0.05630945, 0.00000000, 0.00000000, 0.00000000, 0.00000000
1, 3.0900, 309, -0.03465345, -0.99732035, 0.18375702, -0.63097543, -3.46834755, -45.62666321, 0.00000000, 0.00000000, 0.00000000, 104.08547211, -0.87171620, 142.75181580, 1.00000000, 0.00000000, 0.00000000, 0.00000000, 0.01644711, 0.02758430, 0.05970870, 0.00000000, 0.00000000, 0.00000000, 0.00000000
1, 3.1000, 310, 0.07182781, -0.97866118, 0.20607452, 1.15463829, -8.41979313, -48.71675110, 0.00000000, 0.00000000, 0.00000000, 104.09659576, -0.37870613, 142.78877258, 1.00000000, 0.00000000, 0.00000000, 0.00000000, -0.08166630, 0.00880195, 0.03738054, 0.00000000, 0.00000000, 0.00000000, 0.00000000
1, 3.1100, 311, 0.07877001, -0.95529008, 0.22302818, -0.21011540, -8.79948330, -44.66222000, 0.00000000, 0.00000000, 0.00000000, 104.09443665, 0.07589882, 142.81219482, 1.00000000, 0.00000000, 0.00000000, 0.00000000, -0.08033521, -0.01459190, 0.02053235, 0.00000000, 0.00000000, 0.00000000, 0.00000000
1, 3.1200, 312, 0.00359119, -0.95683205, 0.18790707, -0.32133424, -6.46550941, -35.39378738, 0.00000000, 0.00000000, 0.00000000, 104.09132385, 0.43493029, 142.83566284, 1.00000000, 0.00000000, 0.00000000, 0.00000000, 0.00161715, -0.01306631, 0.05554128, 0.00000000, 0.00000000, 0.00000000, 0.00000000
1, 3.1300, 313, 0.08936139, -0.96211660, 0.18279859, 1.69946337, -9.56897831, -40.89734650, 0.00000000, 0.00000000, 0.00000000, 104.10836792, 0.85489142, 142.84248352, 1.00000000, 0.00000000, 0.00000000, 0.00000000, -0.07720402, -0.00767665, 0.06081809, 0.00000000, 0.00000000, 0.00000000, 0.00000000
1, 3.1400, 314, 0.10432351, -0.97041500, 0.20913601, 0.38500476, -13.70974064, -37.06276321, 0.00000000, 0.00000000, 0.00000000, 104.10512543, 1.25618315, 142.80209351, 1.00000000, 0.00000000, 0.00000000, 0.00000000, -0.08505045, 0.00077002, 0.03461216, 0.00000000, 0.00000000, 0.00000000, 0.00000000
1, 3.1500, 315, 0.07031727, -0.96691400, 0.23417850, 0.07523739, -17.32461929, -31.90433884, 0.00000000, 0.00000000, 0.00000000, 104.10360718, 1.60782480, 142.71177673, 1.00000000, 0.00000000, 0.00000000, 0.00000000, -0.04447271, -0.00261901, 0.00940939, 0.00000000, 0.00000000, 0.00000000, 0.00000000
1, 3.1600, 316, 0.05697343, -0.96788645, 0.22303142, 0.60879385, -16.00908470, -26.33062744, 0.00000000, 0.00000000, 0.00000000, 104.10690308, 1.90220404, 142.62063599, 1.00000000, 0.00000000, 0.00000000, 0.00000000, -0.02577100, -0.00148985, 0.02055395, 0.00000000, 0.00000000, 0.00000000, 0.00000000
1, 3.1700, 317, 0.07415868, -0.96896845, 0.22394568, 0.55047619, -18.56217384, -29.71984863, 0.00000000, 0.00000000, 0.00000000, 104.10850525, 2.23568106, 142.51298523, 1.00000000, 0.00000000, 0.00000000, 0.00000000, -0.03729784, -0.00020966, 0.01963682, 0.00000000, 0.00000000, 0.00000000, 0.00000000
1, 3.1800, 318, 0.09916393, -0.97075522, 0.21797846, 0.81720001, -20.46840477, -27.08571815, 0.00000000, 0.00000000, 0.00000000, 104.11110687, 2.54826188, 142.38038635, 1.00000000, 0.00000000, 0.00000000, 0.00000000, -0.05672335, 0.00180003, 0.02558319, 0.00000000, 0.00000000, 0.00000000, 0.00000000
1, 3.1900, 319, 0.11461514, -0.97328210, 0.22501047, 1.57571948, -23.06934929, -23.78332710, 0.00000000, 0.00000000, 0.00000000, 104.11538696, 2.84261489, 142.21607971, 1.00000000, 0.00000000, 0.00000000, 0.00000000, -0.06692931, 0.00458083, 0.01859168, 0.00000000, 0.00000000, 0.00000000, 0.00000000
1, 3.2000, 320, 0.14484735, -0.96895856, 0.21114296, 0.79893190, -22.60149193, -17.52110672, 0.00000000, 0.00000000, 0.00000000, 104.11422729, 3.06765246, 142.03938293, 1.00000000, 0.00000000, 0.00000000, 0.00000000, -0.09263311, 0.00047444, 0.03239559, 0.00000000, 0.00000000, 0.00000000, 0.00000000
1, 3.2100, 321, 0.06357992, -0.97456717, 0.19676398, 1.56465852, -23.91119194, -13.22362709, 0.00000000, 0.00000000, 0.00000000, 104.11886597, 3.25420928, 141.83944702, 1.00000000, 0.00000000, 0.00000000, 0.00000000, -0.00821785, 0.00625406, 0.04675933, 0.00000000, 0.00000000, 0.00000000, 0.00000000
1, 3.2200, 322, 0.07848611, -0.97648650, 0.20548226, 2.00875974, -23.19238472, -13.81556034, 0.00000000, 0.00000000, 0.00000000, 104.12776184, 3.44477320, 141.64791870, 1.00000000, 0.00000000, 0.00000000, 0.00000000, -0.01960353, 0.00840124, 0.03812178, 0.00000000, 0.00000000, 0.00000000, 0.00000000
1, 3.2300, 323, 0.09484074, -0.98589921, 0.21411189, 2.08544564, -21.17912483, -11.32538223, 0.00000000, 0.00000000, 0.00000000, 104.13765717, 3.60630226, 141.46984863, 1.00000000, 0.00000000, 0.00000000, 0.00000000, -0.03296815, 0.01802734, 0.02959950, 0.00000000, 0.00000000, 0.00000000, 0.00000000
1, 3.2400, 324, 0.11209753, -0.98612612, 0.21551980, 2.05411482, -21.24538231, -9.52336788, 0.00000000, 0.00000000, 0.00000000, 104.14055634, 3.75975704, 141.28869629, 1.00000000, 0.00000000, 0.00000000, 0.00000000, -0.04755928, 0.01845540, 0.02829889, 0.00000000, 0.00000000, 0.00000000, 0.00000000
1, 3.2500, 325, 0.10091712, -0.98951381, 0.23159949, 1.69026768, -24.93661690, 0.67457372, 0.00000000, 0.00000000, 0.00000000, 104.14126587, 3.81412840, 141.04469299, 1.00000000, 0.00000000, 0.00000000, 0.00000000, -0.03451825, 0.02195579, 0.01216833, 0.00000000, 0.00000000, 0.00000000, 0.00000000
1, 3.2600, 326, 0.03050827, -1.00150657, 0.21727537, 1.39410055, -21.58299637, -3.20207477, 0.00000000, 0.00000000, 0.00000000, 104.14166260, 3.89791036, 140.84278870, 1.00000000, 0.00000000, 0.00000000, 0.00000000, 0.03679619, 0.03401273, 0.02649814, 0.00000000, 0.00000000, 0.00000000, 0.00000000
1, 3.2700, 327, 0.11082175, -1.00323892, 0.20990464, 2.16965437, -23.01141357, -3.07091522, 0.00000000, 0.00000000, 0.00000000, 104.14849854, 3.98392487, 140.62663269, 1.00000000, 0.00000000, 0.00000000, 0.00000000, -0.04189878, 0.03586572, 0.03389491, 0.00000000, 0.00000000, 0.00000000, 0.00000000
1, 3.2800, 328, 0.12633510, -0.97952300, 0.22473046, 2.64851165, -28.73119545, -0.71182650, 0.00000000, 0.00000000, 0.00000000, 104.15550232, 4.06107759, 140.34910583, 1.00000000, 0.00000000, 0.00000000, 0.00000000, -0.05599879, 0.01228140, 0.01918825, 0.00000000, 0.00000000, 0.00000000, 0.00000000
1, 3.2900, 329, 0.11345718, -0.95512593, 0.25752118, 2.11076331, -29.69434547, 2.59073997, 0.00000000, 0.00000000, 0.00000000, 104.16098785, 4.11521912, 140.05477905, 1.00000000, 0.00000000, 0.00000000, 0.00000000, -0.04202744, -0.01202011, -0.01354082, 0.00000000, 0.00000000, 0.00000000, 0.00000000
1, 3.3000, 330, 0.10720213, -0.97607088, 0.27522418, -0.74238300, -27.02641106, 8.01185608, 0.00000000, 0.00000000, 0.00000000, 104.13329315, 4.10359383, 139.77241516, 1.00000000, 0.00000000, 0.00000000, 0.00000000, -0.03546841, 0.00889227, -0.03146227, 0.00000000, 0.00000000, 0.00000000, 0.00000000
1, 3.3100, 331, 0.11918917, -1.01646936, 0.24536997, -4.65040302, -24.14889336, 10.14101601, 0.00000000, 0.00000000, 0.00000000, 104.06829834, 4.06407690, 139.51283264, 1.00000000, 0.00000000, 0.00000000, 0.00000000, -0.04802572, 0.04903002, -0.00247723, 0.00000000, 0.00000000, 0.00000000, 0.00000000
1, 3.3200, 332, 0.11632137, -1.00479400, 0.26069739, -4.82543707, -25.60194588, 12.29592133, 0.00000000, 0.00000000, 0.00000000, 104.00041962, 4.00687075, 139.23396301, 1.00000000, 0.00000000, 0.00000000, 0.00000000, -0.04606464, 0.03700346, -0.01894298, 0.00000000, 0.00000000, 0.00000000, 0.00000000
1, 3.3300, 333, 0.07432514, -0.98038471, 0.27959087, -5.72717094, -26.39272690, 13.85506153, 0.00000000, 0.00000000, 0.00000000, 103.92302704, 3.93609262, 138.94371033, 1.00000000, 0.00000000, 0.00000000, 0.00000000, -0.00517150, 0.01221471, -0.03904055, 0.00000000, 0.00000000, 0.00000000, 0.00000000
1, 3.3400, 334, 0.02090414, -0.95825952, 0.28626329, -7.41882467, -26.63752747, 18.52765656, 0.00000000, 0.00000000, 0.00000000, 103.84259796, 3.81240463, 138.63768005, 1.00000000, 0.00000000, 0.00000000, 0.00000000, 0.04656214, -0.01038517, -0.04715001, 0.00000000, 0.00000000, 0.00000000, 0.00000000
1, 3.3500, 335, 0.09370149, -0.97936761, 0.24688250, -9.92633438, -21.33413887, 17.27343750, 0.00000000, 0.00000000, 0.00000000, 103.72703552, 3.69549441, 138.38879395, 1.00000000, 0.00000000, 0.00000000, 0.00000000, -0.02850637, 0.01018412, -0.00932753, 0.00000000, 0.00000000, 0.00000000, 0.00000000
1, 3.3600, 336, 0.11601477, -0.98310536, 0.24690682, -11.65695858, -23.56900787, 16.67329979, 0.00000000, 0.00000000, 0.00000000, 103.59338379, 3.58913279, 138.11984253, 1.00000000, 0.00000000, 0.00000000, 0.00000000, -0.05272400, 0.01327762, -0.01147585, 0.00000000, 0.00000000, 0.00000000, 0.00000000
1, 3.3700, 337, 0.09781949, -0.97384125, 0.24727941, -13.94750118, -29.94942474, 17.55356979, 0.00000000, 0.00000000, 0.00000000, 103.43336487, 3.48843837, 137.78698730, 1.00000000, 0.00000000, 0.00000000, 0.00000000, -0.03631142, 0.00329453, -0.01435278, 0.00000000, 0.00000000, 0.00000000, 0.00000000
1, 3.3800, 338, 0.06622452, -0.98935139, 0.25001073, -16.47756386, -30.07068443, 18.73804855, 0.00000000, 0.00000000, 0.00000000, 103.24844360, 3.37551761, 137.45056152, 1.00000000, 0.00000000, 0.00000000, 0.00000000, -0.00658786, 0.01798278, -0.02004253, 0.00000000, 0.00000000, 0.00000000, 0.00000000
1, 3.3900, 339, 0.06915498, -1.01155818, 0.23632617, -18.65857506, -26.71786880, 19.22425270, 0.00000000, 0.00000000, 0.00000000, 103.04380798, 3.25061941, 137.14640808, 1.00000000, 0.00000000, 0.00000000, 0.00000000, -0.01162654, 0.03928299, -0.00967650, 0.00000000, 0.00000000, 0.00000000, 0.00000000
1, 3.4000, 340, 0.06938311, -1.00689411, 0.21107310, -19.85669136, -27.76416397, 18.99909592, 0.00000000, 0.00000000, 0.00000000, 102.82781982, 3.12759113, 136.83277893, 1.00000000, 0.00000000, 0.00000000, 0.00000000, -0.01405357, 0.03366527, 0.01200293, 0.00000000, 0.00000000, 0.00000000, 0.00000000
1, 3.4100, 341, 0.05567374, -0.99397594, 0.18827912, -21.46592712, -37.09609985, 18.22630501, 0.00000000, 0.00000000, 0.00000000, 102.59156036, 3.03139114, 136.43022156, 1.00000000, 0.00000000, 0.00000000, 0.00000000, -0.00218962, 0.01976816, 0.03094038, 0.00000000, 0.00000000, 0.00000000, 0.00000000
1, 3.4200, 342, 0.02688472, -0.98178756, 0.18340656, -23.40444756, -39.96515656, 18.04121590, 0.00000000, 0.00000000, 0.00000000, 102.33513641, 2.94150662, 136.00047302, 1.00000000, 0.00000000, 0.00000000, 0.00000000, 0.02502188, 0.00655818, 0.03160901, 0.00000000, 0.00000000, 0.00000000, 0.00000000
1, 3.4300, 343, 0.02580688, -0.99497014, 0.17477480, -25.87038612, -41.63235855, 17.92924690, 0.00000000, 0.00000000, 0.00000000, 102.05392456, 2.85422134, 135.55511475, 1.00000000, 0.00000000, 0.00000000, 0.00000000, 0.02456103, 0.01865147, 0.03561249, 0.00000000, 0.00000000, 0.00000000, 0.00000000
1, 3.4400, 344, 0.02857866, -0.98873085, 0.16711575, -26.20344925, -37.17016220, 18.49340820, 0.00000000, 0.00000000, 0.00000000, 101.76825714, 2.74942470, 135.15309143, 1.00000000, 0.00000000, 0.00000000, 0.00000000, 0.02009534, 0.01129283, 0.03841650, 0.00000000, 0.00000000, 0.00000000, 0.00000000
1, 3.4500, 345, 0.02676299, -0.98605216, 0.15683061, -24.94600487, -32.56449890, 18.39231873, 0.00000000, 0.00000000, 0.00000000, 101.50204468, 2.63495588, 134.79664612, 1.00000000, 0.00000000, 0.00000000, 0.00000000, 0.01997087, 0.00755326, 0.04405228, 0.00000000, 0.00000000, 0.00000000, 0.00000000
1, 3.4600, 346, 0.02869513, -0.97816521, 0.15190300, -23.78556061, -33.00970078, 19.09033394, 0.00000000, 0.00000000, 0.00000000, 101.24795532, 2.51290417, 134.43501282, 1.00000000, 0.00000000, 0.00000000, 0.00000000, 0.01594674, -0.00132605, 0.04457153, 0.00000000, 0.00000000, 0.00000000, 0.00000000
1, 3.4700, 347, 0.09605476, -1.11712050, 0.07319932, -23.35552216, -35.81053162, 20.13699913, 0.00000000, 0.00000000, 0.00000000, 100.99771118, 2.38439250, 134.04443359, 1.00000000, 0.00000000, 0.00000000, 0.00000000, -0.05358165, 0.13668640, 0.11900735, 0.00000000, 0.00000000, 0.00000000, 0.00000000
1, 3.4800, 348, 0.09032013, -0.95307201, 0.16770378, -22.84041977, -40.15865326, 22.03933716, 0.00000000, 0.00000000, 0.00000000, 100.75167084, 2.24376869, 133.60810852, 1.00000000, 0.00000000, 0.00000000, 0.00000000, -0.05026976, -0.02828138, 0.02028467, 0.00000000, 0.00000000, 0.00000000, 0.00000000
1, 3.4900, 349, 0.06251193, -0.95780420, 0.18815997, -23.50856781, -40.23880386, 22.20406151, 0.00000000, 0.00000000, 0.00000000, 100.50188446, 2.09842038, 133.17097473, 1.00000000, 0.00000000, 0.00000000, 0.00000000, -0.02491965, -0.02444997, -0.00441711, 0.00000000, 0.00000000, 0.00000000, 0.00000000
1, 3.5000, 350, -0.00174127, -0.97955352, 0.18397780, -23.71806717, -40.33480072, 23.69292259, 0.00000000, 0.00000000, 0.00000000, 100.24920654, 1.93802309, 132.73127747, 1.00000000, 0.00000000, 0.00000000, 0.00000000, 0.03663141, -0.00359382, -0.00452904, 0.00000000, 0.00000000, 0.00000000, 0.00000000
1, 3.5100, 351, 0.01740852, -0.99835330, 0.15988956, -24.30526924, -39.45993042, 24.07790565, 0.00000000, 0.00000000, 0.00000000, 99.99221039, 1.77034259, 132.30029297, 1.00000000, 0.00000000, 0.00000000, 0.00000000, 0.01458914, 0.01432119, 0.01519529, 0.00000000, 0.00000000, 0.00000000, 0.00000000
1, 3.5200, 352, 0.04038373, -1.00805020, 0.14531000, -24.80734634, -40.25040817, 25.12468147, 0.00000000, 0.00000000, 0.00000000, 99.73124695, 1.59174371, 131.86050415, 1.00000000, 0.00000000, 0.00000000, 0.00000000, -0.01143014, 0.02314290, 0.02532695, 0.00000000, 0.00000000, 0.00000000, 0.00000000
1, 3.5300, 353, 0.07820477, -1.00921035, 0.14570884, -24.56911850, -45.68409729, 26.30014610, 0.00000000, 0.00000000, 0.00000000, 99.47261810, 1.40859210, 131.36602783, 1.00000000, 0.00000000, 0.00000000, 0.00000000, -0.05241848, 0.02345513, 0.02048216, 0.00000000, 0.00000000, 0.00000000, 0.00000000
1, 3.5400, 354, 0.09161484, -1.02051425, 0.14155182, -25.76463699, -54.83958435, 28.42923355, 0.00000000, 0.00000000, 0.00000000, 99.20235443, 1.22007716, 130.77890015, 1.00000000, 0.00000000, 0.00000000, 0.00000000, -0.06905114, 0.03392568, 0.02010011, 0.00000000, 0.00000000, 0.00000000, 0.00000000
1, 3.5500, 355, 0.10770556, -1.01260221, 0.13934490, -26.45228577, -63.67496872, 30.52088165, 0.00000000, 0.00000000, 0.00000000, 98.92465210, 1.01896632, 130.10186768, 1.00000000, 0.00000000, 0.00000000, 0.00000000, -0.08863742, 0.02517535, 0.01756897, 0.00000000, 0.00000000, 0.00000000, 0.00000000
1, 3.5600, 356, 0.17461927, -1.00994194, 0.13221323, -27.61015892, -79.39599609, 32.41461563, 0.00000000, 0.00000000, 0.00000000, 98.63526154, 0.81970376, 129.26763916, 1.00000000, 0.00000000, 0.00000000, 0.00000000, -0.15902603, 0.02168740, 0.01979617, 0.00000000, 0.00000000, 0.00000000, 0.00000000
1, 3.5700, 357, 0.21017119, -1.00323021, 0.14277901, -28.47050667, -104.91335297, 35.60663986, 0.00000000, 0.00000000, 0.00000000, 98.33690643, 0.62227505, 128.17735291, 1.00000000, 0.00000000, 0.00000000, 0.00000000, -0.19801688, 0.01415887, 0.00414697, 0.00000000, 0.00000000, 0.00000000, 0.00000000
1, 3.5800, 358, 0.22010946, -0.99653518, 0.14953184, -29.26356506, -129.50410461, 38.35379028, 0.00000000, 0.00000000, 0.00000000, 98.03211212, 0.42690623, 126.84083557, 1.00000000, 0.00000000, 0.00000000, 0.00000000, -0.21139011, 0.00666560, -0.00783151, 0.00000000, 0.00000000, 0.00000000, 0.00000000
1, 3.5900, 359, 0.23118269, -1.00530446, 0.14139856, -29.86428833, -157.69096375, 41.42367554, 0.00000000, 0.00000000, 0.00000000, 97.72418213, 0.23880465, 125.22267151, 1.00000000, 0.00000000, 0.00000000, 0.00000000, -0.22582510, 0.01466624, -0.00500191, 0.00000000, 0.00000000, 0.00000000, 0.00000000
1, 3.6000, 360, 0.22893780, -1.01661706, 0.15467472, -29.39464569, -188.58842468, 44.22101212, 0.00000000, 0.00000000, 0.00000000, 97.42544556, 0.04887344, 123.29496765, 1.00000000, 0.00000000, 0.00000000, 0.00000000, -0.22683161, 0.02525771, -0.02352940, 0.00000000, 0.00000000, 0.00000000, 0.00000000
1, 3.6100, 361, 0.21035978, -1.01282489, 0.20082092, -27.97378349, -216.09721375, 47.60663223, 0.00000000, 0.00000000, 0.00000000, 97.14772797, -0.14940718, 121.09108734, 1.00000000, 0.00000000, 0.00000000, 0.00000000, -0.21167693, 0.02082296, -0.07461586, 0.00000000, 0.00000000, 0.00000000, 0.00000000
1, 3.6200, 362, 0.17744151, -1.02502406, 0.17770900, -27.41272926, -238.86940002, 50.07865906, 0.00000000, 0.00000000, 0.00000000, 96.88433075, -0.35477602, 118.65911102, 1.00000000, 0.00000000, 0.00000000, 0.00000000, -0.18227841, 0.03245352, -0.05614572, 0.00000000, 0.00000000, 0.00000000, 0.00000000
1, 3.6300, 363, 0.08995704, -1.00317180, 0.17641713, -26.87135315, -259.20843506, 54.03204346, 0.00000000, 0.00000000, 0.00000000, 96.63726807, -0.58637708, 116.02139282, 1.00000000, 0.00000000, 0.00000000, 0.00000000, -0.09864207, 0.01009558, -0.05927846, 0.00000000, 0.00000000, 0.00000000, 0.00000000
1, 3.6400, 364, 0.03326646, -1.01536202, 0.22123775, -23.67415619, -276.04287720, 56.99679565, 0.00000000, 0.00000000, 0.00000000, 96.43739319, -0.83773565, 113.21353912, 1.00000000, 0.00000000, 0.00000000, 0.00000000, -0.04622787, 0.02188945, -0.10791687, 0.00000000, 0.00000000, 0.00000000, 0.00000000
1, 3.6500, 365, 0.04298061, -1.03840125, 0.14798088, -20.88733292, -299.11529541, 59.94551468, 0.00000000, 0.00000000, 0.00000000, 96.28002167, -1.10238898, 110.17401123, 1.00000000, 0.00000000, 0.00000000, 0.00000000, -0.06047845, 0.04466459, -0.03762288, 0.00000000, 0.00000000, 0.00000000, 0.00000000
1, 3.6600, 366, 0.04231688, -1.00343084, 0.16064827, -18.23610687, -318.28512573, 62.66191864, 0.00000000, 0.00000000, 0.00000000, 96.16770935, -1.38058197, 106.94129944, 1.00000000, 0.00000000, 0.00000000, 0.00000000, -0.06457365, 0.00953583, -0.05259643, 0.00000000, 0.00000000, 0.00000000, 0.00000000
1, 3.6700, 367, 0.08682223, -1.00488377, 0.21938267, -13.20631504, -335.64404297, 62.76318741, 0.00000000, 0.00000000, 0.00000000, 96.12569427, -1.64556646, 103.53585052, 1.00000000, 0.00000000, 0.00000000, 0.00000000, -0.11382534, 0.01097561, -0.11253712, 0.00000000, 0.00000000, 0.00000000, 0.00000000
1, 3.6800, 368, 0.12892079, -0.99240172, 0.22970735, -8.90413666, -349.02905273, 65.02011108, 0.00000000, 0.00000000, 0.00000000, 96.14675903, -1.91919672, 99.99443054, 1.00000000, 0.00000000, 0.00000000, 0.00000000, -0.16059524, -0.00137159, -0.12289166, 0.00000000, 0.00000000, 0.00000000, 0.00000000
1, 3.6900, 369, 0.13467558, -1.01013744, 0.16148847, -7.44093895, -360.09606934, 67.54909515, 0.00000000, 0.00000000, 0.00000000, 96.20360565, -2.20085287, 96.33949280, 1.00000000, 0.00000000, 0.00000000, 0.00000000, -0.17124560, 0.01661603, -0.05389759, 0.00000000, 0.00000000, 0.00000000, 0.00000000
1, 3.7000, 370, 0.19550553, -0.97801614, 0.06045156, -7.88424826, -369.68569946, 69.55886078, 0.00000000, 0.00000000, 0.00000000, 96.27850342, -2.49051523, 92.58586884, 1.00000000, 0.00000000, 0.00000000, 0.00000000, -0.23708239, -0.01518139, 0.04830514, 0.00000000, 0.00000000, 0.00000000, 0.00000000
1, 3.7100, 371, 0.29782125, -0.97992355, 0.09275776, -8.16758156, -375.98651123, 66.72319031, 0.00000000, 0.00000000, 0.00000000, 96.37113953, -2.73958468, 88.77148438, 1.00000000, 0.00000000, 0.00000000, 0.00000000, -0.34405792, -0.01290654, 0.01746402, 0.00000000, 0.00000000, 0.00000000, 0.00000000
1, 3.7200, 372, 0.25312063, -0.98180431, 0.17783098, -8.11241341, -375.27218628, 65.10351562, 0.00000000, 0.00000000, 0.00000000, 96.47952271, -2.96666336, 84.96485901, 1.00000000, 0.00000000, 0.00000000, 0.00000000, -0.30339965, -0.01063278, -0.06585271, 0.00000000, 0.00000000, 0.00000000, 0.00000000
1, 3.7300, 373, 0.24115799, -0.97876245, 0.20128687, -8.11165905, -366.68646240, 63.01733398, 0.00000000, 0.00000000, 0.00000000, 96.59776306, -3.17523551, 81.24481964, 1.00000000, 0.00000000, 0.00000000, 0.00000000, -0.29521000, -0.01325129, -0.08733167, 0.00000000, 0.00000000, 0.00000000, 0.00000000
1, 3.7400, 374, 0.24087273, -0.98020214, 0.22057933, -8.33043003, -353.41357422, 61.05907822, 0.00000000, 0.00000000, 0.00000000, 96.72106171, -3.36723328, 77.65726471, 1.00000000, 0.00000000, 0.00000000, 0.00000000, -0.29838428, -0.01137675, -0.10455066, 0.00000000, 0.00000000, 0.00000000, 0.00000000
1, 3.7500, 375, 0.22718202, -0.96653312, 0.22223340, -8.95221424, -340.75265503, 59.13356018, 0.00000000, 0.00000000, 0.00000000, 96.84033966, -3.55210590, 74.19750214, 1.00000000, 0.00000000, 0.00000000, 0.00000000, -0.28794432, -0.02460544, -0.10411858, 0.00000000, 0.00000000, 0.00000000, 0.00000000
1, 3.7600, 376, 0.21860877, -0.94872725, 0.22967198, -10.64126205, -327.52554321, 56.24781418, 0.00000000, 0.00000000, 0.00000000, 96.94482422, -3.71738982, 70.87178040, 1.00000000, 0.00000000, 0.00000000, 0.00000000, -0.28238973, -0.04199289, -0.10965198, 0.00000000, 0.00000000, 0.00000000, 0.00000000
1, 3.7700, 377, 0.21840435, -0.95325172, 0.23375835, -12.65158176, -312.76821899, 52.78908539, 0.00000000, 0.00000000, 0.00000000, 97.02823639, -3.86085916, 67.69621277, 1.00000000, 0.00000000, 0.00000000, 0.00000000, -0.28483701, -0.03710482, -0.11218581, 0.00000000, 0.00000000, 0.00000000, 0.00000000
1, 3.7800, 378, 0.23926879, -0.96722919, 0.21051949, -14.19171619, -299.92489624, 48.60205841, 0.00000000, 0.00000000, 0.00000000, 97.09436035, -3.97445250, 64.65289307, 1.00000000, 0.00000000, 0.00000000, 0.00000000, -0.30787608, -0.02282766, -0.08771835, 0.00000000, 0.00000000, 0.00000000, 0.00000000
1, 3.7900, 379, 0.24890819, -0.95766610, 0.15549678, -14.97392368, -290.25241089, 44.33338165, 0.00000000, 0.00000000, 0.00000000, 97.15103912, -4.04802465, 61.70988464, 1.00000000, 0.00000000, 0.00000000, 0.00000000, -0.31911269, -0.03215156, -0.03167389, 0.00000000, 0.00000000, 0.00000000, 0.00000000
1, 3.8000, 380, 0.23579222, -0.92518181, 0.12720682, -15.73979378, -284.08505249, 39.95317841, 0.00000000, 0.00000000, 0.00000000, 97.19783783, -4.08960962, 58.83415604, 1.00000000, 0.00000000, 0.00000000, 0.00000000, -0.30689171, -0.06446387, -0.00252235, 0.00000000, 0.00000000, 0.00000000, 0.00000000
1, 3.8100, 381, 0.22555590, -0.90102941, 0.16836400, -16.61821556, -278.91775513, 34.65260696, 0.00000000, 0.00000000, 0.00000000, 97.23267365, -4.08299112, 56.01640701, 1.00000000, 0.00000000, 0.00000000, 0.00000000, -0.29688001, -0.08851223, -0.04298382, 0.00000000, 0.00000000, 0.00000000, 0.00000000
1, 3.8200, 382, 0.21137692, -0.88535535, 0.19597125, -18.22050667, -268.15954590, 28.35936356, 0.00000000, 0.00000000, 0.00000000, 97.24172974, -4.02639771, 53.31370926, 1.00000000, 0.00000000, 0.00000000, 0.00000000, -0.28201720, -0.10419215, -0.07025100, 0.00000000, 0.00000000, 0.00000000, 0.00000000
1, 3.8300, 383, 0.18447641, -0.87814051, 0.21947882, -19.74630165, -259.97140503, 22.54236031, 0.00000000, 0.00000000, 0.00000000, 97.22565460, -3.92262673, 50.70003128, 1.00000000, 0.00000000, 0.00000000, 0.00000000, -0.25363967, -0.11152637, -0.09387708, 0.00000000, 0.00000000, 0.00000000, 0.00000000
1, 3.8400, 384, 0.15302467, -0.87722379, 0.25658479, -18.54386711, -254.77859497, 15.78168964, 0.00000000, 0.00000000, 0.00000000, 97.21600342, -3.75384164, 48.14530945, 1.00000000, 0.00000000, 0.00000000, 0.00000000, -0.21973343, -0.11264485, -0.13124853, 0.00000000, 0.00000000, 0.00000000, 0.00000000
1, 3.8500, 385, 0.12299909, -0.86203462, 0.29705870, -15.57162762, -250.37791443, 9.56749249, 0.00000000, 0.00000000, 0.00000000, 97.21942902, -3.53427482, 45.64429092, 1.00000000, 0.00000000, 0.00000000, 0.00000000, -0.18615079, -0.12806390, -0.17169683, 0.00000000, 0.00000000, 0.00000000, 0.00000000
1, 3.8600, 386, 0.11322985, -0.85605603, 0.34424001, -12.53462982, -246.20596313, 4.03227377, 0.00000000, 0.00000000, 0.00000000, 97.23961639, -3.26447845, 43.19242859, 1.00000000, 0.00000000, 0.00000000, 0.00000000, -0.17198841, -0.13427523, -0.21858312, 0.00000000, 0.00000000, 0.00000000, 0.00000000
1, 3.8700, 387, 0.05659331, -0.85542566, 0.38252592, -10.40117645, -241.64086914, -0.40230435, 0.00000000, 0.00000000, 0.00000000, 97.26599884, -2.95542288, 40.79233932, 1.00000000, 0.00000000, 0.00000000, 0.00000000, -0.11023595, -0.13513622, -0.25640178, 0.00000000, 0.00000000, 0.00000000, 0.00000000
1, 3.8800, 388, -0.02748444, -0.84660608, 0.44622153, -9.18784618, -232.70513916, -2.84918571, 0.00000000, 0.00000000, 0.00000000, 97.28663635, -2.63241744, 38.48491287, 1.00000000, 0.00000000, 0.00000000, 0.00000000, -0.02055437, -0.14418755, -0.31966013, 0.00000000, 0.00000000, 0.00000000, 0.00000000
1, 3.8900, 389, -0.19231459, -0.88166797, 0.51352078, -9.16143703, -221.93328857, -2.60002160, 0.00000000, 0.00000000, 0.00000000, 97.30225372, -2.33198905, 36.28410339, 1.00000000, 0.00000000, 0.00000000, 0.00000000, 0.14974375, -0.10934091, -0.38668606, 0.00000000, 0.00000000, 0.00000000, 0.00000000
1, 3.9000, 390, -0.38135558, -0.92826074, 0.57950610, -9.07544422, -202.93426514, -0.53967589, 0.00000000, 0.00000000, 0.00000000, 97.28871155, -2.06889057, 34.27041245, 1.00000000, 0.00000000, 0.00000000, 0.00000000, 0.34363881, -0.06293835, -0.45261934, 0.00000000, 0.00000000, 0.00000000, 0.00000000
1, 3.9100, 391, -0.65673888, -1.00382221, 0.67444754, -7.05557871, -174.50921631, 4.93296623, 0.00000000, 0.00000000, 0.00000000, 97.27813721, -1.89662600, 32.53211975, 1.00000000, 0.00000000, 0.00000000, 0.00000000, 0.62264889, 0.01246150, -0.54779327, 0.00000000, 0.00000000, 0.00000000, 0.00000000
1, 3.9200, 392, -0.90882295, -1.06045473, 0.73470664, -2.20460367, -146.34785461, 11.90777302, 0.00000000, 0.00000000, 0.00000000, 97.30360413, -1.82911670, 31.06458855, 1.00000000, 0.00000000, 0.00000000, 0.00000000, 0.87661171, 0.06905404, -0.60787237, 0.00000000, 0.00000000, 0.00000000, 0.00000000
1, 3.9300, 393, -1.13372564, -1.07530391, 0.74295151, 3.75081611, -114.97863770, 20.44680786, 0.00000000, 0.00000000, 0.00000000, 97.37869263, -1.88511252, 29.89748955, 1.00000000, 0.00000000, 0.00000000, 0.00000000, 1.10137439, 0.08403166, -0.61515319, 0.00000000, 0.00000000, 0.00000000, 0.00000000
